changuito_time_to_show,time_to_think,time_to_play,total_items,nback_stimulus_time,nback_training,time_to_show_tiny_stimulus,colourtest,corresp,inmediato,consciente,inconsciente,nback_slice,imagen,correcta,trials_5.thisRepN,trials_5.thisTrialN,trials_5.thisN,trials_5.thisIndex,nback_train.thisRepN,nback_train.thisTrialN,nback_train.thisN,nback_train.thisIndex,treatment_order.thisRepN,treatment_order.thisTrialN,treatment_order.thisN,treatment_order.thisIndex,trials.thisRepN,trials.thisTrialN,trials.thisN,trials.thisIndex,trials_2.thisRepN,trials_2.thisTrialN,trials_2.thisN,trials_2.thisIndex,trials_3.thisRepN,trials_3.thisTrialN,trials_3.thisN,trials_3.thisIndex,trials_4.thisRepN,trials_4.thisTrialN,trials_4.thisN,trials_4.thisIndex,Presentacion.started,Presentacion.stopped,Juego.started,Juego.stopped,image_6.started,image_6.stopped,polygon.started,polygon.stopped,nback_train_resp.keys,nback_train_resp.corr,nback_train_resp.started,nback_train_resp.stopped,nback_train_resp.rt,hola.started,hola.stopped,image_2.started,image_2.stopped,tiempo_para_pensar.started,tiempo_para_pensar.stopped,respuesta_consciente.keys,respuesta_consciente.corr,respuesta_consciente.rt,respuesta_consciente.started,respuesta_consciente.stopped,cual_es_la_mas_barata.started,cual_es_la_mas_barata.stopped,image_4.started,image_4.stopped,holi.started,holi.stopped,image_3.started,image_3.stopped,polygon_2.started,polygon_2.stopped,nback_train_resp_2.keys,nback_train_resp_2.corr,nback_train_resp_2.started,nback_train_resp_2.stopped,nback_train_resp_2.rt,text_2.started,text_2.stopped,key_resp.keys,key_resp.corr,key_resp.rt,key_resp.started,key_resp.stopped,image_5.started,image_5.stopped,text.started,text.stopped,image.started,image.stopped,respuesta_inmediato.keys,respuesta_inmediato.corr,respuesta_inmediato.rt,respuesta_inmediato.started,respuesta_inmediato.stopped,pregunta_cual_es_el_mas_barato.started,pregunta_cual_es_el_mas_barato.stopped,short_stim1.started,short_stim1.stopped,gracias.started,gracias.stopped,respuesta1.keys,respuesta1.rt,respuesta1.started,respuesta1.stopped,pregunta1.started,pregunta1.stopped,respuesta3bis_3.keys,respuesta3bis_3.rt,respuesta3bis_3.started,respuesta3bis_3.stopped,pregunta3_3.started,pregunta3_3.stopped,productoCon3RANGOSabc_3.started,productoCon3RANGOSabc_3.stopped,text_3.started,text_3.stopped,key_resp_2.keys,key_resp_2.rt,key_resp_2.started,key_resp_2.stopped,participant,session,group,date,expName,psychopyVersion,frameRate,
8,14,14,999,0.5,0:10,3,White,None,,,,,,,0,0,0,0,0,0,0,0,,,,,,,,,,,,,,,,,,,,,57.783482206010376,None,78.34659382600512,None,78.34659382600512,None,102.01857175800251,102.52193963101308,None,1,102.01857175800251,None,,,,,,,,,,,,,,,,,,,,,,,,,,,,,,,,,,,,,,,,,,,,,,,,,,,,,,,,,,,,,,,,,,,,,,,,paulaF,001,c,2019_Oct_10_1324,Experimento,3.2.3,60.106626268837815,
8,14,14,999,0.5,0:10,3,Red,None,,,,,,,0,0,0,0,0,1,1,1,,,,,,,,,,,,,,,,,,,,,,,,,,,104.02133719700214,104.5212570750009,None,1,104.02133719700214,104.02133719700214,,,,,,,,,,,,,,,,,,,,,,,,,,,,,,,,,,,,,,,,,,,,,,,,,,,,,,,,,,,,,,,,,,,,,,,,paulaF,001,c,2019_Oct_10_1324,Experimento,3.2.3,60.106626268837815,
8,14,14,999,0.5,0:10,3,Magenta,None,,,,,,,0,0,0,0,0,2,2,2,,,,,,,,,,,,,,,,,,,,,,,,,,,106.02062862001185,106.52057145100844,None,1,106.02062862001185,106.02062862001185,,,,,,,,,,,,,,,,,,,,,,,,,,,,,,,,,,,,,,,,,,,,,,,,,,,,,,,,,,,,,,,,,,,,,,,,paulaF,001,c,2019_Oct_10_1324,Experimento,3.2.3,60.106626268837815,
8,14,14,999,0.5,0:10,3,Cyan,None,,,,,,,0,0,0,0,0,3,3,3,,,,,,,,,,,,,,,,,,,,,,,,,,,108.02003577101277,108.51992248800525,None,1,108.02003577101277,108.02003577101277,,,,,,,,,,,,,,,,,,,,,,,,,,,,,,,,,,,,,,,,,,,,,,,,,,,,,,,,,,,,,,,,,,,,,,,,paulaF,001,c,2019_Oct_10_1324,Experimento,3.2.3,60.106626268837815,
8,14,14,999,0.5,0:10,3,Magenta,['space'],,,,,,,0,0,0,0,0,4,4,4,,,,,,,,,,,,,,,,,,,,,,,,,,,110.01941834200989,110.51884900400182,None,0,110.01941834200989,110.01941834200989,,,,,,,,,,,,,,,,,,,,,,,,,,,,,,,,,,,,,,,,,,,,,,,,,,,,,,,,,,,,,,,,,,,,,,,,paulaF,001,c,2019_Oct_10_1324,Experimento,3.2.3,60.106626268837815,
8,14,14,999,0.5,0:10,3,Green,None,,,,,,,0,0,0,0,0,5,5,5,,,,,,,,,,,,,,,,,,,,,,,,,,,112.01867296500131,112.5180931440118,None,1,112.01867296500131,112.01867296500131,,,,,,,,,,,,,,,,,,,,,,,,,,,,,,,,,,,,,,,,,,,,,,,,,,,,,,,,,,,,,,,,,,,,,,,,paulaF,001,c,2019_Oct_10_1324,Experimento,3.2.3,60.106626268837815,
8,14,14,999,0.5,0:10,3,White,None,,,,,,,0,0,0,0,0,6,6,6,,,,,,,,,,,,,,,,,,,,,,,,,,,114.01796379000007,114.51782392700261,None,1,114.01796379000007,114.01796379000007,,,,,,,,,,,,,,,,,,,,,,,,,,,,,,,,,,,,,,,,,,,,,,,,,,,,,,,,,,,,,,,,,,,,,,,,paulaF,001,c,2019_Oct_10_1324,Experimento,3.2.3,60.106626268837815,
8,14,14,999,0.5,0:10,3,Green,['space'],,,,,,,0,0,0,0,0,7,7,7,,,,,,,,,,,,,,,,,,,,,,,,,,,116.01716131300782,116.5171496480034,['return'],0,116.01716131300782,116.01716131300782,[0.40070844399451744],,,,,,,,,,,,,,,,,,,,,,,,,,,,,,,,,,,,,,,,,,,,,,,,,,,,,,,,,,,,,,,,,,,,,,,paulaF,001,c,2019_Oct_10_1324,Experimento,3.2.3,60.106626268837815,
8,14,14,999,0.5,0:10,3,Blue,None,,,,,,,0,0,0,0,0,8,8,8,,,,,,,,,,,,,,,,,,,,,,,,,,,118.01654447100009,118.51650449501176,None,1,118.01654447100009,118.01654447100009,,,,,,,,,,,,,,,,,,,,,,,,,,,,,,,,,,,,,,,,,,,,,,,,,,,,,,,,,,,,,,,,,,,,,,,,paulaF,001,c,2019_Oct_10_1324,Experimento,3.2.3,60.106626268837815,
8,14,14,999,0.5,0:10,3,Green,['space'],,,,,,,0,0,0,0,0,9,9,9,,,,,,,,,,,,,,,,,,,,,,,,,,,120.01596046100894,120.51579979500093,['return'],0,120.01596046100894,120.01596046100894,[0.5838729969982523],,,,,,,,,,,,,,,,,,,,,,,,,,,,,,,,,,,,,,,,,,,,,,,,,,,,,,,,,,,,,,,,,,,,,,,paulaF,001,c,2019_Oct_10_1324,Experimento,3.2.3,60.106626268837815,
8,14,14,999,0.5,0:10,3,,,0,1,0,10:50,./completed_changuitos/montage_abswm_266.45_236.49.jpg,left,0,0,0,0,,,,,0,0,0,0,,,,,0,0,0,0,,,,,,,,,,,,,,,,,,,,,,122.16072279300715,139.70955765001418,139.70955765001418,147.72276457800763,147.72276457800763,161.73484337700938,left,1,1.8160846740065608,161.73484337700938,None,161.73484337700938,None,161.73484337700938,None,,,,,,,,,,,,,,,,,,,,,,,,,,,,,,,,,,,,,,,,,,,,,,,,,,,,,,,,paulaF,001,c,2019_Oct_10_1324,Experimento,3.2.3,60.106626268837815,
8,14,14,999,0.5,0:10,3,,,0,1,0,10:50,,,0,0,0,0,,,,,0,0,0,0,,,,,,,,,,,,,,,,,,,,,,,,,,,,,,,,,,,,,,,,,,,,,,,,,,,,,,,,,,,,,,,,,,,,,,,,,,,,,,,,,,,,,,,,,,,,,,,,,,,,paulaF,001,c,2019_Oct_10_1324,Experimento,3.2.3,60.106626268837815,
8,14,14,999,0.5,0:10,3,Yellow,None,0,0,1,15:50,./completed_changuitos/montage_gvywe_210.79_240.75.jpg,right,0,0,0,0,,,,,0,1,1,1,,,,,,,,,0,0,0,0,0,0,0,0,,,,,,,,,,,,,,,,,,,,,,,,,,,,,163.67953360600222,173.41393219100428,173.41393219100428,None,181.43386859200837,181.94480053600273,None,1,181.43386859200837,None,,,,,,,,,,,,,,,,,,,,,,,,,,,,,,,,,,,,,,,,,,,,,,paulaF,001,c,2019_Oct_10_1324,Experimento,3.2.3,60.106626268837815,
8,14,14,999,0.5,0:10,3,White,['space'],0,0,1,15:50,./completed_changuitos/montage_gvywe_210.79_240.75.jpg,right,0,0,0,0,,,,,0,1,1,1,,,,,,,,,0,0,0,0,0,1,1,1,,,,,,,,,,,,,,,,,,,,,,,,,,,,,,,,,183.4441818750056,183.9440889920079,None,0,183.4441818750056,183.4441818750056,,,,,,,,,,,,,,,,,,,,,,,,,,,,,,,,,,,,,,,,,,,,,,paulaF,001,c,2019_Oct_10_1324,Experimento,3.2.3,60.106626268837815,
8,14,14,999,0.5,0:10,3,Magenta,None,0,0,1,15:50,./completed_changuitos/montage_gvywe_210.79_240.75.jpg,right,0,0,0,0,,,,,0,1,1,1,,,,,,,,,0,0,0,0,0,2,2,2,,,,,,,,,,,,,,,,,,,,,,,,,,,,,,,,,185.44353653601138,185.94339284900343,None,1,185.44353653601138,185.44353653601138,,,,,,,,,,,,,,,,,,,,,,,,,,,,,,,,,,,,,,,,,,,,,,paulaF,001,c,2019_Oct_10_1324,Experimento,3.2.3,60.106626268837815,
8,14,14,999,0.5,0:10,3,Cyan,None,0,0,1,15:50,./completed_changuitos/montage_gvywe_210.79_240.75.jpg,right,0,0,0,0,,,,,0,1,1,1,,,,,,,,,0,0,0,0,0,3,3,3,,,,,,,,,,,,,,,,,,,,,,,,,,,,,,,,,187.4428584430134,187.94236557801196,None,1,187.4428584430134,187.4428584430134,,,,,,,,,,,,,,,,,,,,,,,,,,,,,,,,,,,,,,,,,,,,,,paulaF,001,c,2019_Oct_10_1324,Experimento,3.2.3,60.106626268837815,
8,14,14,999,0.5,0:10,3,Blue,None,0,0,1,15:50,./completed_changuitos/montage_gvywe_210.79_240.75.jpg,right,0,0,0,0,,,,,0,1,1,1,,,,,,,,,0,0,0,0,0,4,4,4,,,,,,,,,,,,,,,,,,,,,,,,,,,,,,,,,189.44216201700328,189.94204475500737,None,1,189.44216201700328,189.44216201700328,,,,,,,,,,,,,,,,,,,,,,,,,,,,,,,,,,,,,,,,,,,,,,paulaF,001,c,2019_Oct_10_1324,Experimento,3.2.3,60.106626268837815,
8,14,14,999,0.5,0:10,3,Magenta,None,0,0,1,15:50,./completed_changuitos/montage_gvywe_210.79_240.75.jpg,right,0,0,0,0,,,,,0,1,1,1,,,,,,,,,0,0,0,0,0,5,5,5,,,,,,,,,,,,,,,,,,,,,,,,,,,,,,,,,191.44151523700566,191.9409814080136,['return'],0,191.44151523700566,191.44151523700566,[0.3838151290110545],,,,,,,,,,,,,,,,,,,,,,,,,,,,,,,,,,,,,,,,,,,,,paulaF,001,c,2019_Oct_10_1324,Experimento,3.2.3,60.106626268837815,
8,14,14,999,0.5,0:10,3,Blue,['space'],0,0,1,15:50,./completed_changuitos/montage_gvywe_210.79_240.75.jpg,right,0,0,0,0,,,,,0,1,1,1,,,,,,,,,0,0,0,0,0,6,6,6,,,,,,,,,,,,,,,,,,,,,,,,,,,,,,,,,193.44071488000918,193.94067895600165,None,0,193.44071488000918,193.44071488000918,,,,,,,,,,,,,,,,,,,,,,,,,,,,,,,,,,,,,,,,,,,,,,paulaF,001,c,2019_Oct_10_1324,Experimento,3.2.3,60.106626268837815,
8,14,14,999,0.5,0:10,3,Cyan,None,0,0,1,15:50,./completed_changuitos/montage_gvywe_210.79_240.75.jpg,right,0,0,0,0,,,,,0,1,1,1,,,,,,,,,0,0,0,0,0,7,7,7,,,,,,,,,,,,,,,,,,,,,,,,,,,,,,,,,195.44020764681335,None,None,1,195.44020764681335,None,,,,,,,,,,,,,,,,,,,,,,,,,,,,,,,,,,,,,,,,,,,,,,paulaF,001,c,2019_Oct_10_1324,Experimento,3.2.3,60.106626268837815,
8,14,14,999,0.5,0:10,3,Yellow,None,0,0,1,15:50,./completed_changuitos/montage_gvywe_210.79_240.75.jpg,right,0,0,0,0,,,,,0,1,1,1,,,,,,,,,0,0,0,0,0,8,8,8,,,,,,,,,,,,,,,,,,,,,,,,,,,,,,,,,195.44020764681335,None,None,1,195.44020764681335,None,,,,,,,,,,,,,,,,,,,,,,,,,,,,,,,,,,,,,,,,,,,,,,paulaF,001,c,2019_Oct_10_1324,Experimento,3.2.3,60.106626268837815,
8,14,14,999,0.5,0:10,3,Cyan,None,0,0,1,15:50,./completed_changuitos/montage_gvywe_210.79_240.75.jpg,right,0,0,0,0,,,,,0,1,1,1,,,,,,,,,0,0,0,0,0,9,9,9,,,,,,,,,,,,,,,,,,,,,,,,,,,,,,,,,195.44020764681335,None,None,1,195.44020764681335,None,,,,,,,,,,,,,,,,,,,,,,,,,,,,,,,,,,,,,,,,,,,,,,paulaF,001,c,2019_Oct_10_1324,Experimento,3.2.3,60.106626268837815,
8,14,14,999,0.5,0:10,3,Blue,None,0,0,1,15:50,./completed_changuitos/montage_gvywe_210.79_240.75.jpg,right,0,0,0,0,,,,,0,1,1,1,,,,,,,,,0,0,0,0,0,10,10,10,,,,,,,,,,,,,,,,,,,,,,,,,,,,,,,,,195.44020764681335,None,None,1,195.44020764681335,None,,,,,,,,,,,,,,,,,,,,,,,,,,,,,,,,,,,,,,,,,,,,,,paulaF,001,c,2019_Oct_10_1324,Experimento,3.2.3,60.106626268837815,
8,14,14,999,0.5,0:10,3,Cyan,['space'],0,0,1,15:50,./completed_changuitos/montage_gvywe_210.79_240.75.jpg,right,0,0,0,0,,,,,0,1,1,1,,,,,,,,,0,0,0,0,0,11,11,11,,,,,,,,,,,,,,,,,,,,,,,,,,,,,,,,,195.45689317561335,None,None,0,195.45689317561335,None,,,,,,,,,,,,,,,,,,,,,,,,,,,,,,,,,,,,,,,,,,,,,,paulaF,001,c,2019_Oct_10_1324,Experimento,3.2.3,60.106626268837815,
8,14,14,999,0.5,0:10,3,Magenta,None,0,0,1,15:50,./completed_changuitos/montage_gvywe_210.79_240.75.jpg,right,0,0,0,0,,,,,0,1,1,1,,,,,,,,,0,0,0,0,0,12,12,12,,,,,,,,,,,,,,,,,,,,,,,,,,,,,,,,,195.45689317561335,None,None,1,195.45689317561335,None,,,,,,,,,,,,,,,,,,,,,,,,,,,,,,,,,,,,,,,,,,,,,,paulaF,001,c,2019_Oct_10_1324,Experimento,3.2.3,60.106626268837815,
8,14,14,999,0.5,0:10,3,Red,None,0,0,1,15:50,./completed_changuitos/montage_gvywe_210.79_240.75.jpg,right,0,0,0,0,,,,,0,1,1,1,,,,,,,,,0,0,0,0,0,13,13,13,,,,,,,,,,,,,,,,,,,,,,,,,,,,,,,,,195.45689317561335,None,None,1,195.45689317561335,None,,,,,,,,,,,,,,,,,,,,,,,,,,,,,,,,,,,,,,,,,,,,,,paulaF,001,c,2019_Oct_10_1324,Experimento,3.2.3,60.106626268837815,
8,14,14,999,0.5,0:10,3,Magenta,['space'],0,0,1,15:50,./completed_changuitos/montage_gvywe_210.79_240.75.jpg,right,0,0,0,0,,,,,0,1,1,1,,,,,,,,,0,0,0,0,0,14,14,14,,,,,,,,,,,,,,,,,,,,,,,,,,,,,,,,,195.45689317561335,None,None,0,195.45689317561335,None,,,,,,,,,,,,,,,,,,,,,,,,,,,,,,,,,,,,,,,,,,,,,,paulaF,001,c,2019_Oct_10_1324,Experimento,3.2.3,60.106626268837815,
8,14,14,999,0.5,0:10,3,Green,None,0,0,1,15:50,./completed_changuitos/montage_gvywe_210.79_240.75.jpg,right,0,0,0,0,,,,,0,1,1,1,,,,,,,,,0,0,0,0,0,15,15,15,,,,,,,,,,,,,,,,,,,,,,,,,,,,,,,,,195.45689317561335,None,None,1,195.45689317561335,None,,,,,,,,,,,,,,,,,,,,,,,,,,,,,,,,,,,,,,,,,,,,,,paulaF,001,c,2019_Oct_10_1324,Experimento,3.2.3,60.106626268837815,
8,14,14,999,0.5,0:10,3,Yellow,['space'],0,0,1,15:50,./completed_changuitos/montage_gvywe_210.79_240.75.jpg,right,0,0,0,0,,,,,0,1,1,1,,,,,,,,,0,0,0,0,0,16,16,16,,,,,,,,,,,,,,,,,,,,,,,,,,,,,,,,,195.45689317561335,None,None,0,195.45689317561335,None,,,,,,,,,,,,,,,,,,,,,,,,,,,,,,,,,,,,,,,,,,,,,,paulaF,001,c,2019_Oct_10_1324,Experimento,3.2.3,60.106626268837815,
8,14,14,999,0.5,0:10,3,Blue,None,0,0,1,15:50,./completed_changuitos/montage_gvywe_210.79_240.75.jpg,right,0,0,0,0,,,,,0,1,1,1,,,,,,,,,0,0,0,0,0,17,17,17,,,,,,,,,,,,,,,,,,,,,,,,,,,,,,,,,195.47357870441337,None,None,1,195.47357870441337,None,,,,,,,,,,,,,,,,,,,,,,,,,,,,,,,,,,,,,,,,,,,,,,paulaF,001,c,2019_Oct_10_1324,Experimento,3.2.3,60.106626268837815,
8,14,14,999,0.5,0:10,3,Cyan,None,0,0,1,15:50,./completed_changuitos/montage_gvywe_210.79_240.75.jpg,right,0,0,0,0,,,,,0,1,1,1,,,,,,,,,0,0,0,0,0,18,18,18,,,,,,,,,,,,,,,,,,,,,,,,,,,,,,,,,195.47357870441337,None,None,1,195.47357870441337,None,,,,,,,,,,,,,,,,,,,,,,,,,,,,,,,,,,,,,,,,,,,,,,paulaF,001,c,2019_Oct_10_1324,Experimento,3.2.3,60.106626268837815,
8,14,14,999,0.5,0:10,3,Blue,['space'],0,0,1,15:50,./completed_changuitos/montage_gvywe_210.79_240.75.jpg,right,0,0,0,0,,,,,0,1,1,1,,,,,,,,,0,0,0,0,0,19,19,19,,,,,,,,,,,,,,,,,,,,,,,,,,,,,,,,,195.47357870441337,None,None,0,195.47357870441337,None,,,,,,,,,,,,,,,,,,,,,,,,,,,,,,,,,,,,,,,,,,,,,,paulaF,001,c,2019_Oct_10_1324,Experimento,3.2.3,60.106626268837815,
8,14,14,999,0.5,0:10,3,Yellow,None,0,0,1,15:50,./completed_changuitos/montage_gvywe_210.79_240.75.jpg,right,0,0,0,0,,,,,0,1,1,1,,,,,,,,,0,0,0,0,0,20,20,20,,,,,,,,,,,,,,,,,,,,,,,,,,,,,,,,,195.47357870441337,None,None,1,195.47357870441337,None,,,,,,,,,,,,,,,,,,,,,,,,,,,,,,,,,,,,,,,,,,,,,,paulaF,001,c,2019_Oct_10_1324,Experimento,3.2.3,60.106626268837815,
8,14,14,999,0.5,0:10,3,Cyan,None,0,0,1,15:50,./completed_changuitos/montage_gvywe_210.79_240.75.jpg,right,0,0,0,0,,,,,0,1,1,1,,,,,,,,,0,0,0,0,0,21,21,21,,,,,,,,,,,,,,,,,,,,,,,,,,,,,,,,,195.47357870441337,None,None,1,195.47357870441337,None,,,,,,,,,,,,,,,,,,,,,,,,,,,,,,,,,,,,,,,,,,,,,,paulaF,001,c,2019_Oct_10_1324,Experimento,3.2.3,60.106626268837815,
8,14,14,999,0.5,0:10,3,Yellow,['space'],0,0,1,15:50,./completed_changuitos/montage_gvywe_210.79_240.75.jpg,right,0,0,0,0,,,,,0,1,1,1,,,,,,,,,0,0,0,0,0,22,22,22,,,,,,,,,,,,,,,,,,,,,,,,,,,,,,,,,195.47357870441337,None,None,0,195.47357870441337,None,,,,,,,,,,,,,,,,,,,,,,,,,,,,,,,,,,,,,,,,,,,,,,paulaF,001,c,2019_Oct_10_1324,Experimento,3.2.3,60.106626268837815,
8,14,14,999,0.5,0:10,3,Magenta,None,0,0,1,15:50,./completed_changuitos/montage_gvywe_210.79_240.75.jpg,right,0,0,0,0,,,,,0,1,1,1,,,,,,,,,0,0,0,0,0,23,23,23,,,,,,,,,,,,,,,,,,,,,,,,,,,,,,,,,195.47357870441337,None,None,1,195.47357870441337,None,,,,,,,,,,,,,,,,,,,,,,,,,,,,,,,,,,,,,,,,,,,,,,paulaF,001,c,2019_Oct_10_1324,Experimento,3.2.3,60.106626268837815,
8,14,14,999,0.5,0:10,3,Red,None,0,0,1,15:50,./completed_changuitos/montage_gvywe_210.79_240.75.jpg,right,0,0,0,0,,,,,0,1,1,1,,,,,,,,,0,0,0,0,0,24,24,24,,,,,,,,,,,,,,,,,,,,,,,,,,,,,,,,,195.47357870441337,None,None,1,195.47357870441337,None,,,,,,,,,,,,,,,,,,,,,,,,,,,,,,,,,,,,,,,,,,,,,,paulaF,001,c,2019_Oct_10_1324,Experimento,3.2.3,60.106626268837815,
8,14,14,999,0.5,0:10,3,Magenta,['space'],0,0,1,15:50,./completed_changuitos/montage_gvywe_210.79_240.75.jpg,right,0,0,0,0,,,,,0,1,1,1,,,,,,,,,0,0,0,0,0,25,25,25,,,,,,,,,,,,,,,,,,,,,,,,,,,,,,,,,195.47357870441337,None,None,0,195.47357870441337,None,,,,,,,,,,,,,,,,,,,,,,,,,,,,,,,,,,,,,,,,,,,,,,paulaF,001,c,2019_Oct_10_1324,Experimento,3.2.3,60.106626268837815,
8,14,14,999,0.5,0:10,3,Red,['space'],0,0,1,15:50,./completed_changuitos/montage_gvywe_210.79_240.75.jpg,right,0,0,0,0,,,,,0,1,1,1,,,,,,,,,0,0,0,0,0,26,26,26,,,,,,,,,,,,,,,,,,,,,,,,,,,,,,,,,195.47357870441337,None,None,0,195.47357870441337,None,,,,,,,,,,,,,,,,,,,,,,,,,,,,,,,,,,,,,,,,,,,,,,paulaF,001,c,2019_Oct_10_1324,Experimento,3.2.3,60.106626268837815,
8,14,14,999,0.5,0:10,3,Yellow,None,0,0,1,15:50,./completed_changuitos/montage_gvywe_210.79_240.75.jpg,right,0,0,0,0,,,,,0,1,1,1,,,,,,,,,0,0,0,0,0,27,27,27,,,,,,,,,,,,,,,,,,,,,,,,,,,,,,,,,195.47357870441337,None,None,1,195.47357870441337,None,,,,,,,,,,,,,,,,,,,,,,,,,,,,,,,,,,,,,,,,,,,,,,paulaF,001,c,2019_Oct_10_1324,Experimento,3.2.3,60.106626268837815,
8,14,14,999,0.5,0:10,3,Cyan,None,0,0,1,15:50,./completed_changuitos/montage_gvywe_210.79_240.75.jpg,right,0,0,0,0,,,,,0,1,1,1,,,,,,,,,0,0,0,0,0,28,28,28,,,,,,,,,,,,,,,,,,,,,,,,,,,,,,,,,195.47357870441337,None,None,1,195.47357870441337,None,,,,,,,,,,,,,,,,,,,,,,,,,,,,,,,,,,,,,,,,,,,,,,paulaF,001,c,2019_Oct_10_1324,Experimento,3.2.3,60.106626268837815,
8,14,14,999,0.5,0:10,3,Green,None,0,0,1,15:50,./completed_changuitos/montage_gvywe_210.79_240.75.jpg,right,0,0,0,0,,,,,0,1,1,1,,,,,,,,,0,0,0,0,0,29,29,29,,,,,,,,,,,,,,,,,,,,,,,,,,,,,,,,,195.47357870441337,None,None,1,195.47357870441337,None,,,,,,,,,,,,,,,,,,,,,,,,,,,,,,,,,,,,,,,,,,,,,,paulaF,001,c,2019_Oct_10_1324,Experimento,3.2.3,60.106626268837815,
8,14,14,999,0.5,0:10,3,White,None,0,0,1,15:50,./completed_changuitos/montage_gvywe_210.79_240.75.jpg,right,0,0,0,0,,,,,0,1,1,1,,,,,,,,,0,0,0,0,0,30,30,30,,,,,,,,,,,,,,,,,,,,,,,,,,,,,,,,,195.49026423321337,None,None,1,195.49026423321337,None,,,,,,,,,,,,,,,,,,,,,,,,,,,,,,,,,,,,,,,,,,,,,,paulaF,001,c,2019_Oct_10_1324,Experimento,3.2.3,60.106626268837815,
8,14,14,999,0.5,0:10,3,Green,['space'],0,0,1,15:50,./completed_changuitos/montage_gvywe_210.79_240.75.jpg,right,0,0,0,0,,,,,0,1,1,1,,,,,,,,,0,0,0,0,0,31,31,31,,,,,,,,,,,,,,,,,,,,,,,,,,,,,,,,,195.49026423321337,None,None,0,195.49026423321337,None,,,,,,,,,,,,,,,,,,,,,,,,,,,,,,,,,,,,,,,,,,,,,,paulaF,001,c,2019_Oct_10_1324,Experimento,3.2.3,60.106626268837815,
8,14,14,999,0.5,0:10,3,Red,None,0,0,1,15:50,./completed_changuitos/montage_gvywe_210.79_240.75.jpg,right,0,0,0,0,,,,,0,1,1,1,,,,,,,,,0,0,0,0,0,32,32,32,,,,,,,,,,,,,,,,,,,,,,,,,,,,,,,,,195.49026423321337,None,None,1,195.49026423321337,None,,,,,,,,,,,,,,,,,,,,,,,,,,,,,,,,,,,,,,,,,,,,,,paulaF,001,c,2019_Oct_10_1324,Experimento,3.2.3,60.106626268837815,
8,14,14,999,0.5,0:10,3,Blue,None,0,0,1,15:50,./completed_changuitos/montage_gvywe_210.79_240.75.jpg,right,0,0,0,0,,,,,0,1,1,1,,,,,,,,,0,0,0,0,0,33,33,33,,,,,,,,,,,,,,,,,,,,,,,,,,,,,,,,,195.49026423321337,None,None,1,195.49026423321337,None,,,,,,,,,,,,,,,,,,,,,,,,,,,,,,,,,,,,,,,,,,,,,,paulaF,001,c,2019_Oct_10_1324,Experimento,3.2.3,60.106626268837815,
8,14,14,999,0.5,0:10,3,Green,None,0,0,1,15:50,./completed_changuitos/montage_gvywe_210.79_240.75.jpg,right,0,0,0,0,,,,,0,1,1,1,,,,,,,,,0,0,0,0,0,34,34,34,,,,,,,,,,,,,,,,,,,,,,,,,,,,,,,,,195.49026423321337,None,None,1,195.49026423321337,None,,,,,,,,,,,,,,,,,,,,,,,,,,,,,,,,,,,,,,,,,,,,,,paulaF,001,c,2019_Oct_10_1324,Experimento,3.2.3,60.106626268837815,
8,14,14,999,0.5,0:10,3,,,0,0,1,15:50,./completed_changuitos/montage_gvywe_210.79_240.75.jpg,right,0,0,0,0,,,,,0,1,1,1,,,,,,,,,0,0,0,0,,,,,,,,,,,,,,,,,,,,,,,,,,,,,,,,,,,,,,,,,,,,195.52100484800758,None,right,1,3.1505501799983904,195.52100484800758,None,195.52100484800758,198.5224736310047,,,,,,,,,,,,,,,,,,,,,,,,,,,,,,,,,,,,paulaF,001,c,2019_Oct_10_1324,Experimento,3.2.3,60.106626268837815,
8,14,14,999,0.5,0:10,3,,,0,0,1,15:50,,,0,0,0,0,,,,,0,1,1,1,,,,,,,,,,,,,,,,,,,,,,,,,,,,,,,,,,,,,,,,,,,,,,,,,,,,,,,,,,,,,,,,,,,,,,,,,,,,,,,,,,,,,,,,,,,,,,,,,,,,paulaF,001,c,2019_Oct_10_1324,Experimento,3.2.3,60.106626268837815,
8,14,14,999,0.5,0:10,3,Magenta,None,0,0,1,20:50,./completed_changuitos/montage_jygaf_77.05_87.65.jpg,right,0,0,0,0,,,,,0,2,2,2,,,,,,,,,0,0,0,0,0,0,0,0,,,,,,,,,,,,,,,,,,,,,,,,,,,,,198.79064188100165,201.70469223200053,201.70469223200053,None,209.72573732300953,210.2351483930106,None,1,209.72573732300953,None,,,,,,,,,,,,,,,,,,,,,,,,,,,,,,,,,,,,,,,,,,,,,,paulaF,001,c,2019_Oct_10_1324,Experimento,3.2.3,60.106626268837815,
8,14,14,999,0.5,0:10,3,Blue,['space'],0,0,1,20:50,./completed_changuitos/montage_jygaf_77.05_87.65.jpg,right,0,0,0,0,,,,,0,2,2,2,,,,,,,,,0,0,0,0,0,1,1,1,,,,,,,,,,,,,,,,,,,,,,,,,,,,,,,,,211.73423576301138,212.23400743800448,None,0,211.73423576301138,211.73423576301138,,,,,,,,,,,,,,,,,,,,,,,,,,,,,,,,,,,,,,,,,,,,,,paulaF,001,c,2019_Oct_10_1324,Experimento,3.2.3,60.106626268837815,
8,14,14,999,0.5,0:10,3,Cyan,None,0,0,1,20:50,./completed_changuitos/montage_jygaf_77.05_87.65.jpg,right,0,0,0,0,,,,,0,2,2,2,,,,,,,,,0,0,0,0,0,2,2,2,,,,,,,,,,,,,,,,,,,,,,,,,,,,,,,,,213.7335315290111,214.2333434250031,None,1,213.7335315290111,213.7335315290111,,,,,,,,,,,,,,,,,,,,,,,,,,,,,,,,,,,,,,,,,,,,,,paulaF,001,c,2019_Oct_10_1324,Experimento,3.2.3,60.106626268837815,
8,14,14,999,0.5,0:10,3,Yellow,None,0,0,1,20:50,./completed_changuitos/montage_jygaf_77.05_87.65.jpg,right,0,0,0,0,,,,,0,2,2,2,,,,,,,,,0,0,0,0,0,3,3,3,,,,,,,,,,,,,,,,,,,,,,,,,,,,,,,,,215.7328345640126,216.23268920800183,None,1,215.7328345640126,215.7328345640126,,,,,,,,,,,,,,,,,,,,,,,,,,,,,,,,,,,,,,,,,,,,,,paulaF,001,c,2019_Oct_10_1324,Experimento,3.2.3,60.106626268837815,
8,14,14,999,0.5,0:10,3,Cyan,None,0,0,1,20:50,./completed_changuitos/montage_jygaf_77.05_87.65.jpg,right,0,0,0,0,,,,,0,2,2,2,,,,,,,,,0,0,0,0,0,4,4,4,,,,,,,,,,,,,,,,,,,,,,,,,,,,,,,,,217.73227721800504,218.23195709800348,['return'],0,217.73227721800504,217.73227721800504,[0.5834675589867402],,,,,,,,,,,,,,,,,,,,,,,,,,,,,,,,,,,,,,,,,,,,,paulaF,001,c,2019_Oct_10_1324,Experimento,3.2.3,60.106626268837815,
8,14,14,999,0.5,0:10,3,Blue,None,0,0,1,20:50,./completed_changuitos/montage_jygaf_77.05_87.65.jpg,right,0,0,0,0,,,,,0,2,2,2,,,,,,,,,0,0,0,0,0,5,5,5,,,,,,,,,,,,,,,,,,,,,,,,,,,,,,,,,219.73149519201252,220.2312823960092,None,1,219.73149519201252,219.73149519201252,,,,,,,,,,,,,,,,,,,,,,,,,,,,,,,,,,,,,,,,,,,,,,paulaF,001,c,2019_Oct_10_1324,Experimento,3.2.3,60.106626268837815,
8,14,14,999,0.5,0:10,3,Cyan,['space'],0,0,1,20:50,./completed_changuitos/montage_jygaf_77.05_87.65.jpg,right,0,0,0,0,,,,,0,2,2,2,,,,,,,,,0,0,0,0,0,6,6,6,,,,,,,,,,,,,,,,,,,,,,,,,,,,,,,,,221.73076237700297,222.230593573011,['return'],0,221.73076237700297,221.73076237700297,[0.3501571270026034],,,,,,,,,,,,,,,,,,,,,,,,,,,,,,,,,,,,,,,,,,,,,paulaF,001,c,2019_Oct_10_1324,Experimento,3.2.3,60.106626268837815,
8,14,14,999,0.5,0:10,3,Magenta,None,0,0,1,20:50,./completed_changuitos/montage_jygaf_77.05_87.65.jpg,right,0,0,0,0,,,,,0,2,2,2,,,,,,,,,0,0,0,0,0,7,7,7,,,,,,,,,,,,,,,,,,,,,,,,,,,,,,,,,223.7301166348072,None,None,1,223.7301166348072,None,,,,,,,,,,,,,,,,,,,,,,,,,,,,,,,,,,,,,,,,,,,,,,paulaF,001,c,2019_Oct_10_1324,Experimento,3.2.3,60.106626268837815,
8,14,14,999,0.5,0:10,3,Red,None,0,0,1,20:50,./completed_changuitos/montage_jygaf_77.05_87.65.jpg,right,0,0,0,0,,,,,0,2,2,2,,,,,,,,,0,0,0,0,0,8,8,8,,,,,,,,,,,,,,,,,,,,,,,,,,,,,,,,,223.7301166348072,None,None,1,223.7301166348072,None,,,,,,,,,,,,,,,,,,,,,,,,,,,,,,,,,,,,,,,,,,,,,,paulaF,001,c,2019_Oct_10_1324,Experimento,3.2.3,60.106626268837815,
8,14,14,999,0.5,0:10,3,Magenta,['space'],0,0,1,20:50,./completed_changuitos/montage_jygaf_77.05_87.65.jpg,right,0,0,0,0,,,,,0,2,2,2,,,,,,,,,0,0,0,0,0,9,9,9,,,,,,,,,,,,,,,,,,,,,,,,,,,,,,,,,223.7301166348072,None,None,0,223.7301166348072,None,,,,,,,,,,,,,,,,,,,,,,,,,,,,,,,,,,,,,,,,,,,,,,paulaF,001,c,2019_Oct_10_1324,Experimento,3.2.3,60.106626268837815,
8,14,14,999,0.5,0:10,3,Green,None,0,0,1,20:50,./completed_changuitos/montage_jygaf_77.05_87.65.jpg,right,0,0,0,0,,,,,0,2,2,2,,,,,,,,,0,0,0,0,0,10,10,10,,,,,,,,,,,,,,,,,,,,,,,,,,,,,,,,,223.7301166348072,None,None,1,223.7301166348072,None,,,,,,,,,,,,,,,,,,,,,,,,,,,,,,,,,,,,,,,,,,,,,,paulaF,001,c,2019_Oct_10_1324,Experimento,3.2.3,60.106626268837815,
8,14,14,999,0.5,0:10,3,Yellow,['space'],0,0,1,20:50,./completed_changuitos/montage_jygaf_77.05_87.65.jpg,right,0,0,0,0,,,,,0,2,2,2,,,,,,,,,0,0,0,0,0,11,11,11,,,,,,,,,,,,,,,,,,,,,,,,,,,,,,,,,223.7301166348072,None,None,0,223.7301166348072,None,,,,,,,,,,,,,,,,,,,,,,,,,,,,,,,,,,,,,,,,,,,,,,paulaF,001,c,2019_Oct_10_1324,Experimento,3.2.3,60.106626268837815,
8,14,14,999,0.5,0:10,3,Blue,None,0,0,1,20:50,./completed_changuitos/montage_jygaf_77.05_87.65.jpg,right,0,0,0,0,,,,,0,2,2,2,,,,,,,,,0,0,0,0,0,12,12,12,,,,,,,,,,,,,,,,,,,,,,,,,,,,,,,,,223.7301166348072,None,None,1,223.7301166348072,None,,,,,,,,,,,,,,,,,,,,,,,,,,,,,,,,,,,,,,,,,,,,,,paulaF,001,c,2019_Oct_10_1324,Experimento,3.2.3,60.106626268837815,
8,14,14,999,0.5,0:10,3,Cyan,None,0,0,1,20:50,./completed_changuitos/montage_jygaf_77.05_87.65.jpg,right,0,0,0,0,,,,,0,2,2,2,,,,,,,,,0,0,0,0,0,13,13,13,,,,,,,,,,,,,,,,,,,,,,,,,,,,,,,,,223.7301166348072,None,None,1,223.7301166348072,None,,,,,,,,,,,,,,,,,,,,,,,,,,,,,,,,,,,,,,,,,,,,,,paulaF,001,c,2019_Oct_10_1324,Experimento,3.2.3,60.106626268837815,
8,14,14,999,0.5,0:10,3,Blue,['space'],0,0,1,20:50,./completed_changuitos/montage_jygaf_77.05_87.65.jpg,right,0,0,0,0,,,,,0,2,2,2,,,,,,,,,0,0,0,0,0,14,14,14,,,,,,,,,,,,,,,,,,,,,,,,,,,,,,,,,223.7301166348072,None,None,0,223.7301166348072,None,,,,,,,,,,,,,,,,,,,,,,,,,,,,,,,,,,,,,,,,,,,,,,paulaF,001,c,2019_Oct_10_1324,Experimento,3.2.3,60.106626268837815,
8,14,14,999,0.5,0:10,3,Yellow,None,0,0,1,20:50,./completed_changuitos/montage_jygaf_77.05_87.65.jpg,right,0,0,0,0,,,,,0,2,2,2,,,,,,,,,0,0,0,0,0,15,15,15,,,,,,,,,,,,,,,,,,,,,,,,,,,,,,,,,223.7301166348072,None,None,1,223.7301166348072,None,,,,,,,,,,,,,,,,,,,,,,,,,,,,,,,,,,,,,,,,,,,,,,paulaF,001,c,2019_Oct_10_1324,Experimento,3.2.3,60.106626268837815,
8,14,14,999,0.5,0:10,3,Cyan,None,0,0,1,20:50,./completed_changuitos/montage_jygaf_77.05_87.65.jpg,right,0,0,0,0,,,,,0,2,2,2,,,,,,,,,0,0,0,0,0,16,16,16,,,,,,,,,,,,,,,,,,,,,,,,,,,,,,,,,223.7301166348072,None,None,1,223.7301166348072,None,,,,,,,,,,,,,,,,,,,,,,,,,,,,,,,,,,,,,,,,,,,,,,paulaF,001,c,2019_Oct_10_1324,Experimento,3.2.3,60.106626268837815,
8,14,14,999,0.5,0:10,3,Yellow,['space'],0,0,1,20:50,./completed_changuitos/montage_jygaf_77.05_87.65.jpg,right,0,0,0,0,,,,,0,2,2,2,,,,,,,,,0,0,0,0,0,17,17,17,,,,,,,,,,,,,,,,,,,,,,,,,,,,,,,,,223.7301166348072,None,None,0,223.7301166348072,None,,,,,,,,,,,,,,,,,,,,,,,,,,,,,,,,,,,,,,,,,,,,,,paulaF,001,c,2019_Oct_10_1324,Experimento,3.2.3,60.106626268837815,
8,14,14,999,0.5,0:10,3,Magenta,None,0,0,1,20:50,./completed_changuitos/montage_jygaf_77.05_87.65.jpg,right,0,0,0,0,,,,,0,2,2,2,,,,,,,,,0,0,0,0,0,18,18,18,,,,,,,,,,,,,,,,,,,,,,,,,,,,,,,,,223.7301166348072,None,None,1,223.7301166348072,None,,,,,,,,,,,,,,,,,,,,,,,,,,,,,,,,,,,,,,,,,,,,,,paulaF,001,c,2019_Oct_10_1324,Experimento,3.2.3,60.106626268837815,
8,14,14,999,0.5,0:10,3,Red,None,0,0,1,20:50,./completed_changuitos/montage_jygaf_77.05_87.65.jpg,right,0,0,0,0,,,,,0,2,2,2,,,,,,,,,0,0,0,0,0,19,19,19,,,,,,,,,,,,,,,,,,,,,,,,,,,,,,,,,223.7301166348072,None,None,1,223.7301166348072,None,,,,,,,,,,,,,,,,,,,,,,,,,,,,,,,,,,,,,,,,,,,,,,paulaF,001,c,2019_Oct_10_1324,Experimento,3.2.3,60.106626268837815,
8,14,14,999,0.5,0:10,3,Magenta,['space'],0,0,1,20:50,./completed_changuitos/montage_jygaf_77.05_87.65.jpg,right,0,0,0,0,,,,,0,2,2,2,,,,,,,,,0,0,0,0,0,20,20,20,,,,,,,,,,,,,,,,,,,,,,,,,,,,,,,,,223.7301166348072,None,None,0,223.7301166348072,None,,,,,,,,,,,,,,,,,,,,,,,,,,,,,,,,,,,,,,,,,,,,,,paulaF,001,c,2019_Oct_10_1324,Experimento,3.2.3,60.106626268837815,
8,14,14,999,0.5,0:10,3,Red,['space'],0,0,1,20:50,./completed_changuitos/montage_jygaf_77.05_87.65.jpg,right,0,0,0,0,,,,,0,2,2,2,,,,,,,,,0,0,0,0,0,21,21,21,,,,,,,,,,,,,,,,,,,,,,,,,,,,,,,,,223.7301166348072,None,None,0,223.7301166348072,None,,,,,,,,,,,,,,,,,,,,,,,,,,,,,,,,,,,,,,,,,,,,,,paulaF,001,c,2019_Oct_10_1324,Experimento,3.2.3,60.106626268837815,
8,14,14,999,0.5,0:10,3,Yellow,None,0,0,1,20:50,./completed_changuitos/montage_jygaf_77.05_87.65.jpg,right,0,0,0,0,,,,,0,2,2,2,,,,,,,,,0,0,0,0,0,22,22,22,,,,,,,,,,,,,,,,,,,,,,,,,,,,,,,,,223.7301166348072,None,None,1,223.7301166348072,None,,,,,,,,,,,,,,,,,,,,,,,,,,,,,,,,,,,,,,,,,,,,,,paulaF,001,c,2019_Oct_10_1324,Experimento,3.2.3,60.106626268837815,
8,14,14,999,0.5,0:10,3,Cyan,None,0,0,1,20:50,./completed_changuitos/montage_jygaf_77.05_87.65.jpg,right,0,0,0,0,,,,,0,2,2,2,,,,,,,,,0,0,0,0,0,23,23,23,,,,,,,,,,,,,,,,,,,,,,,,,,,,,,,,,223.74680216360719,None,None,1,223.74680216360719,None,,,,,,,,,,,,,,,,,,,,,,,,,,,,,,,,,,,,,,,,,,,,,,paulaF,001,c,2019_Oct_10_1324,Experimento,3.2.3,60.106626268837815,
8,14,14,999,0.5,0:10,3,Green,None,0,0,1,20:50,./completed_changuitos/montage_jygaf_77.05_87.65.jpg,right,0,0,0,0,,,,,0,2,2,2,,,,,,,,,0,0,0,0,0,24,24,24,,,,,,,,,,,,,,,,,,,,,,,,,,,,,,,,,223.74680216360719,None,None,1,223.74680216360719,None,,,,,,,,,,,,,,,,,,,,,,,,,,,,,,,,,,,,,,,,,,,,,,paulaF,001,c,2019_Oct_10_1324,Experimento,3.2.3,60.106626268837815,
8,14,14,999,0.5,0:10,3,White,None,0,0,1,20:50,./completed_changuitos/montage_jygaf_77.05_87.65.jpg,right,0,0,0,0,,,,,0,2,2,2,,,,,,,,,0,0,0,0,0,25,25,25,,,,,,,,,,,,,,,,,,,,,,,,,,,,,,,,,223.74680216360719,None,None,1,223.74680216360719,None,,,,,,,,,,,,,,,,,,,,,,,,,,,,,,,,,,,,,,,,,,,,,,paulaF,001,c,2019_Oct_10_1324,Experimento,3.2.3,60.106626268837815,
8,14,14,999,0.5,0:10,3,Green,['space'],0,0,1,20:50,./completed_changuitos/montage_jygaf_77.05_87.65.jpg,right,0,0,0,0,,,,,0,2,2,2,,,,,,,,,0,0,0,0,0,26,26,26,,,,,,,,,,,,,,,,,,,,,,,,,,,,,,,,,223.74680216360719,None,None,0,223.74680216360719,None,,,,,,,,,,,,,,,,,,,,,,,,,,,,,,,,,,,,,,,,,,,,,,paulaF,001,c,2019_Oct_10_1324,Experimento,3.2.3,60.106626268837815,
8,14,14,999,0.5,0:10,3,Red,None,0,0,1,20:50,./completed_changuitos/montage_jygaf_77.05_87.65.jpg,right,0,0,0,0,,,,,0,2,2,2,,,,,,,,,0,0,0,0,0,27,27,27,,,,,,,,,,,,,,,,,,,,,,,,,,,,,,,,,223.74680216360719,None,None,1,223.74680216360719,None,,,,,,,,,,,,,,,,,,,,,,,,,,,,,,,,,,,,,,,,,,,,,,paulaF,001,c,2019_Oct_10_1324,Experimento,3.2.3,60.106626268837815,
8,14,14,999,0.5,0:10,3,Blue,None,0,0,1,20:50,./completed_changuitos/montage_jygaf_77.05_87.65.jpg,right,0,0,0,0,,,,,0,2,2,2,,,,,,,,,0,0,0,0,0,28,28,28,,,,,,,,,,,,,,,,,,,,,,,,,,,,,,,,,223.74680216360719,None,None,1,223.74680216360719,None,,,,,,,,,,,,,,,,,,,,,,,,,,,,,,,,,,,,,,,,,,,,,,paulaF,001,c,2019_Oct_10_1324,Experimento,3.2.3,60.106626268837815,
8,14,14,999,0.5,0:10,3,Green,None,0,0,1,20:50,./completed_changuitos/montage_jygaf_77.05_87.65.jpg,right,0,0,0,0,,,,,0,2,2,2,,,,,,,,,0,0,0,0,0,29,29,29,,,,,,,,,,,,,,,,,,,,,,,,,,,,,,,,,223.74680216360719,None,None,1,223.74680216360719,None,,,,,,,,,,,,,,,,,,,,,,,,,,,,,,,,,,,,,,,,,,,,,,paulaF,001,c,2019_Oct_10_1324,Experimento,3.2.3,60.106626268837815,
8,14,14,999,0.5,0:10,3,,,0,0,1,20:50,./completed_changuitos/montage_jygaf_77.05_87.65.jpg,right,0,0,0,0,,,,,0,2,2,2,,,,,,,,,0,0,0,0,,,,,,,,,,,,,,,,,,,,,,,,,,,,,,,,,,,,,,,,,,,,223.78061698400415,None,left,0,1.9490205589972902,223.78061698400415,None,223.78061698400415,None,,,,,,,,,,,,,,,,,,,,,,,,,,,,,,,,,,,,paulaF,001,c,2019_Oct_10_1324,Experimento,3.2.3,60.106626268837815,
8,14,14,999,0.5,0:10,3,,,0,0,1,20:50,,,0,0,0,0,,,,,0,2,2,2,,,,,,,,,,,,,,,,,,,,,,,,,,,,,,,,,,,,,,,,,,,,,,,,,,,,,,,,,,,,,,,,,,,,,,,,,,,,,,,,,,,,,,,,,,,,,,,,,,,,paulaF,001,c,2019_Oct_10_1324,Experimento,3.2.3,60.106626268837815,
8,14,14,999,0.5,0:10,3,,,0,1,0,25:50,./completed_changuitos/montage_ljgfg_307.65_264.19.jpg,left,0,0,0,0,,,,,0,3,3,3,,,,,0,0,0,0,,,,,,,,,,,,,,,,,,,,,,225.8519079680118,229.31149865301268,229.31149865301268,237.32545036000374,237.32545036000374,251.33771142900514,left,1,0.8335567539907061,251.33771142900514,None,251.33771142900514,None,251.33771142900514,None,,,,,,,,,,,,,,,,,,,,,,,,,,,,,,,,,,,,,,,,,,,,,,,,,,,,,,,,paulaF,001,c,2019_Oct_10_1324,Experimento,3.2.3,60.106626268837815,
8,14,14,999,0.5,0:10,3,,,0,1,0,25:50,,,0,0,0,0,,,,,0,3,3,3,,,,,,,,,,,,,,,,,,,,,,,,,,,,,,,,,,,,,,,,,,,,,,,,,,,,,,,,,,,,,,,,,,,,,,,,,,,,,,,,,,,,,,,,,,,,,,,,,,,,paulaF,001,c,2019_Oct_10_1324,Experimento,3.2.3,60.106626268837815,
8,14,14,999,0.5,0:10,3,,,0,1,0,10:50,./completed_changuitos/montage_ncziq_135.89_160.49.jpg,right,0,0,0,0,,,,,0,4,4,4,,,,,0,0,0,0,,,,,,,,,,,,,,,,,,,,,,252.32280364500184,254.0701311800076,254.0701311800076,262.08405891300936,262.08405891300936,276.0959003480093,right,1,1.2328319840016775,276.0959003480093,None,276.0959003480093,None,276.0959003480093,None,,,,,,,,,,,,,,,,,,,,,,,,,,,,,,,,,,,,,,,,,,,,,,,,,,,,,,,,paulaF,001,c,2019_Oct_10_1324,Experimento,3.2.3,60.106626268837815,
8,14,14,999,0.5,0:10,3,,,0,1,0,10:50,,,0,0,0,0,,,,,0,4,4,4,,,,,,,,,,,,,,,,,,,,,,,,,,,,,,,,,,,,,,,,,,,,,,,,,,,,,,,,,,,,,,,,,,,,,,,,,,,,,,,,,,,,,,,,,,,,,,,,,,,,paulaF,001,c,2019_Oct_10_1324,Experimento,3.2.3,60.106626268837815,
8,14,14,999,0.5,0:10,3,,,0,1,0,19:50,./completed_changuitos/montage_dfaek_105.39_93.89.jpg,left,0,0,0,0,,,,,0,5,5,5,,,,,0,0,0,0,,,,,,,,,,,,,,,,,,,,,,277.47571876800794,279.67767046600056,279.67767046600056,287.69197304300906,287.69197304300906,301.70350942900404,right,0,5.198832241992932,301.70350942900404,None,301.70350942900404,None,301.70350942900404,304.7028532450058,,,,,,,,,,,,,,,,,,,,,,,,,,,,,,,,,,,,,,,,,,,,,,,,,,,,,,,,paulaF,001,c,2019_Oct_10_1324,Experimento,3.2.3,60.106626268837815,
8,14,14,999,0.5,0:10,3,,,0,1,0,19:50,,,0,0,0,0,,,,,0,5,5,5,,,,,,,,,,,,,,,,,,,,,,,,,,,,,,,,,,,,,,,,,,,,,,,,,,,,,,,,,,,,,,,,,,,,,,,,,,,,,,,,,,,,,,,,,,,,,,,,,,,,paulaF,001,c,2019_Oct_10_1324,Experimento,3.2.3,60.106626268837815,
8,14,14,999,0.5,0:10,3,Red,None,0,0,1,28:50,./completed_changuitos/montage_bezyx_283.55_249.3.jpg,left,0,0,0,0,,,,,0,6,6,6,,,,,,,,,0,0,0,0,0,0,0,0,,,,,,,,,,,,,,,,,,,,,,,,,,,,,307.04865433101077,308.584794127004,308.584794127004,None,316.62616976100253,317.1319173570082,None,1,316.62616976100253,None,,,,,,,,,,,,,,,,,,,,,,,,,,,,,,,,,,,,,,,,,,,,,,paulaF,001,c,2019_Oct_10_1324,Experimento,3.2.3,60.106626268837815,
8,14,14,999,0.5,0:10,3,Magenta,['space'],0,0,1,28:50,./completed_changuitos/montage_bezyx_283.55_249.3.jpg,left,0,0,0,0,,,,,0,6,6,6,,,,,,,,,0,0,0,0,0,1,1,1,,,,,,,,,,,,,,,,,,,,,,,,,,,,,,,,,318.6313279820024,319.13119144200755,None,0,318.6313279820024,318.6313279820024,,,,,,,,,,,,,,,,,,,,,,,,,,,,,,,,,,,,,,,,,,,,,,paulaF,001,c,2019_Oct_10_1324,Experimento,3.2.3,60.106626268837815,
8,14,14,999,0.5,0:10,3,Green,None,0,0,1,28:50,./completed_changuitos/montage_bezyx_283.55_249.3.jpg,left,0,0,0,0,,,,,0,6,6,6,,,,,,,,,0,0,0,0,0,2,2,2,,,,,,,,,,,,,,,,,,,,,,,,,,,,,,,,,320.6308035300026,321.1305448940111,['return'],0,320.6308035300026,320.6308035300026,[1.0001851239940152],,,,,,,,,,,,,,,,,,,,,,,,,,,,,,,,,,,,,,,,,,,,,paulaF,001,c,2019_Oct_10_1324,Experimento,3.2.3,60.106626268837815,
8,14,14,999,0.5,0:10,3,Yellow,['space'],0,0,1,28:50,./completed_changuitos/montage_bezyx_283.55_249.3.jpg,left,0,0,0,0,,,,,0,6,6,6,,,,,,,,,0,0,0,0,0,3,3,3,,,,,,,,,,,,,,,,,,,,,,,,,,,,,,,,,322.6299286470021,323.1298330520076,None,0,322.6299286470021,322.6299286470021,,,,,,,,,,,,,,,,,,,,,,,,,,,,,,,,,,,,,,,,,,,,,,paulaF,001,c,2019_Oct_10_1324,Experimento,3.2.3,60.106626268837815,
8,14,14,999,0.5,0:10,3,Blue,None,0,0,1,28:50,./completed_changuitos/montage_bezyx_283.55_249.3.jpg,left,0,0,0,0,,,,,0,6,6,6,,,,,,,,,0,0,0,0,0,4,4,4,,,,,,,,,,,,,,,,,,,,,,,,,,,,,,,,,324.62923099800537,325.1291691050137,None,1,324.62923099800537,324.62923099800537,,,,,,,,,,,,,,,,,,,,,,,,,,,,,,,,,,,,,,,,,,,,,,paulaF,001,c,2019_Oct_10_1324,Experimento,3.2.3,60.106626268837815,
8,14,14,999,0.5,0:10,3,Cyan,None,0,0,1,28:50,./completed_changuitos/montage_bezyx_283.55_249.3.jpg,left,0,0,0,0,,,,,0,6,6,6,,,,,,,,,0,0,0,0,0,5,5,5,,,,,,,,,,,,,,,,,,,,,,,,,,,,,,,,,326.6283072380029,327.1284789700003,None,1,326.6283072380029,326.6283072380029,,,,,,,,,,,,,,,,,,,,,,,,,,,,,,,,,,,,,,,,,,,,,,paulaF,001,c,2019_Oct_10_1324,Experimento,3.2.3,60.106626268837815,
8,14,14,999,0.5,0:10,3,Blue,['space'],0,0,1,28:50,./completed_changuitos/montage_bezyx_283.55_249.3.jpg,left,0,0,0,0,,,,,0,6,6,6,,,,,,,,,0,0,0,0,0,6,6,6,,,,,,,,,,,,,,,,,,,,,,,,,,,,,,,,,328.6279282450123,329.12779501100886,['return'],0,328.6279282450123,328.6279282450123,[0.6337734999979148],,,,,,,,,,,,,,,,,,,,,,,,,,,,,,,,,,,,,,,,,,,,,paulaF,001,c,2019_Oct_10_1324,Experimento,3.2.3,60.106626268837815,
8,14,14,999,0.5,0:10,3,Yellow,None,0,0,1,28:50,./completed_changuitos/montage_bezyx_283.55_249.3.jpg,left,0,0,0,0,,,,,0,6,6,6,,,,,,,,,0,0,0,0,0,7,7,7,,,,,,,,,,,,,,,,,,,,,,,,,,,,,,,,,330.61025749981053,None,None,1,330.61025749981053,None,,,,,,,,,,,,,,,,,,,,,,,,,,,,,,,,,,,,,,,,,,,,,,paulaF,001,c,2019_Oct_10_1324,Experimento,3.2.3,60.106626268837815,
8,14,14,999,0.5,0:10,3,Cyan,None,0,0,1,28:50,./completed_changuitos/montage_bezyx_283.55_249.3.jpg,left,0,0,0,0,,,,,0,6,6,6,,,,,,,,,0,0,0,0,0,8,8,8,,,,,,,,,,,,,,,,,,,,,,,,,,,,,,,,,330.61025749981053,None,None,1,330.61025749981053,None,,,,,,,,,,,,,,,,,,,,,,,,,,,,,,,,,,,,,,,,,,,,,,paulaF,001,c,2019_Oct_10_1324,Experimento,3.2.3,60.106626268837815,
8,14,14,999,0.5,0:10,3,Yellow,['space'],0,0,1,28:50,./completed_changuitos/montage_bezyx_283.55_249.3.jpg,left,0,0,0,0,,,,,0,6,6,6,,,,,,,,,0,0,0,0,0,9,9,9,,,,,,,,,,,,,,,,,,,,,,,,,,,,,,,,,330.61025749981053,None,None,0,330.61025749981053,None,,,,,,,,,,,,,,,,,,,,,,,,,,,,,,,,,,,,,,,,,,,,,,paulaF,001,c,2019_Oct_10_1324,Experimento,3.2.3,60.106626268837815,
8,14,14,999,0.5,0:10,3,Magenta,None,0,0,1,28:50,./completed_changuitos/montage_bezyx_283.55_249.3.jpg,left,0,0,0,0,,,,,0,6,6,6,,,,,,,,,0,0,0,0,0,10,10,10,,,,,,,,,,,,,,,,,,,,,,,,,,,,,,,,,330.61025749981053,None,None,1,330.61025749981053,None,,,,,,,,,,,,,,,,,,,,,,,,,,,,,,,,,,,,,,,,,,,,,,paulaF,001,c,2019_Oct_10_1324,Experimento,3.2.3,60.106626268837815,
8,14,14,999,0.5,0:10,3,Red,None,0,0,1,28:50,./completed_changuitos/montage_bezyx_283.55_249.3.jpg,left,0,0,0,0,,,,,0,6,6,6,,,,,,,,,0,0,0,0,0,11,11,11,,,,,,,,,,,,,,,,,,,,,,,,,,,,,,,,,330.61025749981053,None,None,1,330.61025749981053,None,,,,,,,,,,,,,,,,,,,,,,,,,,,,,,,,,,,,,,,,,,,,,,paulaF,001,c,2019_Oct_10_1324,Experimento,3.2.3,60.106626268837815,
8,14,14,999,0.5,0:10,3,Magenta,['space'],0,0,1,28:50,./completed_changuitos/montage_bezyx_283.55_249.3.jpg,left,0,0,0,0,,,,,0,6,6,6,,,,,,,,,0,0,0,0,0,12,12,12,,,,,,,,,,,,,,,,,,,,,,,,,,,,,,,,,330.61025749981053,None,None,0,330.61025749981053,None,,,,,,,,,,,,,,,,,,,,,,,,,,,,,,,,,,,,,,,,,,,,,,paulaF,001,c,2019_Oct_10_1324,Experimento,3.2.3,60.106626268837815,
8,14,14,999,0.5,0:10,3,Red,['space'],0,0,1,28:50,./completed_changuitos/montage_bezyx_283.55_249.3.jpg,left,0,0,0,0,,,,,0,6,6,6,,,,,,,,,0,0,0,0,0,13,13,13,,,,,,,,,,,,,,,,,,,,,,,,,,,,,,,,,330.61025749981053,None,None,0,330.61025749981053,None,,,,,,,,,,,,,,,,,,,,,,,,,,,,,,,,,,,,,,,,,,,,,,paulaF,001,c,2019_Oct_10_1324,Experimento,3.2.3,60.106626268837815,
8,14,14,999,0.5,0:10,3,Yellow,None,0,0,1,28:50,./completed_changuitos/montage_bezyx_283.55_249.3.jpg,left,0,0,0,0,,,,,0,6,6,6,,,,,,,,,0,0,0,0,0,14,14,14,,,,,,,,,,,,,,,,,,,,,,,,,,,,,,,,,330.61025749981053,None,None,1,330.61025749981053,None,,,,,,,,,,,,,,,,,,,,,,,,,,,,,,,,,,,,,,,,,,,,,,paulaF,001,c,2019_Oct_10_1324,Experimento,3.2.3,60.106626268837815,
8,14,14,999,0.5,0:10,3,Cyan,None,0,0,1,28:50,./completed_changuitos/montage_bezyx_283.55_249.3.jpg,left,0,0,0,0,,,,,0,6,6,6,,,,,,,,,0,0,0,0,0,15,15,15,,,,,,,,,,,,,,,,,,,,,,,,,,,,,,,,,330.61025749981053,None,None,1,330.61025749981053,None,,,,,,,,,,,,,,,,,,,,,,,,,,,,,,,,,,,,,,,,,,,,,,paulaF,001,c,2019_Oct_10_1324,Experimento,3.2.3,60.106626268837815,
8,14,14,999,0.5,0:10,3,Green,None,0,0,1,28:50,./completed_changuitos/montage_bezyx_283.55_249.3.jpg,left,0,0,0,0,,,,,0,6,6,6,,,,,,,,,0,0,0,0,0,16,16,16,,,,,,,,,,,,,,,,,,,,,,,,,,,,,,,,,330.61025749981053,None,None,1,330.61025749981053,None,,,,,,,,,,,,,,,,,,,,,,,,,,,,,,,,,,,,,,,,,,,,,,paulaF,001,c,2019_Oct_10_1324,Experimento,3.2.3,60.106626268837815,
8,14,14,999,0.5,0:10,3,White,None,0,0,1,28:50,./completed_changuitos/montage_bezyx_283.55_249.3.jpg,left,0,0,0,0,,,,,0,6,6,6,,,,,,,,,0,0,0,0,0,17,17,17,,,,,,,,,,,,,,,,,,,,,,,,,,,,,,,,,330.61025749981053,None,None,1,330.61025749981053,None,,,,,,,,,,,,,,,,,,,,,,,,,,,,,,,,,,,,,,,,,,,,,,paulaF,001,c,2019_Oct_10_1324,Experimento,3.2.3,60.106626268837815,
8,14,14,999,0.5,0:10,3,Green,['space'],0,0,1,28:50,./completed_changuitos/montage_bezyx_283.55_249.3.jpg,left,0,0,0,0,,,,,0,6,6,6,,,,,,,,,0,0,0,0,0,18,18,18,,,,,,,,,,,,,,,,,,,,,,,,,,,,,,,,,330.61025749981053,None,None,0,330.61025749981053,None,,,,,,,,,,,,,,,,,,,,,,,,,,,,,,,,,,,,,,,,,,,,,,paulaF,001,c,2019_Oct_10_1324,Experimento,3.2.3,60.106626268837815,
8,14,14,999,0.5,0:10,3,Red,None,0,0,1,28:50,./completed_changuitos/montage_bezyx_283.55_249.3.jpg,left,0,0,0,0,,,,,0,6,6,6,,,,,,,,,0,0,0,0,0,19,19,19,,,,,,,,,,,,,,,,,,,,,,,,,,,,,,,,,330.61025749981053,None,None,1,330.61025749981053,None,,,,,,,,,,,,,,,,,,,,,,,,,,,,,,,,,,,,,,,,,,,,,,paulaF,001,c,2019_Oct_10_1324,Experimento,3.2.3,60.106626268837815,
8,14,14,999,0.5,0:10,3,Blue,None,0,0,1,28:50,./completed_changuitos/montage_bezyx_283.55_249.3.jpg,left,0,0,0,0,,,,,0,6,6,6,,,,,,,,,0,0,0,0,0,20,20,20,,,,,,,,,,,,,,,,,,,,,,,,,,,,,,,,,330.61025749981053,None,None,1,330.61025749981053,None,,,,,,,,,,,,,,,,,,,,,,,,,,,,,,,,,,,,,,,,,,,,,,paulaF,001,c,2019_Oct_10_1324,Experimento,3.2.3,60.106626268837815,
8,14,14,999,0.5,0:10,3,Green,None,0,0,1,28:50,./completed_changuitos/montage_bezyx_283.55_249.3.jpg,left,0,0,0,0,,,,,0,6,6,6,,,,,,,,,0,0,0,0,0,21,21,21,,,,,,,,,,,,,,,,,,,,,,,,,,,,,,,,,330.6269430286105,None,None,1,330.6269430286105,None,,,,,,,,,,,,,,,,,,,,,,,,,,,,,,,,,,,,,,,,,,,,,,paulaF,001,c,2019_Oct_10_1324,Experimento,3.2.3,60.106626268837815,
8,14,14,999,0.5,0:10,3,,,0,0,1,28:50,./completed_changuitos/montage_bezyx_283.55_249.3.jpg,left,0,0,0,0,,,,,0,6,6,6,,,,,,,,,0,0,0,0,,,,,,,,,,,,,,,,,,,,,,,,,,,,,,,,,,,,,,,,,,,,330.66181073700136,None,left,1,1.914263636994292,330.66181073700136,None,330.66181073700136,None,,,,,,,,,,,,,,,,,,,,,,,,,,,,,,,,,,,,paulaF,001,c,2019_Oct_10_1324,Experimento,3.2.3,60.106626268837815,
8,14,14,999,0.5,0:10,3,,,0,0,1,28:50,,,0,0,0,0,,,,,0,6,6,6,,,,,,,,,,,,,,,,,,,,,,,,,,,,,,,,,,,,,,,,,,,,,,,,,,,,,,,,,,,,,,,,,,,,,,,,,,,,,,,,,,,,,,,,,,,,,,,,,,,,paulaF,001,c,2019_Oct_10_1324,Experimento,3.2.3,60.106626268837815,
8,14,14,999,0.5,0:10,3,,,0,1,0,19:50,./completed_changuitos/montage_kvzop_46.65_40.55.jpg,left,0,0,0,0,,,,,0,7,7,7,,,,,0,0,0,0,,,,,,,,,,,,,,,,,,,,,,332.6998408760119,334.7425591300125,334.7425591300125,342.75650137101184,342.75650137101184,356.76841704000253,right,0,0.5502138320007361,356.76841704000253,None,356.76841704000253,None,356.76841704000253,None,,,,,,,,,,,,,,,,,,,,,,,,,,,,,,,,,,,,,,,,,,,,,,,,,,,,,,,,paulaF,001,c,2019_Oct_10_1324,Experimento,3.2.3,60.106626268837815,
8,14,14,999,0.5,0:10,3,,,0,1,0,19:50,,,0,0,0,0,,,,,0,7,7,7,,,,,,,,,,,,,,,,,,,,,,,,,,,,,,,,,,,,,,,,,,,,,,,,,,,,,,,,,,,,,,,,,,,,,,,,,,,,,,,,,,,,,,,,,,,,,,,,,,,,paulaF,001,c,2019_Oct_10_1324,Experimento,3.2.3,60.106626268837815,
8,14,14,999,0.5,0:10,3,Magenta,None,0,0,1,20:50,./completed_changuitos/montage_cnlsi_99.4_113.99.jpg,right,0,0,0,0,,,,,0,8,8,8,,,,,,,,,0,0,0,0,0,0,0,0,,,,,,,,,,,,,,,,,,,,,,,,,,,,,357.45055021000735,359.03422211100406,359.03422211100406,None,367.0760701290128,367.5813112090109,None,1,367.0760701290128,None,,,,,,,,,,,,,,,,,,,,,,,,,,,,,,,,,,,,,,,,,,,,,,paulaF,001,c,2019_Oct_10_1324,Experimento,3.2.3,60.106626268837815,
8,14,14,999,0.5,0:10,3,Blue,['space'],0,0,1,20:50,./completed_changuitos/montage_cnlsi_99.4_113.99.jpg,right,0,0,0,0,,,,,0,8,8,8,,,,,,,,,0,0,0,0,0,1,1,1,,,,,,,,,,,,,,,,,,,,,,,,,,,,,,,,,369.08067858801223,369.5806276120129,None,0,369.08067858801223,369.08067858801223,,,,,,,,,,,,,,,,,,,,,,,,,,,,,,,,,,,,,,,,,,,,,,paulaF,001,c,2019_Oct_10_1324,Experimento,3.2.3,60.106626268837815,
8,14,14,999,0.5,0:10,3,Cyan,None,0,0,1,20:50,./completed_changuitos/montage_cnlsi_99.4_113.99.jpg,right,0,0,0,0,,,,,0,8,8,8,,,,,,,,,0,0,0,0,0,2,2,2,,,,,,,,,,,,,,,,,,,,,,,,,,,,,,,,,371.0801167010068,371.57999710000877,None,1,371.0801167010068,371.0801167010068,,,,,,,,,,,,,,,,,,,,,,,,,,,,,,,,,,,,,,,,,,,,,,paulaF,001,c,2019_Oct_10_1324,Experimento,3.2.3,60.106626268837815,
8,14,14,999,0.5,0:10,3,Yellow,None,0,0,1,20:50,./completed_changuitos/montage_cnlsi_99.4_113.99.jpg,right,0,0,0,0,,,,,0,8,8,8,,,,,,,,,0,0,0,0,0,3,3,3,,,,,,,,,,,,,,,,,,,,,,,,,,,,,,,,,373.0792929240124,373.57930044400564,None,1,373.0792929240124,373.0792929240124,,,,,,,,,,,,,,,,,,,,,,,,,,,,,,,,,,,,,,,,,,,,,,paulaF,001,c,2019_Oct_10_1324,Experimento,3.2.3,60.106626268837815,
8,14,14,999,0.5,0:10,3,Cyan,None,0,0,1,20:50,./completed_changuitos/montage_cnlsi_99.4_113.99.jpg,right,0,0,0,0,,,,,0,8,8,8,,,,,,,,,0,0,0,0,0,4,4,4,,,,,,,,,,,,,,,,,,,,,,,,,,,,,,,,,375.07868119800696,375.57861790200695,['return'],0,375.07868119800696,375.07868119800696,[0.5171702119987458],,,,,,,,,,,,,,,,,,,,,,,,,,,,,,,,,,,,,,,,,,,,,paulaF,001,c,2019_Oct_10_1324,Experimento,3.2.3,60.106626268837815,
8,14,14,999,0.5,0:10,3,Blue,None,0,0,1,20:50,./completed_changuitos/montage_cnlsi_99.4_113.99.jpg,right,0,0,0,0,,,,,0,8,8,8,,,,,,,,,0,0,0,0,0,5,5,5,,,,,,,,,,,,,,,,,,,,,,,,,,,,,,,,,377.0779758460121,377.5779111620068,None,1,377.0779758460121,377.0779758460121,,,,,,,,,,,,,,,,,,,,,,,,,,,,,,,,,,,,,,,,,,,,,,paulaF,001,c,2019_Oct_10_1324,Experimento,3.2.3,60.106626268837815,
8,14,14,999,0.5,0:10,3,Cyan,['space'],0,0,1,20:50,./completed_changuitos/montage_cnlsi_99.4_113.99.jpg,right,0,0,0,0,,,,,0,8,8,8,,,,,,,,,0,0,0,0,0,6,6,6,,,,,,,,,,,,,,,,,,,,,,,,,,,,,,,,,379.0773900380009,379.57720207500097,['return'],0,379.0773900380009,379.0773900380009,[0.5337936080031795],,,,,,,,,,,,,,,,,,,,,,,,,,,,,,,,,,,,,,,,,,,,,paulaF,001,c,2019_Oct_10_1324,Experimento,3.2.3,60.106626268837815,
8,14,14,999,0.5,0:10,3,Magenta,None,0,0,1,20:50,./completed_changuitos/montage_cnlsi_99.4_113.99.jpg,right,0,0,0,0,,,,,0,8,8,8,,,,,,,,,0,0,0,0,0,7,7,7,,,,,,,,,,,,,,,,,,,,,,,,,,,,,,,,,381.06006791581166,None,None,1,381.06006791581166,None,,,,,,,,,,,,,,,,,,,,,,,,,,,,,,,,,,,,,,,,,,,,,,paulaF,001,c,2019_Oct_10_1324,Experimento,3.2.3,60.106626268837815,
8,14,14,999,0.5,0:10,3,Red,None,0,0,1,20:50,./completed_changuitos/montage_cnlsi_99.4_113.99.jpg,right,0,0,0,0,,,,,0,8,8,8,,,,,,,,,0,0,0,0,0,8,8,8,,,,,,,,,,,,,,,,,,,,,,,,,,,,,,,,,381.06006791581166,None,None,1,381.06006791581166,None,,,,,,,,,,,,,,,,,,,,,,,,,,,,,,,,,,,,,,,,,,,,,,paulaF,001,c,2019_Oct_10_1324,Experimento,3.2.3,60.106626268837815,
8,14,14,999,0.5,0:10,3,Magenta,['space'],0,0,1,20:50,./completed_changuitos/montage_cnlsi_99.4_113.99.jpg,right,0,0,0,0,,,,,0,8,8,8,,,,,,,,,0,0,0,0,0,9,9,9,,,,,,,,,,,,,,,,,,,,,,,,,,,,,,,,,381.06006791581166,None,None,0,381.06006791581166,None,,,,,,,,,,,,,,,,,,,,,,,,,,,,,,,,,,,,,,,,,,,,,,paulaF,001,c,2019_Oct_10_1324,Experimento,3.2.3,60.106626268837815,
8,14,14,999,0.5,0:10,3,Green,None,0,0,1,20:50,./completed_changuitos/montage_cnlsi_99.4_113.99.jpg,right,0,0,0,0,,,,,0,8,8,8,,,,,,,,,0,0,0,0,0,10,10,10,,,,,,,,,,,,,,,,,,,,,,,,,,,,,,,,,381.06006791581166,None,None,1,381.06006791581166,None,,,,,,,,,,,,,,,,,,,,,,,,,,,,,,,,,,,,,,,,,,,,,,paulaF,001,c,2019_Oct_10_1324,Experimento,3.2.3,60.106626268837815,
8,14,14,999,0.5,0:10,3,Yellow,['space'],0,0,1,20:50,./completed_changuitos/montage_cnlsi_99.4_113.99.jpg,right,0,0,0,0,,,,,0,8,8,8,,,,,,,,,0,0,0,0,0,11,11,11,,,,,,,,,,,,,,,,,,,,,,,,,,,,,,,,,381.07675344461165,None,None,0,381.07675344461165,None,,,,,,,,,,,,,,,,,,,,,,,,,,,,,,,,,,,,,,,,,,,,,,paulaF,001,c,2019_Oct_10_1324,Experimento,3.2.3,60.106626268837815,
8,14,14,999,0.5,0:10,3,Blue,None,0,0,1,20:50,./completed_changuitos/montage_cnlsi_99.4_113.99.jpg,right,0,0,0,0,,,,,0,8,8,8,,,,,,,,,0,0,0,0,0,12,12,12,,,,,,,,,,,,,,,,,,,,,,,,,,,,,,,,,381.07675344461165,None,None,1,381.07675344461165,None,,,,,,,,,,,,,,,,,,,,,,,,,,,,,,,,,,,,,,,,,,,,,,paulaF,001,c,2019_Oct_10_1324,Experimento,3.2.3,60.106626268837815,
8,14,14,999,0.5,0:10,3,Cyan,None,0,0,1,20:50,./completed_changuitos/montage_cnlsi_99.4_113.99.jpg,right,0,0,0,0,,,,,0,8,8,8,,,,,,,,,0,0,0,0,0,13,13,13,,,,,,,,,,,,,,,,,,,,,,,,,,,,,,,,,381.07675344461165,None,None,1,381.07675344461165,None,,,,,,,,,,,,,,,,,,,,,,,,,,,,,,,,,,,,,,,,,,,,,,paulaF,001,c,2019_Oct_10_1324,Experimento,3.2.3,60.106626268837815,
8,14,14,999,0.5,0:10,3,Blue,['space'],0,0,1,20:50,./completed_changuitos/montage_cnlsi_99.4_113.99.jpg,right,0,0,0,0,,,,,0,8,8,8,,,,,,,,,0,0,0,0,0,14,14,14,,,,,,,,,,,,,,,,,,,,,,,,,,,,,,,,,381.07675344461165,None,None,0,381.07675344461165,None,,,,,,,,,,,,,,,,,,,,,,,,,,,,,,,,,,,,,,,,,,,,,,paulaF,001,c,2019_Oct_10_1324,Experimento,3.2.3,60.106626268837815,
8,14,14,999,0.5,0:10,3,Yellow,None,0,0,1,20:50,./completed_changuitos/montage_cnlsi_99.4_113.99.jpg,right,0,0,0,0,,,,,0,8,8,8,,,,,,,,,0,0,0,0,0,15,15,15,,,,,,,,,,,,,,,,,,,,,,,,,,,,,,,,,381.07675344461165,None,None,1,381.07675344461165,None,,,,,,,,,,,,,,,,,,,,,,,,,,,,,,,,,,,,,,,,,,,,,,paulaF,001,c,2019_Oct_10_1324,Experimento,3.2.3,60.106626268837815,
8,14,14,999,0.5,0:10,3,Cyan,None,0,0,1,20:50,./completed_changuitos/montage_cnlsi_99.4_113.99.jpg,right,0,0,0,0,,,,,0,8,8,8,,,,,,,,,0,0,0,0,0,16,16,16,,,,,,,,,,,,,,,,,,,,,,,,,,,,,,,,,381.09343897341165,None,None,1,381.09343897341165,None,,,,,,,,,,,,,,,,,,,,,,,,,,,,,,,,,,,,,,,,,,,,,,paulaF,001,c,2019_Oct_10_1324,Experimento,3.2.3,60.106626268837815,
8,14,14,999,0.5,0:10,3,Yellow,['space'],0,0,1,20:50,./completed_changuitos/montage_cnlsi_99.4_113.99.jpg,right,0,0,0,0,,,,,0,8,8,8,,,,,,,,,0,0,0,0,0,17,17,17,,,,,,,,,,,,,,,,,,,,,,,,,,,,,,,,,381.09343897341165,None,None,0,381.09343897341165,None,,,,,,,,,,,,,,,,,,,,,,,,,,,,,,,,,,,,,,,,,,,,,,paulaF,001,c,2019_Oct_10_1324,Experimento,3.2.3,60.106626268837815,
8,14,14,999,0.5,0:10,3,Magenta,None,0,0,1,20:50,./completed_changuitos/montage_cnlsi_99.4_113.99.jpg,right,0,0,0,0,,,,,0,8,8,8,,,,,,,,,0,0,0,0,0,18,18,18,,,,,,,,,,,,,,,,,,,,,,,,,,,,,,,,,381.09343897341165,None,None,1,381.09343897341165,None,,,,,,,,,,,,,,,,,,,,,,,,,,,,,,,,,,,,,,,,,,,,,,paulaF,001,c,2019_Oct_10_1324,Experimento,3.2.3,60.106626268837815,
8,14,14,999,0.5,0:10,3,Red,None,0,0,1,20:50,./completed_changuitos/montage_cnlsi_99.4_113.99.jpg,right,0,0,0,0,,,,,0,8,8,8,,,,,,,,,0,0,0,0,0,19,19,19,,,,,,,,,,,,,,,,,,,,,,,,,,,,,,,,,381.09343897341165,None,None,1,381.09343897341165,None,,,,,,,,,,,,,,,,,,,,,,,,,,,,,,,,,,,,,,,,,,,,,,paulaF,001,c,2019_Oct_10_1324,Experimento,3.2.3,60.106626268837815,
8,14,14,999,0.5,0:10,3,Magenta,['space'],0,0,1,20:50,./completed_changuitos/montage_cnlsi_99.4_113.99.jpg,right,0,0,0,0,,,,,0,8,8,8,,,,,,,,,0,0,0,0,0,20,20,20,,,,,,,,,,,,,,,,,,,,,,,,,,,,,,,,,381.09343897341165,None,None,0,381.09343897341165,None,,,,,,,,,,,,,,,,,,,,,,,,,,,,,,,,,,,,,,,,,,,,,,paulaF,001,c,2019_Oct_10_1324,Experimento,3.2.3,60.106626268837815,
8,14,14,999,0.5,0:10,3,Red,['space'],0,0,1,20:50,./completed_changuitos/montage_cnlsi_99.4_113.99.jpg,right,0,0,0,0,,,,,0,8,8,8,,,,,,,,,0,0,0,0,0,21,21,21,,,,,,,,,,,,,,,,,,,,,,,,,,,,,,,,,381.09343897341165,None,None,0,381.09343897341165,None,,,,,,,,,,,,,,,,,,,,,,,,,,,,,,,,,,,,,,,,,,,,,,paulaF,001,c,2019_Oct_10_1324,Experimento,3.2.3,60.106626268837815,
8,14,14,999,0.5,0:10,3,Yellow,None,0,0,1,20:50,./completed_changuitos/montage_cnlsi_99.4_113.99.jpg,right,0,0,0,0,,,,,0,8,8,8,,,,,,,,,0,0,0,0,0,22,22,22,,,,,,,,,,,,,,,,,,,,,,,,,,,,,,,,,381.09343897341165,None,None,1,381.09343897341165,None,,,,,,,,,,,,,,,,,,,,,,,,,,,,,,,,,,,,,,,,,,,,,,paulaF,001,c,2019_Oct_10_1324,Experimento,3.2.3,60.106626268837815,
8,14,14,999,0.5,0:10,3,Cyan,None,0,0,1,20:50,./completed_changuitos/montage_cnlsi_99.4_113.99.jpg,right,0,0,0,0,,,,,0,8,8,8,,,,,,,,,0,0,0,0,0,23,23,23,,,,,,,,,,,,,,,,,,,,,,,,,,,,,,,,,381.09343897341165,None,None,1,381.09343897341165,None,,,,,,,,,,,,,,,,,,,,,,,,,,,,,,,,,,,,,,,,,,,,,,paulaF,001,c,2019_Oct_10_1324,Experimento,3.2.3,60.106626268837815,
8,14,14,999,0.5,0:10,3,Green,None,0,0,1,20:50,./completed_changuitos/montage_cnlsi_99.4_113.99.jpg,right,0,0,0,0,,,,,0,8,8,8,,,,,,,,,0,0,0,0,0,24,24,24,,,,,,,,,,,,,,,,,,,,,,,,,,,,,,,,,381.09343897341165,None,None,1,381.09343897341165,None,,,,,,,,,,,,,,,,,,,,,,,,,,,,,,,,,,,,,,,,,,,,,,paulaF,001,c,2019_Oct_10_1324,Experimento,3.2.3,60.106626268837815,
8,14,14,999,0.5,0:10,3,White,None,0,0,1,20:50,./completed_changuitos/montage_cnlsi_99.4_113.99.jpg,right,0,0,0,0,,,,,0,8,8,8,,,,,,,,,0,0,0,0,0,25,25,25,,,,,,,,,,,,,,,,,,,,,,,,,,,,,,,,,381.09343897341165,None,None,1,381.09343897341165,None,,,,,,,,,,,,,,,,,,,,,,,,,,,,,,,,,,,,,,,,,,,,,,paulaF,001,c,2019_Oct_10_1324,Experimento,3.2.3,60.106626268837815,
8,14,14,999,0.5,0:10,3,Green,['space'],0,0,1,20:50,./completed_changuitos/montage_cnlsi_99.4_113.99.jpg,right,0,0,0,0,,,,,0,8,8,8,,,,,,,,,0,0,0,0,0,26,26,26,,,,,,,,,,,,,,,,,,,,,,,,,,,,,,,,,381.09343897341165,None,None,0,381.09343897341165,None,,,,,,,,,,,,,,,,,,,,,,,,,,,,,,,,,,,,,,,,,,,,,,paulaF,001,c,2019_Oct_10_1324,Experimento,3.2.3,60.106626268837815,
8,14,14,999,0.5,0:10,3,Red,None,0,0,1,20:50,./completed_changuitos/montage_cnlsi_99.4_113.99.jpg,right,0,0,0,0,,,,,0,8,8,8,,,,,,,,,0,0,0,0,0,27,27,27,,,,,,,,,,,,,,,,,,,,,,,,,,,,,,,,,381.09343897341165,None,None,1,381.09343897341165,None,,,,,,,,,,,,,,,,,,,,,,,,,,,,,,,,,,,,,,,,,,,,,,paulaF,001,c,2019_Oct_10_1324,Experimento,3.2.3,60.106626268837815,
8,14,14,999,0.5,0:10,3,Blue,None,0,0,1,20:50,./completed_changuitos/montage_cnlsi_99.4_113.99.jpg,right,0,0,0,0,,,,,0,8,8,8,,,,,,,,,0,0,0,0,0,28,28,28,,,,,,,,,,,,,,,,,,,,,,,,,,,,,,,,,381.09343897341165,None,None,1,381.09343897341165,None,,,,,,,,,,,,,,,,,,,,,,,,,,,,,,,,,,,,,,,,,,,,,,paulaF,001,c,2019_Oct_10_1324,Experimento,3.2.3,60.106626268837815,
8,14,14,999,0.5,0:10,3,Green,None,0,0,1,20:50,./completed_changuitos/montage_cnlsi_99.4_113.99.jpg,right,0,0,0,0,,,,,0,8,8,8,,,,,,,,,0,0,0,0,0,29,29,29,,,,,,,,,,,,,,,,,,,,,,,,,,,,,,,,,381.1101245022117,None,None,1,381.1101245022117,None,,,,,,,,,,,,,,,,,,,,,,,,,,,,,,,,,,,,,,,,,,,,,,paulaF,001,c,2019_Oct_10_1324,Experimento,3.2.3,60.106626268837815,
8,14,14,999,0.5,0:10,3,,,0,0,1,20:50,./completed_changuitos/montage_cnlsi_99.4_113.99.jpg,right,0,0,0,0,,,,,0,8,8,8,,,,,,,,,0,0,0,0,,,,,,,,,,,,,,,,,,,,,,,,,,,,,,,,,,,,,,,,,,,,381.1352494830062,None,right,1,3.2903390980063705,381.1352494830062,None,381.1352494830062,384.14232122400426,,,,,,,,,,,,,,,,,,,,,,,,,,,,,,,,,,,,paulaF,001,c,2019_Oct_10_1324,Experimento,3.2.3,60.106626268837815,
8,14,14,999,0.5,0:10,3,,,0,0,1,20:50,,,0,0,0,0,,,,,0,8,8,8,,,,,,,,,,,,,,,,,,,,,,,,,,,,,,,,,,,,,,,,,,,,,,,,,,,,,,,,,,,,,,,,,,,,,,,,,,,,,,,,,,,,,,,,,,,,,,,,,,,,paulaF,001,c,2019_Oct_10_1324,Experimento,3.2.3,60.106626268837815,
8,14,14,999,0.5,0:10,3,Yellow,None,0,0,1,15:50,./completed_changuitos/montage_vdawy_364.89_435.49.jpg,right,0,0,0,0,,,,,0,9,9,9,,,,,,,,,0,0,0,0,0,0,0,0,,,,,,,,,,,,,,,,,,,,,,,,,,,,,384.5448896290036,385.5751374410029,385.5751374410029,None,393.6165151460009,394.1218613700039,None,1,393.6165151460009,None,,,,,,,,,,,,,,,,,,,,,,,,,,,,,,,,,,,,,,,,,,,,,,paulaF,001,c,2019_Oct_10_1324,Experimento,3.2.3,60.106626268837815,
8,14,14,999,0.5,0:10,3,White,['space'],0,0,1,15:50,./completed_changuitos/montage_vdawy_364.89_435.49.jpg,right,0,0,0,0,,,,,0,9,9,9,,,,,,,,,0,0,0,0,0,1,1,1,,,,,,,,,,,,,,,,,,,,,,,,,,,,,,,,,395.6213459510036,396.121171745006,None,0,395.6213459510036,395.6213459510036,,,,,,,,,,,,,,,,,,,,,,,,,,,,,,,,,,,,,,,,,,,,,,paulaF,001,c,2019_Oct_10_1324,Experimento,3.2.3,60.106626268837815,
8,14,14,999,0.5,0:10,3,Magenta,None,0,0,1,15:50,./completed_changuitos/montage_vdawy_364.89_435.49.jpg,right,0,0,0,0,,,,,0,9,9,9,,,,,,,,,0,0,0,0,0,2,2,2,,,,,,,,,,,,,,,,,,,,,,,,,,,,,,,,,397.6209582200099,398.12085300000035,None,1,397.6209582200099,397.6209582200099,,,,,,,,,,,,,,,,,,,,,,,,,,,,,,,,,,,,,,,,,,,,,,paulaF,001,c,2019_Oct_10_1324,Experimento,3.2.3,60.106626268837815,
8,14,14,999,0.5,0:10,3,Cyan,None,0,0,1,15:50,./completed_changuitos/montage_vdawy_364.89_435.49.jpg,right,0,0,0,0,,,,,0,9,9,9,,,,,,,,,0,0,0,0,0,3,3,3,,,,,,,,,,,,,,,,,,,,,,,,,,,,,,,,,399.620293925007,400.1201651910087,None,1,399.620293925007,399.620293925007,,,,,,,,,,,,,,,,,,,,,,,,,,,,,,,,,,,,,,,,,,,,,,paulaF,001,c,2019_Oct_10_1324,Experimento,3.2.3,60.106626268837815,
8,14,14,999,0.5,0:10,3,Blue,None,0,0,1,15:50,./completed_changuitos/montage_vdawy_364.89_435.49.jpg,right,0,0,0,0,,,,,0,9,9,9,,,,,,,,,0,0,0,0,0,4,4,4,,,,,,,,,,,,,,,,,,,,,,,,,,,,,,,,,401.61970475901035,402.11952124501113,['return'],0,401.61970475901035,401.61970475901035,[0.317161491009756],,,,,,,,,,,,,,,,,,,,,,,,,,,,,,,,,,,,,,,,,,,,,paulaF,001,c,2019_Oct_10_1324,Experimento,3.2.3,60.106626268837815,
8,14,14,999,0.5,0:10,3,Magenta,None,0,0,1,15:50,./completed_changuitos/montage_vdawy_364.89_435.49.jpg,right,0,0,0,0,,,,,0,9,9,9,,,,,,,,,0,0,0,0,0,5,5,5,,,,,,,,,,,,,,,,,,,,,,,,,,,,,,,,,403.6352714250097,404.1351448750065,None,1,403.6352714250097,403.6352714250097,,,,,,,,,,,,,,,,,,,,,,,,,,,,,,,,,,,,,,,,,,,,,,paulaF,001,c,2019_Oct_10_1324,Experimento,3.2.3,60.106626268837815,
8,14,14,999,0.5,0:10,3,Blue,['space'],0,0,1,15:50,./completed_changuitos/montage_vdawy_364.89_435.49.jpg,right,0,0,0,0,,,,,0,9,9,9,,,,,,,,,0,0,0,0,0,6,6,6,,,,,,,,,,,,,,,,,,,,,,,,,,,,,,,,,405.6349098740029,406.1348166990065,None,0,405.6349098740029,405.6349098740029,,,,,,,,,,,,,,,,,,,,,,,,,,,,,,,,,,,,,,,,,,,,,,paulaF,001,c,2019_Oct_10_1324,Experimento,3.2.3,60.106626268837815,
8,14,14,999,0.5,0:10,3,Cyan,None,0,0,1,15:50,./completed_changuitos/montage_vdawy_364.89_435.49.jpg,right,0,0,0,0,,,,,0,9,9,9,,,,,,,,,0,0,0,0,0,7,7,7,,,,,,,,,,,,,,,,,,,,,,,,,,,,,,,,,407.60101875780964,None,None,1,407.60101875780964,None,,,,,,,,,,,,,,,,,,,,,,,,,,,,,,,,,,,,,,,,,,,,,,paulaF,001,c,2019_Oct_10_1324,Experimento,3.2.3,60.106626268837815,
8,14,14,999,0.5,0:10,3,Yellow,None,0,0,1,15:50,./completed_changuitos/montage_vdawy_364.89_435.49.jpg,right,0,0,0,0,,,,,0,9,9,9,,,,,,,,,0,0,0,0,0,8,8,8,,,,,,,,,,,,,,,,,,,,,,,,,,,,,,,,,407.60101875780964,None,None,1,407.60101875780964,None,,,,,,,,,,,,,,,,,,,,,,,,,,,,,,,,,,,,,,,,,,,,,,paulaF,001,c,2019_Oct_10_1324,Experimento,3.2.3,60.106626268837815,
8,14,14,999,0.5,0:10,3,Cyan,None,0,0,1,15:50,./completed_changuitos/montage_vdawy_364.89_435.49.jpg,right,0,0,0,0,,,,,0,9,9,9,,,,,,,,,0,0,0,0,0,9,9,9,,,,,,,,,,,,,,,,,,,,,,,,,,,,,,,,,407.60101875780964,None,None,1,407.60101875780964,None,,,,,,,,,,,,,,,,,,,,,,,,,,,,,,,,,,,,,,,,,,,,,,paulaF,001,c,2019_Oct_10_1324,Experimento,3.2.3,60.106626268837815,
8,14,14,999,0.5,0:10,3,Blue,None,0,0,1,15:50,./completed_changuitos/montage_vdawy_364.89_435.49.jpg,right,0,0,0,0,,,,,0,9,9,9,,,,,,,,,0,0,0,0,0,10,10,10,,,,,,,,,,,,,,,,,,,,,,,,,,,,,,,,,407.60101875780964,None,None,1,407.60101875780964,None,,,,,,,,,,,,,,,,,,,,,,,,,,,,,,,,,,,,,,,,,,,,,,paulaF,001,c,2019_Oct_10_1324,Experimento,3.2.3,60.106626268837815,
8,14,14,999,0.5,0:10,3,Cyan,['space'],0,0,1,15:50,./completed_changuitos/montage_vdawy_364.89_435.49.jpg,right,0,0,0,0,,,,,0,9,9,9,,,,,,,,,0,0,0,0,0,11,11,11,,,,,,,,,,,,,,,,,,,,,,,,,,,,,,,,,407.61770428660964,None,None,0,407.61770428660964,None,,,,,,,,,,,,,,,,,,,,,,,,,,,,,,,,,,,,,,,,,,,,,,paulaF,001,c,2019_Oct_10_1324,Experimento,3.2.3,60.106626268837815,
8,14,14,999,0.5,0:10,3,Magenta,None,0,0,1,15:50,./completed_changuitos/montage_vdawy_364.89_435.49.jpg,right,0,0,0,0,,,,,0,9,9,9,,,,,,,,,0,0,0,0,0,12,12,12,,,,,,,,,,,,,,,,,,,,,,,,,,,,,,,,,407.61770428660964,None,None,1,407.61770428660964,None,,,,,,,,,,,,,,,,,,,,,,,,,,,,,,,,,,,,,,,,,,,,,,paulaF,001,c,2019_Oct_10_1324,Experimento,3.2.3,60.106626268837815,
8,14,14,999,0.5,0:10,3,Red,None,0,0,1,15:50,./completed_changuitos/montage_vdawy_364.89_435.49.jpg,right,0,0,0,0,,,,,0,9,9,9,,,,,,,,,0,0,0,0,0,13,13,13,,,,,,,,,,,,,,,,,,,,,,,,,,,,,,,,,407.61770428660964,None,None,1,407.61770428660964,None,,,,,,,,,,,,,,,,,,,,,,,,,,,,,,,,,,,,,,,,,,,,,,paulaF,001,c,2019_Oct_10_1324,Experimento,3.2.3,60.106626268837815,
8,14,14,999,0.5,0:10,3,Magenta,['space'],0,0,1,15:50,./completed_changuitos/montage_vdawy_364.89_435.49.jpg,right,0,0,0,0,,,,,0,9,9,9,,,,,,,,,0,0,0,0,0,14,14,14,,,,,,,,,,,,,,,,,,,,,,,,,,,,,,,,,407.61770428660964,None,None,0,407.61770428660964,None,,,,,,,,,,,,,,,,,,,,,,,,,,,,,,,,,,,,,,,,,,,,,,paulaF,001,c,2019_Oct_10_1324,Experimento,3.2.3,60.106626268837815,
8,14,14,999,0.5,0:10,3,Green,None,0,0,1,15:50,./completed_changuitos/montage_vdawy_364.89_435.49.jpg,right,0,0,0,0,,,,,0,9,9,9,,,,,,,,,0,0,0,0,0,15,15,15,,,,,,,,,,,,,,,,,,,,,,,,,,,,,,,,,407.61770428660964,None,None,1,407.61770428660964,None,,,,,,,,,,,,,,,,,,,,,,,,,,,,,,,,,,,,,,,,,,,,,,paulaF,001,c,2019_Oct_10_1324,Experimento,3.2.3,60.106626268837815,
8,14,14,999,0.5,0:10,3,Yellow,['space'],0,0,1,15:50,./completed_changuitos/montage_vdawy_364.89_435.49.jpg,right,0,0,0,0,,,,,0,9,9,9,,,,,,,,,0,0,0,0,0,16,16,16,,,,,,,,,,,,,,,,,,,,,,,,,,,,,,,,,407.63438981540963,None,None,0,407.63438981540963,None,,,,,,,,,,,,,,,,,,,,,,,,,,,,,,,,,,,,,,,,,,,,,,paulaF,001,c,2019_Oct_10_1324,Experimento,3.2.3,60.106626268837815,
8,14,14,999,0.5,0:10,3,Blue,None,0,0,1,15:50,./completed_changuitos/montage_vdawy_364.89_435.49.jpg,right,0,0,0,0,,,,,0,9,9,9,,,,,,,,,0,0,0,0,0,17,17,17,,,,,,,,,,,,,,,,,,,,,,,,,,,,,,,,,407.63438981540963,None,None,1,407.63438981540963,None,,,,,,,,,,,,,,,,,,,,,,,,,,,,,,,,,,,,,,,,,,,,,,paulaF,001,c,2019_Oct_10_1324,Experimento,3.2.3,60.106626268837815,
8,14,14,999,0.5,0:10,3,Cyan,None,0,0,1,15:50,./completed_changuitos/montage_vdawy_364.89_435.49.jpg,right,0,0,0,0,,,,,0,9,9,9,,,,,,,,,0,0,0,0,0,18,18,18,,,,,,,,,,,,,,,,,,,,,,,,,,,,,,,,,407.63438981540963,None,None,1,407.63438981540963,None,,,,,,,,,,,,,,,,,,,,,,,,,,,,,,,,,,,,,,,,,,,,,,paulaF,001,c,2019_Oct_10_1324,Experimento,3.2.3,60.106626268837815,
8,14,14,999,0.5,0:10,3,Blue,['space'],0,0,1,15:50,./completed_changuitos/montage_vdawy_364.89_435.49.jpg,right,0,0,0,0,,,,,0,9,9,9,,,,,,,,,0,0,0,0,0,19,19,19,,,,,,,,,,,,,,,,,,,,,,,,,,,,,,,,,407.63438981540963,None,None,0,407.63438981540963,None,,,,,,,,,,,,,,,,,,,,,,,,,,,,,,,,,,,,,,,,,,,,,,paulaF,001,c,2019_Oct_10_1324,Experimento,3.2.3,60.106626268837815,
8,14,14,999,0.5,0:10,3,Yellow,None,0,0,1,15:50,./completed_changuitos/montage_vdawy_364.89_435.49.jpg,right,0,0,0,0,,,,,0,9,9,9,,,,,,,,,0,0,0,0,0,20,20,20,,,,,,,,,,,,,,,,,,,,,,,,,,,,,,,,,407.63438981540963,None,None,1,407.63438981540963,None,,,,,,,,,,,,,,,,,,,,,,,,,,,,,,,,,,,,,,,,,,,,,,paulaF,001,c,2019_Oct_10_1324,Experimento,3.2.3,60.106626268837815,
8,14,14,999,0.5,0:10,3,Cyan,None,0,0,1,15:50,./completed_changuitos/montage_vdawy_364.89_435.49.jpg,right,0,0,0,0,,,,,0,9,9,9,,,,,,,,,0,0,0,0,0,21,21,21,,,,,,,,,,,,,,,,,,,,,,,,,,,,,,,,,407.63438981540963,None,None,1,407.63438981540963,None,,,,,,,,,,,,,,,,,,,,,,,,,,,,,,,,,,,,,,,,,,,,,,paulaF,001,c,2019_Oct_10_1324,Experimento,3.2.3,60.106626268837815,
8,14,14,999,0.5,0:10,3,Yellow,['space'],0,0,1,15:50,./completed_changuitos/montage_vdawy_364.89_435.49.jpg,right,0,0,0,0,,,,,0,9,9,9,,,,,,,,,0,0,0,0,0,22,22,22,,,,,,,,,,,,,,,,,,,,,,,,,,,,,,,,,407.63438981540963,None,None,0,407.63438981540963,None,,,,,,,,,,,,,,,,,,,,,,,,,,,,,,,,,,,,,,,,,,,,,,paulaF,001,c,2019_Oct_10_1324,Experimento,3.2.3,60.106626268837815,
8,14,14,999,0.5,0:10,3,Magenta,None,0,0,1,15:50,./completed_changuitos/montage_vdawy_364.89_435.49.jpg,right,0,0,0,0,,,,,0,9,9,9,,,,,,,,,0,0,0,0,0,23,23,23,,,,,,,,,,,,,,,,,,,,,,,,,,,,,,,,,407.63438981540963,None,None,1,407.63438981540963,None,,,,,,,,,,,,,,,,,,,,,,,,,,,,,,,,,,,,,,,,,,,,,,paulaF,001,c,2019_Oct_10_1324,Experimento,3.2.3,60.106626268837815,
8,14,14,999,0.5,0:10,3,Red,None,0,0,1,15:50,./completed_changuitos/montage_vdawy_364.89_435.49.jpg,right,0,0,0,0,,,,,0,9,9,9,,,,,,,,,0,0,0,0,0,24,24,24,,,,,,,,,,,,,,,,,,,,,,,,,,,,,,,,,407.63438981540963,None,None,1,407.63438981540963,None,,,,,,,,,,,,,,,,,,,,,,,,,,,,,,,,,,,,,,,,,,,,,,paulaF,001,c,2019_Oct_10_1324,Experimento,3.2.3,60.106626268837815,
8,14,14,999,0.5,0:10,3,Magenta,['space'],0,0,1,15:50,./completed_changuitos/montage_vdawy_364.89_435.49.jpg,right,0,0,0,0,,,,,0,9,9,9,,,,,,,,,0,0,0,0,0,25,25,25,,,,,,,,,,,,,,,,,,,,,,,,,,,,,,,,,407.63438981540963,None,None,0,407.63438981540963,None,,,,,,,,,,,,,,,,,,,,,,,,,,,,,,,,,,,,,,,,,,,,,,paulaF,001,c,2019_Oct_10_1324,Experimento,3.2.3,60.106626268837815,
8,14,14,999,0.5,0:10,3,Red,['space'],0,0,1,15:50,./completed_changuitos/montage_vdawy_364.89_435.49.jpg,right,0,0,0,0,,,,,0,9,9,9,,,,,,,,,0,0,0,0,0,26,26,26,,,,,,,,,,,,,,,,,,,,,,,,,,,,,,,,,407.63438981540963,None,None,0,407.63438981540963,None,,,,,,,,,,,,,,,,,,,,,,,,,,,,,,,,,,,,,,,,,,,,,,paulaF,001,c,2019_Oct_10_1324,Experimento,3.2.3,60.106626268837815,
8,14,14,999,0.5,0:10,3,Yellow,None,0,0,1,15:50,./completed_changuitos/montage_vdawy_364.89_435.49.jpg,right,0,0,0,0,,,,,0,9,9,9,,,,,,,,,0,0,0,0,0,27,27,27,,,,,,,,,,,,,,,,,,,,,,,,,,,,,,,,,407.63438981540963,None,None,1,407.63438981540963,None,,,,,,,,,,,,,,,,,,,,,,,,,,,,,,,,,,,,,,,,,,,,,,paulaF,001,c,2019_Oct_10_1324,Experimento,3.2.3,60.106626268837815,
8,14,14,999,0.5,0:10,3,Cyan,None,0,0,1,15:50,./completed_changuitos/montage_vdawy_364.89_435.49.jpg,right,0,0,0,0,,,,,0,9,9,9,,,,,,,,,0,0,0,0,0,28,28,28,,,,,,,,,,,,,,,,,,,,,,,,,,,,,,,,,407.6510753442097,None,None,1,407.6510753442097,None,,,,,,,,,,,,,,,,,,,,,,,,,,,,,,,,,,,,,,,,,,,,,,paulaF,001,c,2019_Oct_10_1324,Experimento,3.2.3,60.106626268837815,
8,14,14,999,0.5,0:10,3,Green,None,0,0,1,15:50,./completed_changuitos/montage_vdawy_364.89_435.49.jpg,right,0,0,0,0,,,,,0,9,9,9,,,,,,,,,0,0,0,0,0,29,29,29,,,,,,,,,,,,,,,,,,,,,,,,,,,,,,,,,407.6510753442097,None,None,1,407.6510753442097,None,,,,,,,,,,,,,,,,,,,,,,,,,,,,,,,,,,,,,,,,,,,,,,paulaF,001,c,2019_Oct_10_1324,Experimento,3.2.3,60.106626268837815,
8,14,14,999,0.5,0:10,3,White,None,0,0,1,15:50,./completed_changuitos/montage_vdawy_364.89_435.49.jpg,right,0,0,0,0,,,,,0,9,9,9,,,,,,,,,0,0,0,0,0,30,30,30,,,,,,,,,,,,,,,,,,,,,,,,,,,,,,,,,407.6510753442097,None,None,1,407.6510753442097,None,,,,,,,,,,,,,,,,,,,,,,,,,,,,,,,,,,,,,,,,,,,,,,paulaF,001,c,2019_Oct_10_1324,Experimento,3.2.3,60.106626268837815,
8,14,14,999,0.5,0:10,3,Green,['space'],0,0,1,15:50,./completed_changuitos/montage_vdawy_364.89_435.49.jpg,right,0,0,0,0,,,,,0,9,9,9,,,,,,,,,0,0,0,0,0,31,31,31,,,,,,,,,,,,,,,,,,,,,,,,,,,,,,,,,407.6510753442097,None,None,0,407.6510753442097,None,,,,,,,,,,,,,,,,,,,,,,,,,,,,,,,,,,,,,,,,,,,,,,paulaF,001,c,2019_Oct_10_1324,Experimento,3.2.3,60.106626268837815,
8,14,14,999,0.5,0:10,3,Red,None,0,0,1,15:50,./completed_changuitos/montage_vdawy_364.89_435.49.jpg,right,0,0,0,0,,,,,0,9,9,9,,,,,,,,,0,0,0,0,0,32,32,32,,,,,,,,,,,,,,,,,,,,,,,,,,,,,,,,,407.6510753442097,None,None,1,407.6510753442097,None,,,,,,,,,,,,,,,,,,,,,,,,,,,,,,,,,,,,,,,,,,,,,,paulaF,001,c,2019_Oct_10_1324,Experimento,3.2.3,60.106626268837815,
8,14,14,999,0.5,0:10,3,Blue,None,0,0,1,15:50,./completed_changuitos/montage_vdawy_364.89_435.49.jpg,right,0,0,0,0,,,,,0,9,9,9,,,,,,,,,0,0,0,0,0,33,33,33,,,,,,,,,,,,,,,,,,,,,,,,,,,,,,,,,407.6510753442097,None,None,1,407.6510753442097,None,,,,,,,,,,,,,,,,,,,,,,,,,,,,,,,,,,,,,,,,,,,,,,paulaF,001,c,2019_Oct_10_1324,Experimento,3.2.3,60.106626268837815,
8,14,14,999,0.5,0:10,3,Green,None,0,0,1,15:50,./completed_changuitos/montage_vdawy_364.89_435.49.jpg,right,0,0,0,0,,,,,0,9,9,9,,,,,,,,,0,0,0,0,0,34,34,34,,,,,,,,,,,,,,,,,,,,,,,,,,,,,,,,,407.6510753442097,None,None,1,407.6510753442097,None,,,,,,,,,,,,,,,,,,,,,,,,,,,,,,,,,,,,,,,,,,,,,,paulaF,001,c,2019_Oct_10_1324,Experimento,3.2.3,60.106626268837815,
8,14,14,999,0.5,0:10,3,,,0,0,1,15:50,./completed_changuitos/montage_vdawy_364.89_435.49.jpg,right,0,0,0,0,,,,,0,9,9,9,,,,,,,,,0,0,0,0,,,,,,,,,,,,,,,,,,,,,,,,,,,,,,,,,,,,,,,,,,,,407.68352215801133,None,right,1,1.3494993620115565,407.68352215801133,None,407.68352215801133,None,,,,,,,,,,,,,,,,,,,,,,,,,,,,,,,,,,,,paulaF,001,c,2019_Oct_10_1324,Experimento,3.2.3,60.106626268837815,
8,14,14,999,0.5,0:10,3,,,0,0,1,15:50,,,0,0,0,0,,,,,0,9,9,9,,,,,,,,,,,,,,,,,,,,,,,,,,,,,,,,,,,,,,,,,,,,,,,,,,,,,,,,,,,,,,,,,,,,,,,,,,,,,,,,,,,,,,,,,,,,,,,,,,,,paulaF,001,c,2019_Oct_10_1324,Experimento,3.2.3,60.106626268837815,
8,14,14,999,0.5,0:10,3,,,0,1,0,25:50,./completed_changuitos/montage_bfrml_95.75_83.99.jpg,left,0,0,0,0,,,,,0,10,10,10,,,,,0,0,0,0,,,,,,,,,,,,,,,,,,,,,,409.1705016460037,410.68290017801337,410.68290017801337,418.6971784650086,418.6971784650086,432.7090349160135,right,0,0.5836460980062839,432.7090349160135,None,432.7090349160135,None,432.7090349160135,None,,,,,,,,,,,,,,,,,,,,,,,,,,,,,,,,,,,,,,,,,,,,,,,,,,,,,,,,paulaF,001,c,2019_Oct_10_1324,Experimento,3.2.3,60.106626268837815,
8,14,14,999,0.5,0:10,3,,,0,1,0,25:50,,,0,0,0,0,,,,,0,10,10,10,,,,,,,,,,,,,,,,,,,,,,,,,,,,,,,,,,,,,,,,,,,,,,,,,,,,,,,,,,,,,,,,,,,,,,,,,,,,,,,,,,,,,,,,,,,,,,,,,,,,paulaF,001,c,2019_Oct_10_1324,Experimento,3.2.3,60.106626268837815,
8,14,14,999,0.5,0:10,3,Red,None,0,0,1,28:50,./completed_changuitos/montage_dsfyr_77.05_87.75.jpg,right,0,0,0,0,,,,,0,11,11,11,,,,,,,,,0,0,0,0,0,0,0,0,,,,,,,,,,,,,,,,,,,,,,,,,,,,,433.4209382770059,434.4417940750136,434.4417940750136,None,442.48224627401214,442.9888769780082,None,1,442.48224627401214,None,,,,,,,,,,,,,,,,,,,,,,,,,,,,,,,,,,,,,,,,,,,,,,paulaF,001,c,2019_Oct_10_1324,Experimento,3.2.3,60.106626268837815,
8,14,14,999,0.5,0:10,3,Magenta,['space'],0,0,1,28:50,./completed_changuitos/montage_dsfyr_77.05_87.75.jpg,right,0,0,0,0,,,,,0,11,11,11,,,,,,,,,0,0,0,0,0,1,1,1,,,,,,,,,,,,,,,,,,,,,,,,,,,,,,,,,444.48820619600883,444.98818114300957,None,0,444.48820619600883,444.48820619600883,,,,,,,,,,,,,,,,,,,,,,,,,,,,,,,,,,,,,,,,,,,,,,paulaF,001,c,2019_Oct_10_1324,Experimento,3.2.3,60.106626268837815,
8,14,14,999,0.5,0:10,3,Green,None,0,0,1,28:50,./completed_changuitos/montage_dsfyr_77.05_87.75.jpg,right,0,0,0,0,,,,,0,11,11,11,,,,,,,,,0,0,0,0,0,2,2,2,,,,,,,,,,,,,,,,,,,,,,,,,,,,,,,,,446.48761583300075,446.98753739200765,None,1,446.48761583300075,446.48761583300075,,,,,,,,,,,,,,,,,,,,,,,,,,,,,,,,,,,,,,,,,,,,,,paulaF,001,c,2019_Oct_10_1324,Experimento,3.2.3,60.106626268837815,
8,14,14,999,0.5,0:10,3,Yellow,['space'],0,0,1,28:50,./completed_changuitos/montage_dsfyr_77.05_87.75.jpg,right,0,0,0,0,,,,,0,11,11,11,,,,,,,,,0,0,0,0,0,3,3,3,,,,,,,,,,,,,,,,,,,,,,,,,,,,,,,,,448.4869415810099,448.9868407650065,None,0,448.4869415810099,448.4869415810099,,,,,,,,,,,,,,,,,,,,,,,,,,,,,,,,,,,,,,,,,,,,,,paulaF,001,c,2019_Oct_10_1324,Experimento,3.2.3,60.106626268837815,
8,14,14,999,0.5,0:10,3,Blue,None,0,0,1,28:50,./completed_changuitos/montage_dsfyr_77.05_87.75.jpg,right,0,0,0,0,,,,,0,11,11,11,,,,,,,,,0,0,0,0,0,4,4,4,,,,,,,,,,,,,,,,,,,,,,,,,,,,,,,,,450.4863133570034,450.9861204780027,['return'],0,450.4863133570034,450.4863133570034,[0.7004165670077782],,,,,,,,,,,,,,,,,,,,,,,,,,,,,,,,,,,,,,,,,,,,,paulaF,001,c,2019_Oct_10_1324,Experimento,3.2.3,60.106626268837815,
8,14,14,999,0.5,0:10,3,Cyan,None,0,0,1,28:50,./completed_changuitos/montage_dsfyr_77.05_87.75.jpg,right,0,0,0,0,,,,,0,11,11,11,,,,,,,,,0,0,0,0,0,5,5,5,,,,,,,,,,,,,,,,,,,,,,,,,,,,,,,,,452.4853290160099,452.985442848003,None,1,452.4853290160099,452.4853290160099,,,,,,,,,,,,,,,,,,,,,,,,,,,,,,,,,,,,,,,,,,,,,,paulaF,001,c,2019_Oct_10_1324,Experimento,3.2.3,60.106626268837815,
8,14,14,999,0.5,0:10,3,Blue,['space'],0,0,1,28:50,./completed_changuitos/montage_dsfyr_77.05_87.75.jpg,right,0,0,0,0,,,,,0,11,11,11,,,,,,,,,0,0,0,0,0,6,6,6,,,,,,,,,,,,,,,,,,,,,,,,,,,,,,,,,454.48491417801415,454.98475116600457,['return'],0,454.48491417801415,454.48491417801415,[0.7837639759964077],,,,,,,,,,,,,,,,,,,,,,,,,,,,,,,,,,,,,,,,,,,,,paulaF,001,c,2019_Oct_10_1324,Experimento,3.2.3,60.106626268837815,
8,14,14,999,0.5,0:10,3,Yellow,None,0,0,1,28:50,./completed_changuitos/montage_dsfyr_77.05_87.75.jpg,right,0,0,0,0,,,,,0,11,11,11,,,,,,,,,0,0,0,0,0,7,7,7,,,,,,,,,,,,,,,,,,,,,,,,,,,,,,,,,456.4675555208116,None,None,1,456.4675555208116,None,,,,,,,,,,,,,,,,,,,,,,,,,,,,,,,,,,,,,,,,,,,,,,paulaF,001,c,2019_Oct_10_1324,Experimento,3.2.3,60.106626268837815,
8,14,14,999,0.5,0:10,3,Cyan,None,0,0,1,28:50,./completed_changuitos/montage_dsfyr_77.05_87.75.jpg,right,0,0,0,0,,,,,0,11,11,11,,,,,,,,,0,0,0,0,0,8,8,8,,,,,,,,,,,,,,,,,,,,,,,,,,,,,,,,,456.4675555208116,None,None,1,456.4675555208116,None,,,,,,,,,,,,,,,,,,,,,,,,,,,,,,,,,,,,,,,,,,,,,,paulaF,001,c,2019_Oct_10_1324,Experimento,3.2.3,60.106626268837815,
8,14,14,999,0.5,0:10,3,Yellow,['space'],0,0,1,28:50,./completed_changuitos/montage_dsfyr_77.05_87.75.jpg,right,0,0,0,0,,,,,0,11,11,11,,,,,,,,,0,0,0,0,0,9,9,9,,,,,,,,,,,,,,,,,,,,,,,,,,,,,,,,,456.4675555208116,None,None,0,456.4675555208116,None,,,,,,,,,,,,,,,,,,,,,,,,,,,,,,,,,,,,,,,,,,,,,,paulaF,001,c,2019_Oct_10_1324,Experimento,3.2.3,60.106626268837815,
8,14,14,999,0.5,0:10,3,Magenta,None,0,0,1,28:50,./completed_changuitos/montage_dsfyr_77.05_87.75.jpg,right,0,0,0,0,,,,,0,11,11,11,,,,,,,,,0,0,0,0,0,10,10,10,,,,,,,,,,,,,,,,,,,,,,,,,,,,,,,,,456.4675555208116,None,None,1,456.4675555208116,None,,,,,,,,,,,,,,,,,,,,,,,,,,,,,,,,,,,,,,,,,,,,,,paulaF,001,c,2019_Oct_10_1324,Experimento,3.2.3,60.106626268837815,
8,14,14,999,0.5,0:10,3,Red,None,0,0,1,28:50,./completed_changuitos/montage_dsfyr_77.05_87.75.jpg,right,0,0,0,0,,,,,0,11,11,11,,,,,,,,,0,0,0,0,0,11,11,11,,,,,,,,,,,,,,,,,,,,,,,,,,,,,,,,,456.48424104961157,None,None,1,456.48424104961157,None,,,,,,,,,,,,,,,,,,,,,,,,,,,,,,,,,,,,,,,,,,,,,,paulaF,001,c,2019_Oct_10_1324,Experimento,3.2.3,60.106626268837815,
8,14,14,999,0.5,0:10,3,Magenta,['space'],0,0,1,28:50,./completed_changuitos/montage_dsfyr_77.05_87.75.jpg,right,0,0,0,0,,,,,0,11,11,11,,,,,,,,,0,0,0,0,0,12,12,12,,,,,,,,,,,,,,,,,,,,,,,,,,,,,,,,,456.48424104961157,None,None,0,456.48424104961157,None,,,,,,,,,,,,,,,,,,,,,,,,,,,,,,,,,,,,,,,,,,,,,,paulaF,001,c,2019_Oct_10_1324,Experimento,3.2.3,60.106626268837815,
8,14,14,999,0.5,0:10,3,Red,['space'],0,0,1,28:50,./completed_changuitos/montage_dsfyr_77.05_87.75.jpg,right,0,0,0,0,,,,,0,11,11,11,,,,,,,,,0,0,0,0,0,13,13,13,,,,,,,,,,,,,,,,,,,,,,,,,,,,,,,,,456.48424104961157,None,None,0,456.48424104961157,None,,,,,,,,,,,,,,,,,,,,,,,,,,,,,,,,,,,,,,,,,,,,,,paulaF,001,c,2019_Oct_10_1324,Experimento,3.2.3,60.106626268837815,
8,14,14,999,0.5,0:10,3,Yellow,None,0,0,1,28:50,./completed_changuitos/montage_dsfyr_77.05_87.75.jpg,right,0,0,0,0,,,,,0,11,11,11,,,,,,,,,0,0,0,0,0,14,14,14,,,,,,,,,,,,,,,,,,,,,,,,,,,,,,,,,456.48424104961157,None,None,1,456.48424104961157,None,,,,,,,,,,,,,,,,,,,,,,,,,,,,,,,,,,,,,,,,,,,,,,paulaF,001,c,2019_Oct_10_1324,Experimento,3.2.3,60.106626268837815,
8,14,14,999,0.5,0:10,3,Cyan,None,0,0,1,28:50,./completed_changuitos/montage_dsfyr_77.05_87.75.jpg,right,0,0,0,0,,,,,0,11,11,11,,,,,,,,,0,0,0,0,0,15,15,15,,,,,,,,,,,,,,,,,,,,,,,,,,,,,,,,,456.48424104961157,None,None,1,456.48424104961157,None,,,,,,,,,,,,,,,,,,,,,,,,,,,,,,,,,,,,,,,,,,,,,,paulaF,001,c,2019_Oct_10_1324,Experimento,3.2.3,60.106626268837815,
8,14,14,999,0.5,0:10,3,Green,None,0,0,1,28:50,./completed_changuitos/montage_dsfyr_77.05_87.75.jpg,right,0,0,0,0,,,,,0,11,11,11,,,,,,,,,0,0,0,0,0,16,16,16,,,,,,,,,,,,,,,,,,,,,,,,,,,,,,,,,456.48424104961157,None,None,1,456.48424104961157,None,,,,,,,,,,,,,,,,,,,,,,,,,,,,,,,,,,,,,,,,,,,,,,paulaF,001,c,2019_Oct_10_1324,Experimento,3.2.3,60.106626268837815,
8,14,14,999,0.5,0:10,3,White,None,0,0,1,28:50,./completed_changuitos/montage_dsfyr_77.05_87.75.jpg,right,0,0,0,0,,,,,0,11,11,11,,,,,,,,,0,0,0,0,0,17,17,17,,,,,,,,,,,,,,,,,,,,,,,,,,,,,,,,,456.50092657841157,None,None,1,456.50092657841157,None,,,,,,,,,,,,,,,,,,,,,,,,,,,,,,,,,,,,,,,,,,,,,,paulaF,001,c,2019_Oct_10_1324,Experimento,3.2.3,60.106626268837815,
8,14,14,999,0.5,0:10,3,Green,['space'],0,0,1,28:50,./completed_changuitos/montage_dsfyr_77.05_87.75.jpg,right,0,0,0,0,,,,,0,11,11,11,,,,,,,,,0,0,0,0,0,18,18,18,,,,,,,,,,,,,,,,,,,,,,,,,,,,,,,,,456.50092657841157,None,None,0,456.50092657841157,None,,,,,,,,,,,,,,,,,,,,,,,,,,,,,,,,,,,,,,,,,,,,,,paulaF,001,c,2019_Oct_10_1324,Experimento,3.2.3,60.106626268837815,
8,14,14,999,0.5,0:10,3,Red,None,0,0,1,28:50,./completed_changuitos/montage_dsfyr_77.05_87.75.jpg,right,0,0,0,0,,,,,0,11,11,11,,,,,,,,,0,0,0,0,0,19,19,19,,,,,,,,,,,,,,,,,,,,,,,,,,,,,,,,,456.50092657841157,None,None,1,456.50092657841157,None,,,,,,,,,,,,,,,,,,,,,,,,,,,,,,,,,,,,,,,,,,,,,,paulaF,001,c,2019_Oct_10_1324,Experimento,3.2.3,60.106626268837815,
8,14,14,999,0.5,0:10,3,Blue,None,0,0,1,28:50,./completed_changuitos/montage_dsfyr_77.05_87.75.jpg,right,0,0,0,0,,,,,0,11,11,11,,,,,,,,,0,0,0,0,0,20,20,20,,,,,,,,,,,,,,,,,,,,,,,,,,,,,,,,,456.50092657841157,None,None,1,456.50092657841157,None,,,,,,,,,,,,,,,,,,,,,,,,,,,,,,,,,,,,,,,,,,,,,,paulaF,001,c,2019_Oct_10_1324,Experimento,3.2.3,60.106626268837815,
8,14,14,999,0.5,0:10,3,Green,None,0,0,1,28:50,./completed_changuitos/montage_dsfyr_77.05_87.75.jpg,right,0,0,0,0,,,,,0,11,11,11,,,,,,,,,0,0,0,0,0,21,21,21,,,,,,,,,,,,,,,,,,,,,,,,,,,,,,,,,456.50092657841157,None,None,1,456.50092657841157,None,,,,,,,,,,,,,,,,,,,,,,,,,,,,,,,,,,,,,,,,,,,,,,paulaF,001,c,2019_Oct_10_1324,Experimento,3.2.3,60.106626268837815,
8,14,14,999,0.5,0:10,3,,,0,0,1,28:50,./completed_changuitos/montage_dsfyr_77.05_87.75.jpg,right,0,0,0,0,,,,,0,11,11,11,,,,,,,,,0,0,0,0,,,,,,,,,,,,,,,,,,,,,,,,,,,,,,,,,,,,,,,,,,,,456.5349137880112,None,left,0,1.4149216390069341,456.5349137880112,None,456.5349137880112,None,,,,,,,,,,,,,,,,,,,,,,,,,,,,,,,,,,,,paulaF,001,c,2019_Oct_10_1324,Experimento,3.2.3,60.106626268837815,
8,14,14,999,0.5,0:10,3,,,0,0,1,28:50,,,0,0,0,0,,,,,0,11,11,11,,,,,,,,,,,,,,,,,,,,,,,,,,,,,,,,,,,,,,,,,,,,,,,,,,,,,,,,,,,,,,,,,,,,,,,,,,,,,,,,,,,,,,,,,,,,,,,,,,,,paulaF,001,c,2019_Oct_10_1324,Experimento,3.2.3,60.106626268837815,
8,14,14,999,0.5,0:10,3,,,1,0,0,30:50,./completed_changuitos/montage_qnith_149.79_129.9.jpg,left,0,0,0,0,,,,,0,12,12,12,0,0,0,0,,,,,,,,,,,,,,,,,,,,,,,,,,,,,,,,,,,,,,,,,,,,,,,,,,,,,,,,,,,,,458.55022398200526,458.95006891700905,458.95006891700905,466.96360245501273,left,1,1.2504627199959941,466.96360245501273,None,466.96360245501273,None,466.96360245501273,None,,,,,,,,,,,,,,,,,,,,,,,paulaF,001,c,2019_Oct_10_1324,Experimento,3.2.3,60.106626268837815,
8,14,14,999,0.5,0:10,3,,,1,0,0,30:50,,,0,0,0,0,,,,,0,12,12,12,,,,,,,,,,,,,,,,,,,,,,,,,,,,,,,,,,,,,,,,,,,,,,,,,,,,,,,,,,,,,,,,,,,,,,,,,,,,,,,,,,,,,,,,,,,,,,,,,,,,paulaF,001,c,2019_Oct_10_1324,Experimento,3.2.3,60.106626268837815,
8,14,14,999,0.5,0:10,3,,,1,0,0,32:50,./completed_changuitos/montage_arjki_62.05_55.65.jpg,left,0,0,0,0,,,,,0,13,13,13,0,0,0,0,,,,,,,,,,,,,,,,,,,,,,,,,,,,,,,,,,,,,,,,,,,,,,,,,,,,,,,,,,,,,468.86295011300535,470.84603546001017,470.84603546001017,478.8599584270123,left,1,1.1001622460025828,478.8599584270123,None,478.8599584270123,None,478.8599584270123,None,,,,,,,,,,,,,,,,,,,,,,,paulaF,001,c,2019_Oct_10_1324,Experimento,3.2.3,60.106626268837815,
8,14,14,999,0.5,0:10,3,,,1,0,0,32:50,,,0,0,0,0,,,,,0,13,13,13,,,,,,,,,,,,,,,,,,,,,,,,,,,,,,,,,,,,,,,,,,,,,,,,,,,,,,,,,,,,,,,,,,,,,,,,,,,,,,,,,,,,,,,,,,,,,,,,,,,,paulaF,001,c,2019_Oct_10_1324,Experimento,3.2.3,60.106626268837815,
8,14,14,999,0.5,0:10,3,,,1,0,0,34:50,./completed_changuitos/montage_gejlz_71.9_81.35.jpg,right,0,0,0,0,,,,,0,14,14,14,0,0,0,0,,,,,,,,,,,,,,,,,,,,,,,,,,,,,,,,,,,,,,,,,,,,,,,,,,,,,,,,,,,,,480.6093827950099,481.9585820890061,481.9585820890061,489.9727906210028,left,0,0.7002684710023459,489.9727906210028,None,489.9727906210028,None,489.9727906210028,None,,,,,,,,,,,,,,,,,,,,,,,paulaF,001,c,2019_Oct_10_1324,Experimento,3.2.3,60.106626268837815,
8,14,14,999,0.5,0:10,3,,,1,0,0,34:50,,,0,0,0,0,,,,,0,14,14,14,,,,,,,,,,,,,,,,,,,,,,,,,,,,,,,,,,,,,,,,,,,,,,,,,,,,,,,,,,,,,,,,,,,,,,,,,,,,,,,,,,,,,,,,,,,,,,,,,,,,paulaF,001,c,2019_Oct_10_1324,Experimento,3.2.3,60.106626268837815,
8,14,14,999,0.5,0:10,3,,,1,0,0,30:50,./completed_changuitos/montage_tacrp_112.25_126.25.jpg,right,0,0,0,0,,,,,0,15,15,15,0,0,0,0,,,,,,,,,,,,,,,,,,,,,,,,,,,,,,,,,,,,,,,,,,,,,,,,,,,,,,,,,,,,,491.30565612101054,493.1717049190047,493.1717049190047,501.18564744401374,right,1,0.5662026369973319,501.18564744401374,None,501.18564744401374,None,501.18564744401374,None,,,,,,,,,,,,,,,,,,,,,,,paulaF,001,c,2019_Oct_10_1324,Experimento,3.2.3,60.106626268837815,
8,14,14,999,0.5,0:10,3,,,1,0,0,30:50,,,0,0,0,0,,,,,0,15,15,15,,,,,,,,,,,,,,,,,,,,,,,,,,,,,,,,,,,,,,,,,,,,,,,,,,,,,,,,,,,,,,,,,,,,,,,,,,,,,,,,,,,,,,,,,,,,,,,,,,,,paulaF,001,c,2019_Oct_10_1324,Experimento,3.2.3,60.106626268837815,
8,14,14,999,0.5,0:10,3,,,1,0,0,32:50,./completed_changuitos/montage_xkfku_23.55_27.39.jpg,right,0,0,0,0,,,,,0,16,16,16,0,0,0,0,,,,,,,,,,,,,,,,,,,,,,,,,,,,,,,,,,,,,,,,,,,,,,,,,,,,,,,,,,,,,502.3685733480088,503.16823837200354,503.16823837200354,511.1822116700059,right,1,0.6503260360041168,511.1822116700059,None,511.1822116700059,None,511.1822116700059,None,,,,,,,,,,,,,,,,,,,,,,,paulaF,001,c,2019_Oct_10_1324,Experimento,3.2.3,60.106626268837815,
8,14,14,999,0.5,0:10,3,,,1,0,0,32:50,,,0,0,0,0,,,,,0,16,16,16,,,,,,,,,,,,,,,,,,,,,,,,,,,,,,,,,,,,,,,,,,,,,,,,,,,,,,,,,,,,,,,,,,,,,,,,,,,,,,,,,,,,,,,,,,,,,,,,,,,,paulaF,001,c,2019_Oct_10_1324,Experimento,3.2.3,60.106626268837815,
8,14,14,999,0.5,0:10,3,,,1,0,0,34:50,./completed_changuitos/montage_oijdg_101.65_115.55.jpg,right,0,0,0,0,,,,,0,17,17,17,0,0,0,0,,,,,,,,,,,,,,,,,,,,,,,,,,,,,,,,,,,,,,,,,,,,,,,,,,,,,,,,,,,,,512.4651005420019,513.3481788220088,513.3481788220088,521.3620616020053,left,0,0.483655991993146,521.3620616020053,None,521.3620616020053,None,521.3620616020053,None,,,,,,,,,,,,,,,,,,,,,,,paulaF,001,c,2019_Oct_10_1324,Experimento,3.2.3,60.106626268837815,
8,14,14,999,0.5,0:10,3,,,1,0,0,34:50,,,0,0,0,0,,,,,0,17,17,17,,,,,,,,,,,,,,,,,,,,,,,,,,,,,,,,,,,,,,,,,,,,,,,,,,,,,,,,,,,,,,,,,,,,,,,,,,,,,,,,,,,,,,,,,,,,,,,,,,,,paulaF,001,c,2019_Oct_10_1324,Experimento,3.2.3,60.106626268837815,
8,14,14,999,0.5,0:10,3,,,,,,,,,0,0,0,0,,,,,,,,,,,,,,,,,,,,,,,,,,,,,,,,,,,,,,,,,,,,,,,,,,,,,,,,,,,,,,,,,,,,,,,,,,,,,,,,,,,,,,521.9169501390134,525.2107192390104,0,12.179721868000343,525.2107192390104,None,525.2107192390104,None,b,23.775671186012914,537.4063659100066,None,537.4063659100066,None,537.4063659100066,None,561.1983889490075,None,2,8.363730501994723,561.1983889490075,None,paulaF,001,c,2019_Oct_10_1324,Experimento,3.2.3,60.106626268837815,
