changuito_time_to_show,time_to_think,time_to_play,total_items,nback_stimulus_time,nback_training,time_to_show_tiny_stimulus,colourtest,corresp,inmediato,consciente,inconsciente,nback_slice,imagen,correcta,trials_5.thisRepN,trials_5.thisTrialN,trials_5.thisN,trials_5.thisIndex,nback_train.thisRepN,nback_train.thisTrialN,nback_train.thisN,nback_train.thisIndex,treatment_order.thisRepN,treatment_order.thisTrialN,treatment_order.thisN,treatment_order.thisIndex,trials.thisRepN,trials.thisTrialN,trials.thisN,trials.thisIndex,trials_2.thisRepN,trials_2.thisTrialN,trials_2.thisN,trials_2.thisIndex,trials_3.thisRepN,trials_3.thisTrialN,trials_3.thisN,trials_3.thisIndex,trials_4.thisRepN,trials_4.thisTrialN,trials_4.thisN,trials_4.thisIndex,Presentacion.started,Presentacion.stopped,Juego.started,Juego.stopped,image_6.started,image_6.stopped,polygon.started,polygon.stopped,nback_train_resp.keys,nback_train_resp.corr,nback_train_resp.started,nback_train_resp.stopped,nback_train_resp.rt,holi.started,holi.stopped,image_3.started,image_3.stopped,polygon_2.started,polygon_2.stopped,nback_train_resp_2.keys,nback_train_resp_2.corr,nback_train_resp_2.started,nback_train_resp_2.stopped,nback_train_resp_2.rt,text_2.started,text_2.stopped,key_resp.keys,key_resp.corr,key_resp.rt,key_resp.started,key_resp.stopped,image_5.started,image_5.stopped,hola.started,hola.stopped,image_2.started,image_2.stopped,tiempo_para_pensar.started,tiempo_para_pensar.stopped,respuesta_consciente.keys,respuesta_consciente.corr,respuesta_consciente.rt,respuesta_consciente.started,respuesta_consciente.stopped,cual_es_la_mas_barata.started,cual_es_la_mas_barata.stopped,image_4.started,image_4.stopped,text.started,text.stopped,image.started,image.stopped,respuesta_inmediato.keys,respuesta_inmediato.corr,respuesta_inmediato.rt,respuesta_inmediato.started,respuesta_inmediato.stopped,pregunta_cual_es_el_mas_barato.started,pregunta_cual_es_el_mas_barato.stopped,short_stim1.started,short_stim1.stopped,gracias.started,gracias.stopped,respuesta1.keys,respuesta1.rt,respuesta1.started,respuesta1.stopped,pregunta1.started,pregunta1.stopped,respuesta3bis_3.keys,respuesta3bis_3.rt,respuesta3bis_3.started,respuesta3bis_3.stopped,pregunta3_3.started,pregunta3_3.stopped,productoCon3RANGOSabc_3.started,productoCon3RANGOSabc_3.stopped,text_3.started,text_3.stopped,key_resp_2.keys,key_resp_2.rt,key_resp_2.started,key_resp_2.stopped,participant,session,group,date,expName,psychopyVersion,frameRate,
8,14,14,999,0.5,0:10,3,White,None,,,,,,,0,0,0,0,0,0,0,0,,,,,,,,,,,,,,,,,,,,,12.399637523994897,None,39.739548659999855,None,39.739548659999855,None,67.8781154009921,68.37970366999798,None,1,67.8781154009921,None,,,,,,,,,,,,,,,,,,,,,,,,,,,,,,,,,,,,,,,,,,,,,,,,,,,,,,,,,,,,,,,,,,,,,,,,sofi,001,b,2019_Oct_10_1446,Experimento,3.2.3,59.7270022069457,
8,14,14,999,0.5,0:10,3,Red,None,,,,,,,0,0,0,0,0,1,1,1,,,,,,,,,,,,,,,,,,,,,,,,,,,69.87907715199981,70.37898060699808,None,1,69.87907715199981,69.87907715199981,,,,,,,,,,,,,,,,,,,,,,,,,,,,,,,,,,,,,,,,,,,,,,,,,,,,,,,,,,,,,,,,,,,,,,,,sofi,001,b,2019_Oct_10_1446,Experimento,3.2.3,59.7270022069457,
8,14,14,999,0.5,0:10,3,Magenta,None,,,,,,,0,0,0,0,0,2,2,2,,,,,,,,,,,,,,,,,,,,,,,,,,,71.8781320929993,72.3783120589942,['return'],0,71.8781320929993,71.8781320929993,[0.8506882899964694],,,,,,,,,,,,,,,,,,,,,,,,,,,,,,,,,,,,,,,,,,,,,,,,,,,,,,,,,,,,,,,,,,,,,,,sofi,001,b,2019_Oct_10_1446,Experimento,3.2.3,59.7270022069457,
8,14,14,999,0.5,0:10,3,Cyan,None,,,,,,,0,0,0,0,0,3,3,3,,,,,,,,,,,,,,,,,,,,,,,,,,,73.87776234399644,74.3776142289862,None,1,73.87776234399644,73.87776234399644,,,,,,,,,,,,,,,,,,,,,,,,,,,,,,,,,,,,,,,,,,,,,,,,,,,,,,,,,,,,,,,,,,,,,,,,sofi,001,b,2019_Oct_10_1446,Experimento,3.2.3,59.7270022069457,
8,14,14,999,0.5,0:10,3,Magenta,['space'],,,,,,,0,0,0,0,0,4,4,4,,,,,,,,,,,,,,,,,,,,,,,,,,,75.87716285498755,76.37693072399998,None,0,75.87716285498755,75.87716285498755,,,,,,,,,,,,,,,,,,,,,,,,,,,,,,,,,,,,,,,,,,,,,,,,,,,,,,,,,,,,,,,,,,,,,,,,sofi,001,b,2019_Oct_10_1446,Experimento,3.2.3,59.7270022069457,
8,14,14,999,0.5,0:10,3,Green,None,,,,,,,0,0,0,0,0,5,5,5,,,,,,,,,,,,,,,,,,,,,,,,,,,77.87641019299917,78.37624653198873,None,1,77.87641019299917,77.87641019299917,,,,,,,,,,,,,,,,,,,,,,,,,,,,,,,,,,,,,,,,,,,,,,,,,,,,,,,,,,,,,,,,,,,,,,,,sofi,001,b,2019_Oct_10_1446,Experimento,3.2.3,59.7270022069457,
8,14,14,999,0.5,0:10,3,White,None,,,,,,,0,0,0,0,0,6,6,6,,,,,,,,,,,,,,,,,,,,,,,,,,,79.87565870198887,80.37557561398717,None,1,79.87565870198887,79.87565870198887,,,,,,,,,,,,,,,,,,,,,,,,,,,,,,,,,,,,,,,,,,,,,,,,,,,,,,,,,,,,,,,,,,,,,,,,sofi,001,b,2019_Oct_10_1446,Experimento,3.2.3,59.7270022069457,
8,14,14,999,0.5,0:10,3,Green,['space'],,,,,,,0,0,0,0,0,7,7,7,,,,,,,,,,,,,,,,,,,,,,,,,,,81.87499753299926,82.37488708399178,None,0,81.87499753299926,81.87499753299926,,,,,,,,,,,,,,,,,,,,,,,,,,,,,,,,,,,,,,,,,,,,,,,,,,,,,,,,,,,,,,,,,,,,,,,,sofi,001,b,2019_Oct_10_1446,Experimento,3.2.3,59.7270022069457,
8,14,14,999,0.5,0:10,3,Blue,None,,,,,,,0,0,0,0,0,8,8,8,,,,,,,,,,,,,,,,,,,,,,,,,,,83.87432212999556,84.37389013599022,None,1,83.87432212999556,83.87432212999556,,,,,,,,,,,,,,,,,,,,,,,,,,,,,,,,,,,,,,,,,,,,,,,,,,,,,,,,,,,,,,,,,,,,,,,,sofi,001,b,2019_Oct_10_1446,Experimento,3.2.3,59.7270022069457,
8,14,14,999,0.5,0:10,3,Green,['space'],,,,,,,0,0,0,0,0,9,9,9,,,,,,,,,,,,,,,,,,,,,,,,,,,85.87359097998706,86.37354280499858,['return'],0,85.87359097998706,85.87359097998706,[0.6504909259965643],,,,,,,,,,,,,,,,,,,,,,,,,,,,,,,,,,,,,,,,,,,,,,,,,,,,,,,,,,,,,,,,,,,,,,,sofi,001,b,2019_Oct_10_1446,Experimento,3.2.3,59.7270022069457,
8,14,14,999,0.5,0:10,3,Yellow,None,0,0,1,15:50,./completed_changuitos/montage_qpjrg_63.15_55.0.jpg,left,0,0,0,0,,,,,0,0,0,0,,,,,,,,,0,0,0,0,0,0,0,0,,,,,,,,,,,,,,87.97265935898758,105.06713560198841,105.06713560198841,None,113.10926074899908,113.61418662899814,None,1,113.10926074899908,None,,,,,,,,,,,,,,,,,,,,,,,,,,,,,,,,,,,,,,,,,,,,,,,,,,,,,,,,,,,,,sofi,001,b,2019_Oct_10_1446,Experimento,3.2.3,59.7270022069457,
8,14,14,999,0.5,0:10,3,White,['space'],0,0,1,15:50,./completed_changuitos/montage_qpjrg_63.15_55.0.jpg,left,0,0,0,0,,,,,0,0,0,0,,,,,,,,,0,0,0,0,0,1,1,1,,,,,,,,,,,,,,,,,,115.113662001997,115.61316836999322,None,0,115.113662001997,115.113662001997,,,,,,,,,,,,,,,,,,,,,,,,,,,,,,,,,,,,,,,,,,,,,,,,,,,,,,,,,,,,,sofi,001,b,2019_Oct_10_1446,Experimento,3.2.3,59.7270022069457,
8,14,14,999,0.5,0:10,3,Magenta,None,0,0,1,15:50,./completed_changuitos/montage_qpjrg_63.15_55.0.jpg,left,0,0,0,0,,,,,0,0,0,0,,,,,,,,,0,0,0,0,0,2,2,2,,,,,,,,,,,,,,,,,,117.11297827999806,117.61284629898728,None,1,117.11297827999806,117.11297827999806,,,,,,,,,,,,,,,,,,,,,,,,,,,,,,,,,,,,,,,,,,,,,,,,,,,,,,,,,,,,,sofi,001,b,2019_Oct_10_1446,Experimento,3.2.3,59.7270022069457,
8,14,14,999,0.5,0:10,3,Cyan,None,0,0,1,15:50,./completed_changuitos/montage_qpjrg_63.15_55.0.jpg,left,0,0,0,0,,,,,0,0,0,0,,,,,,,,,0,0,0,0,0,3,3,3,,,,,,,,,,,,,,,,,,119.11238941398915,119.61218351199932,None,1,119.11238941398915,119.11238941398915,,,,,,,,,,,,,,,,,,,,,,,,,,,,,,,,,,,,,,,,,,,,,,,,,,,,,,,,,,,,,sofi,001,b,2019_Oct_10_1446,Experimento,3.2.3,59.7270022069457,
8,14,14,999,0.5,0:10,3,Blue,None,0,0,1,15:50,./completed_changuitos/montage_qpjrg_63.15_55.0.jpg,left,0,0,0,0,,,,,0,0,0,0,,,,,,,,,0,0,0,0,0,4,4,4,,,,,,,,,,,,,,,,,,121.12790663298802,121.62815735698678,None,1,121.12790663298802,121.12790663298802,,,,,,,,,,,,,,,,,,,,,,,,,,,,,,,,,,,,,,,,,,,,,,,,,,,,,,,,,,,,,sofi,001,b,2019_Oct_10_1446,Experimento,3.2.3,59.7270022069457,
8,14,14,999,0.5,0:10,3,Magenta,None,0,0,1,15:50,./completed_changuitos/montage_qpjrg_63.15_55.0.jpg,left,0,0,0,0,,,,,0,0,0,0,,,,,,,,,0,0,0,0,0,5,5,5,,,,,,,,,,,,,,,,,,123.12759788498806,123.62744774798921,['return'],0,123.12759788498806,123.12759788498806,[0.7004665249987738],,,,,,,,,,,,,,,,,,,,,,,,,,,,,,,,,,,,,,,,,,,,,,,,,,,,,,,,,,,,sofi,001,b,2019_Oct_10_1446,Experimento,3.2.3,59.7270022069457,
8,14,14,999,0.5,0:10,3,Blue,['space'],0,0,1,15:50,./completed_changuitos/montage_qpjrg_63.15_55.0.jpg,left,0,0,0,0,,,,,0,0,0,0,,,,,,,,,0,0,0,0,0,6,6,6,,,,,,,,,,,,,,,,,,125.12684832699597,125.62676252999518,['return'],0,125.12684832699597,125.12684832699597,[0.4338315640052315],,,,,,,,,,,,,,,,,,,,,,,,,,,,,,,,,,,,,,,,,,,,,,,,,,,,,,,,,,,,sofi,001,b,2019_Oct_10_1446,Experimento,3.2.3,59.7270022069457,
8,14,14,999,0.5,0:10,3,Cyan,None,0,0,1,15:50,./completed_changuitos/montage_qpjrg_63.15_55.0.jpg,left,0,0,0,0,,,,,0,0,0,0,,,,,,,,,0,0,0,0,0,7,7,7,,,,,,,,,,,,,,,,,,127.0930105638865,None,None,1,127.0930105638865,None,,,,,,,,,,,,,,,,,,,,,,,,,,,,,,,,,,,,,,,,,,,,,,,,,,,,,,,,,,,,,sofi,001,b,2019_Oct_10_1446,Experimento,3.2.3,59.7270022069457,
8,14,14,999,0.5,0:10,3,Yellow,None,0,0,1,15:50,./completed_changuitos/montage_qpjrg_63.15_55.0.jpg,left,0,0,0,0,,,,,0,0,0,0,,,,,,,,,0,0,0,0,0,8,8,8,,,,,,,,,,,,,,,,,,127.0930105638865,None,None,1,127.0930105638865,None,,,,,,,,,,,,,,,,,,,,,,,,,,,,,,,,,,,,,,,,,,,,,,,,,,,,,,,,,,,,,sofi,001,b,2019_Oct_10_1446,Experimento,3.2.3,59.7270022069457,
8,14,14,999,0.5,0:10,3,Cyan,None,0,0,1,15:50,./completed_changuitos/montage_qpjrg_63.15_55.0.jpg,left,0,0,0,0,,,,,0,0,0,0,,,,,,,,,0,0,0,0,0,9,9,9,,,,,,,,,,,,,,,,,,127.0930105638865,None,None,1,127.0930105638865,None,,,,,,,,,,,,,,,,,,,,,,,,,,,,,,,,,,,,,,,,,,,,,,,,,,,,,,,,,,,,,sofi,001,b,2019_Oct_10_1446,Experimento,3.2.3,59.7270022069457,
8,14,14,999,0.5,0:10,3,Blue,None,0,0,1,15:50,./completed_changuitos/montage_qpjrg_63.15_55.0.jpg,left,0,0,0,0,,,,,0,0,0,0,,,,,,,,,0,0,0,0,0,10,10,10,,,,,,,,,,,,,,,,,,127.0930105638865,None,None,1,127.0930105638865,None,,,,,,,,,,,,,,,,,,,,,,,,,,,,,,,,,,,,,,,,,,,,,,,,,,,,,,,,,,,,,sofi,001,b,2019_Oct_10_1446,Experimento,3.2.3,59.7270022069457,
8,14,14,999,0.5,0:10,3,Cyan,['space'],0,0,1,15:50,./completed_changuitos/montage_qpjrg_63.15_55.0.jpg,left,0,0,0,0,,,,,0,0,0,0,,,,,,,,,0,0,0,0,0,11,11,11,,,,,,,,,,,,,,,,,,127.10973468078592,None,None,0,127.10973468078592,None,,,,,,,,,,,,,,,,,,,,,,,,,,,,,,,,,,,,,,,,,,,,,,,,,,,,,,,,,,,,,sofi,001,b,2019_Oct_10_1446,Experimento,3.2.3,59.7270022069457,
8,14,14,999,0.5,0:10,3,Magenta,None,0,0,1,15:50,./completed_changuitos/montage_qpjrg_63.15_55.0.jpg,left,0,0,0,0,,,,,0,0,0,0,,,,,,,,,0,0,0,0,0,12,12,12,,,,,,,,,,,,,,,,,,127.10973468078592,None,None,1,127.10973468078592,None,,,,,,,,,,,,,,,,,,,,,,,,,,,,,,,,,,,,,,,,,,,,,,,,,,,,,,,,,,,,,sofi,001,b,2019_Oct_10_1446,Experimento,3.2.3,59.7270022069457,
8,14,14,999,0.5,0:10,3,Red,None,0,0,1,15:50,./completed_changuitos/montage_qpjrg_63.15_55.0.jpg,left,0,0,0,0,,,,,0,0,0,0,,,,,,,,,0,0,0,0,0,13,13,13,,,,,,,,,,,,,,,,,,127.10973468078592,None,None,1,127.10973468078592,None,,,,,,,,,,,,,,,,,,,,,,,,,,,,,,,,,,,,,,,,,,,,,,,,,,,,,,,,,,,,,sofi,001,b,2019_Oct_10_1446,Experimento,3.2.3,59.7270022069457,
8,14,14,999,0.5,0:10,3,Magenta,['space'],0,0,1,15:50,./completed_changuitos/montage_qpjrg_63.15_55.0.jpg,left,0,0,0,0,,,,,0,0,0,0,,,,,,,,,0,0,0,0,0,14,14,14,,,,,,,,,,,,,,,,,,127.10973468078592,None,None,0,127.10973468078592,None,,,,,,,,,,,,,,,,,,,,,,,,,,,,,,,,,,,,,,,,,,,,,,,,,,,,,,,,,,,,,sofi,001,b,2019_Oct_10_1446,Experimento,3.2.3,59.7270022069457,
8,14,14,999,0.5,0:10,3,Green,None,0,0,1,15:50,./completed_changuitos/montage_qpjrg_63.15_55.0.jpg,left,0,0,0,0,,,,,0,0,0,0,,,,,,,,,0,0,0,0,0,15,15,15,,,,,,,,,,,,,,,,,,127.10973468078592,None,None,1,127.10973468078592,None,,,,,,,,,,,,,,,,,,,,,,,,,,,,,,,,,,,,,,,,,,,,,,,,,,,,,,,,,,,,,sofi,001,b,2019_Oct_10_1446,Experimento,3.2.3,59.7270022069457,
8,14,14,999,0.5,0:10,3,Yellow,['space'],0,0,1,15:50,./completed_changuitos/montage_qpjrg_63.15_55.0.jpg,left,0,0,0,0,,,,,0,0,0,0,,,,,,,,,0,0,0,0,0,16,16,16,,,,,,,,,,,,,,,,,,127.10973468078592,None,None,0,127.10973468078592,None,,,,,,,,,,,,,,,,,,,,,,,,,,,,,,,,,,,,,,,,,,,,,,,,,,,,,,,,,,,,,sofi,001,b,2019_Oct_10_1446,Experimento,3.2.3,59.7270022069457,
8,14,14,999,0.5,0:10,3,Blue,None,0,0,1,15:50,./completed_changuitos/montage_qpjrg_63.15_55.0.jpg,left,0,0,0,0,,,,,0,0,0,0,,,,,,,,,0,0,0,0,0,17,17,17,,,,,,,,,,,,,,,,,,127.12645879768534,None,None,1,127.12645879768534,None,,,,,,,,,,,,,,,,,,,,,,,,,,,,,,,,,,,,,,,,,,,,,,,,,,,,,,,,,,,,,sofi,001,b,2019_Oct_10_1446,Experimento,3.2.3,59.7270022069457,
8,14,14,999,0.5,0:10,3,Cyan,None,0,0,1,15:50,./completed_changuitos/montage_qpjrg_63.15_55.0.jpg,left,0,0,0,0,,,,,0,0,0,0,,,,,,,,,0,0,0,0,0,18,18,18,,,,,,,,,,,,,,,,,,127.12645879768534,None,None,1,127.12645879768534,None,,,,,,,,,,,,,,,,,,,,,,,,,,,,,,,,,,,,,,,,,,,,,,,,,,,,,,,,,,,,,sofi,001,b,2019_Oct_10_1446,Experimento,3.2.3,59.7270022069457,
8,14,14,999,0.5,0:10,3,Blue,['space'],0,0,1,15:50,./completed_changuitos/montage_qpjrg_63.15_55.0.jpg,left,0,0,0,0,,,,,0,0,0,0,,,,,,,,,0,0,0,0,0,19,19,19,,,,,,,,,,,,,,,,,,127.12645879768534,None,None,0,127.12645879768534,None,,,,,,,,,,,,,,,,,,,,,,,,,,,,,,,,,,,,,,,,,,,,,,,,,,,,,,,,,,,,,sofi,001,b,2019_Oct_10_1446,Experimento,3.2.3,59.7270022069457,
8,14,14,999,0.5,0:10,3,Yellow,None,0,0,1,15:50,./completed_changuitos/montage_qpjrg_63.15_55.0.jpg,left,0,0,0,0,,,,,0,0,0,0,,,,,,,,,0,0,0,0,0,20,20,20,,,,,,,,,,,,,,,,,,127.12645879768534,None,None,1,127.12645879768534,None,,,,,,,,,,,,,,,,,,,,,,,,,,,,,,,,,,,,,,,,,,,,,,,,,,,,,,,,,,,,,sofi,001,b,2019_Oct_10_1446,Experimento,3.2.3,59.7270022069457,
8,14,14,999,0.5,0:10,3,Cyan,None,0,0,1,15:50,./completed_changuitos/montage_qpjrg_63.15_55.0.jpg,left,0,0,0,0,,,,,0,0,0,0,,,,,,,,,0,0,0,0,0,21,21,21,,,,,,,,,,,,,,,,,,127.12645879768534,None,None,1,127.12645879768534,None,,,,,,,,,,,,,,,,,,,,,,,,,,,,,,,,,,,,,,,,,,,,,,,,,,,,,,,,,,,,,sofi,001,b,2019_Oct_10_1446,Experimento,3.2.3,59.7270022069457,
8,14,14,999,0.5,0:10,3,Yellow,['space'],0,0,1,15:50,./completed_changuitos/montage_qpjrg_63.15_55.0.jpg,left,0,0,0,0,,,,,0,0,0,0,,,,,,,,,0,0,0,0,0,22,22,22,,,,,,,,,,,,,,,,,,127.12645879768534,None,None,0,127.12645879768534,None,,,,,,,,,,,,,,,,,,,,,,,,,,,,,,,,,,,,,,,,,,,,,,,,,,,,,,,,,,,,,sofi,001,b,2019_Oct_10_1446,Experimento,3.2.3,59.7270022069457,
8,14,14,999,0.5,0:10,3,Magenta,None,0,0,1,15:50,./completed_changuitos/montage_qpjrg_63.15_55.0.jpg,left,0,0,0,0,,,,,0,0,0,0,,,,,,,,,0,0,0,0,0,23,23,23,,,,,,,,,,,,,,,,,,127.12645879768534,None,None,1,127.12645879768534,None,,,,,,,,,,,,,,,,,,,,,,,,,,,,,,,,,,,,,,,,,,,,,,,,,,,,,,,,,,,,,sofi,001,b,2019_Oct_10_1446,Experimento,3.2.3,59.7270022069457,
8,14,14,999,0.5,0:10,3,Red,None,0,0,1,15:50,./completed_changuitos/montage_qpjrg_63.15_55.0.jpg,left,0,0,0,0,,,,,0,0,0,0,,,,,,,,,0,0,0,0,0,24,24,24,,,,,,,,,,,,,,,,,,127.12645879768534,None,None,1,127.12645879768534,None,,,,,,,,,,,,,,,,,,,,,,,,,,,,,,,,,,,,,,,,,,,,,,,,,,,,,,,,,,,,,sofi,001,b,2019_Oct_10_1446,Experimento,3.2.3,59.7270022069457,
8,14,14,999,0.5,0:10,3,Magenta,['space'],0,0,1,15:50,./completed_changuitos/montage_qpjrg_63.15_55.0.jpg,left,0,0,0,0,,,,,0,0,0,0,,,,,,,,,0,0,0,0,0,25,25,25,,,,,,,,,,,,,,,,,,127.12645879768534,None,None,0,127.12645879768534,None,,,,,,,,,,,,,,,,,,,,,,,,,,,,,,,,,,,,,,,,,,,,,,,,,,,,,,,,,,,,,sofi,001,b,2019_Oct_10_1446,Experimento,3.2.3,59.7270022069457,
8,14,14,999,0.5,0:10,3,Red,['space'],0,0,1,15:50,./completed_changuitos/montage_qpjrg_63.15_55.0.jpg,left,0,0,0,0,,,,,0,0,0,0,,,,,,,,,0,0,0,0,0,26,26,26,,,,,,,,,,,,,,,,,,127.12645879768534,None,None,0,127.12645879768534,None,,,,,,,,,,,,,,,,,,,,,,,,,,,,,,,,,,,,,,,,,,,,,,,,,,,,,,,,,,,,,sofi,001,b,2019_Oct_10_1446,Experimento,3.2.3,59.7270022069457,
8,14,14,999,0.5,0:10,3,Yellow,None,0,0,1,15:50,./completed_changuitos/montage_qpjrg_63.15_55.0.jpg,left,0,0,0,0,,,,,0,0,0,0,,,,,,,,,0,0,0,0,0,27,27,27,,,,,,,,,,,,,,,,,,127.12645879768534,None,None,1,127.12645879768534,None,,,,,,,,,,,,,,,,,,,,,,,,,,,,,,,,,,,,,,,,,,,,,,,,,,,,,,,,,,,,,sofi,001,b,2019_Oct_10_1446,Experimento,3.2.3,59.7270022069457,
8,14,14,999,0.5,0:10,3,Cyan,None,0,0,1,15:50,./completed_changuitos/montage_qpjrg_63.15_55.0.jpg,left,0,0,0,0,,,,,0,0,0,0,,,,,,,,,0,0,0,0,0,28,28,28,,,,,,,,,,,,,,,,,,127.12645879768534,None,None,1,127.12645879768534,None,,,,,,,,,,,,,,,,,,,,,,,,,,,,,,,,,,,,,,,,,,,,,,,,,,,,,,,,,,,,,sofi,001,b,2019_Oct_10_1446,Experimento,3.2.3,59.7270022069457,
8,14,14,999,0.5,0:10,3,Green,None,0,0,1,15:50,./completed_changuitos/montage_qpjrg_63.15_55.0.jpg,left,0,0,0,0,,,,,0,0,0,0,,,,,,,,,0,0,0,0,0,29,29,29,,,,,,,,,,,,,,,,,,127.12645879768534,None,None,1,127.12645879768534,None,,,,,,,,,,,,,,,,,,,,,,,,,,,,,,,,,,,,,,,,,,,,,,,,,,,,,,,,,,,,,sofi,001,b,2019_Oct_10_1446,Experimento,3.2.3,59.7270022069457,
8,14,14,999,0.5,0:10,3,White,None,0,0,1,15:50,./completed_changuitos/montage_qpjrg_63.15_55.0.jpg,left,0,0,0,0,,,,,0,0,0,0,,,,,,,,,0,0,0,0,0,30,30,30,,,,,,,,,,,,,,,,,,127.14318291458476,None,None,1,127.14318291458476,None,,,,,,,,,,,,,,,,,,,,,,,,,,,,,,,,,,,,,,,,,,,,,,,,,,,,,,,,,,,,,sofi,001,b,2019_Oct_10_1446,Experimento,3.2.3,59.7270022069457,
8,14,14,999,0.5,0:10,3,Green,['space'],0,0,1,15:50,./completed_changuitos/montage_qpjrg_63.15_55.0.jpg,left,0,0,0,0,,,,,0,0,0,0,,,,,,,,,0,0,0,0,0,31,31,31,,,,,,,,,,,,,,,,,,127.14318291458476,None,None,0,127.14318291458476,None,,,,,,,,,,,,,,,,,,,,,,,,,,,,,,,,,,,,,,,,,,,,,,,,,,,,,,,,,,,,,sofi,001,b,2019_Oct_10_1446,Experimento,3.2.3,59.7270022069457,
8,14,14,999,0.5,0:10,3,Red,None,0,0,1,15:50,./completed_changuitos/montage_qpjrg_63.15_55.0.jpg,left,0,0,0,0,,,,,0,0,0,0,,,,,,,,,0,0,0,0,0,32,32,32,,,,,,,,,,,,,,,,,,127.14318291458476,None,None,1,127.14318291458476,None,,,,,,,,,,,,,,,,,,,,,,,,,,,,,,,,,,,,,,,,,,,,,,,,,,,,,,,,,,,,,sofi,001,b,2019_Oct_10_1446,Experimento,3.2.3,59.7270022069457,
8,14,14,999,0.5,0:10,3,Blue,None,0,0,1,15:50,./completed_changuitos/montage_qpjrg_63.15_55.0.jpg,left,0,0,0,0,,,,,0,0,0,0,,,,,,,,,0,0,0,0,0,33,33,33,,,,,,,,,,,,,,,,,,127.14318291458476,None,None,1,127.14318291458476,None,,,,,,,,,,,,,,,,,,,,,,,,,,,,,,,,,,,,,,,,,,,,,,,,,,,,,,,,,,,,,sofi,001,b,2019_Oct_10_1446,Experimento,3.2.3,59.7270022069457,
8,14,14,999,0.5,0:10,3,Green,None,0,0,1,15:50,./completed_changuitos/montage_qpjrg_63.15_55.0.jpg,left,0,0,0,0,,,,,0,0,0,0,,,,,,,,,0,0,0,0,0,34,34,34,,,,,,,,,,,,,,,,,,127.14318291458476,None,None,1,127.14318291458476,None,,,,,,,,,,,,,,,,,,,,,,,,,,,,,,,,,,,,,,,,,,,,,,,,,,,,,,,,,,,,,sofi,001,b,2019_Oct_10_1446,Experimento,3.2.3,59.7270022069457,
8,14,14,999,0.5,0:10,3,,,0,0,1,15:50,./completed_changuitos/montage_qpjrg_63.15_55.0.jpg,left,0,0,0,0,,,,,0,0,0,0,,,,,,,,,0,0,0,0,,,,,,,,,,,,,,,,,,,,,,,,,,,,,127.17570493198582,None,right,0,3.515554797006189,127.17570493198582,None,127.17570493198582,130.17520792898722,,,,,,,,,,,,,,,,,,,,,,,,,,,,,,,,,,,,,,,,,,,,,,,,,,,sofi,001,b,2019_Oct_10_1446,Experimento,3.2.3,59.7270022069457,
8,14,14,999,0.5,0:10,3,,,0,0,1,15:50,,,0,0,0,0,,,,,0,0,0,0,,,,,,,,,,,,,,,,,,,,,,,,,,,,,,,,,,,,,,,,,,,,,,,,,,,,,,,,,,,,,,,,,,,,,,,,,,,,,,,,,,,,,,,,,,,,,,,,,,,,sofi,001,b,2019_Oct_10_1446,Experimento,3.2.3,59.7270022069457,
8,14,14,999,0.5,0:10,3,,,0,1,0,19:50,./completed_changuitos/montage_emrxj_92.05_106.59.jpg,right,0,0,0,0,,,,,0,1,1,1,,,,,0,0,0,0,,,,,,,,,,,,,,,,,,,,,,,,,,,,,,,,,,,,,,,,,,130.85186780898948,136.45617031298752,136.45617031298752,144.46978929499164,144.46978929499164,158.48224676698737,right,1,2.0508496399997966,158.48224676698737,None,158.48224676698737,None,158.48224676698737,None,,,,,,,,,,,,,,,,,,,,,,,,,,,,,,,,,,,,sofi,001,b,2019_Oct_10_1446,Experimento,3.2.3,59.7270022069457,
8,14,14,999,0.5,0:10,3,,,0,1,0,19:50,,,0,0,0,0,,,,,0,1,1,1,,,,,,,,,,,,,,,,,,,,,,,,,,,,,,,,,,,,,,,,,,,,,,,,,,,,,,,,,,,,,,,,,,,,,,,,,,,,,,,,,,,,,,,,,,,,,,,,,,,,sofi,001,b,2019_Oct_10_1446,Experimento,3.2.3,59.7270022069457,
8,14,14,999,0.5,0:10,3,Magenta,None,0,0,1,20:50,./completed_changuitos/montage_jdmwp_67.19_57.69.jpg,left,0,0,0,0,,,,,0,2,2,2,,,,,,,,,0,0,0,0,0,0,0,0,,,,,,,,,,,,,,160.66294739999285,163.89702728598786,163.89702728598786,None,171.93907438899623,172.44408174499404,None,1,171.93907438899623,None,,,,,,,,,,,,,,,,,,,,,,,,,,,,,,,,,,,,,,,,,,,,,,,,,,,,,,,,,,,,,sofi,001,b,2019_Oct_10_1446,Experimento,3.2.3,59.7270022069457,
8,14,14,999,0.5,0:10,3,Blue,['space'],0,0,1,20:50,./completed_changuitos/montage_jdmwp_67.19_57.69.jpg,left,0,0,0,0,,,,,0,2,2,2,,,,,,,,,0,0,0,0,0,1,1,1,,,,,,,,,,,,,,,,,,173.9434540989896,174.4433782589913,None,0,173.9434540989896,173.9434540989896,,,,,,,,,,,,,,,,,,,,,,,,,,,,,,,,,,,,,,,,,,,,,,,,,,,,,,,,,,,,,sofi,001,b,2019_Oct_10_1446,Experimento,3.2.3,59.7270022069457,
8,14,14,999,0.5,0:10,3,Cyan,None,0,0,1,20:50,./completed_changuitos/montage_jdmwp_67.19_57.69.jpg,left,0,0,0,0,,,,,0,2,2,2,,,,,,,,,0,0,0,0,0,2,2,2,,,,,,,,,,,,,,,,,,175.94285555998795,176.44271196798945,None,1,175.94285555998795,175.94285555998795,,,,,,,,,,,,,,,,,,,,,,,,,,,,,,,,,,,,,,,,,,,,,,,,,,,,,,,,,,,,,sofi,001,b,2019_Oct_10_1446,Experimento,3.2.3,59.7270022069457,
8,14,14,999,0.5,0:10,3,Yellow,None,0,0,1,20:50,./completed_changuitos/montage_jdmwp_67.19_57.69.jpg,left,0,0,0,0,,,,,0,2,2,2,,,,,,,,,0,0,0,0,0,3,3,3,,,,,,,,,,,,,,,,,,177.94217431399738,178.4420515739912,None,1,177.94217431399738,177.94217431399738,,,,,,,,,,,,,,,,,,,,,,,,,,,,,,,,,,,,,,,,,,,,,,,,,,,,,,,,,,,,,sofi,001,b,2019_Oct_10_1446,Experimento,3.2.3,59.7270022069457,
8,14,14,999,0.5,0:10,3,Cyan,None,0,0,1,20:50,./completed_changuitos/montage_jdmwp_67.19_57.69.jpg,left,0,0,0,0,,,,,0,2,2,2,,,,,,,,,0,0,0,0,0,4,4,4,,,,,,,,,,,,,,,,,,179.9415200779913,180.44094391699764,None,1,179.9415200779913,179.9415200779913,,,,,,,,,,,,,,,,,,,,,,,,,,,,,,,,,,,,,,,,,,,,,,,,,,,,,,,,,,,,,sofi,001,b,2019_Oct_10_1446,Experimento,3.2.3,59.7270022069457,
8,14,14,999,0.5,0:10,3,Blue,None,0,0,1,20:50,./completed_changuitos/montage_jdmwp_67.19_57.69.jpg,left,0,0,0,0,,,,,0,2,2,2,,,,,,,,,0,0,0,0,0,5,5,5,,,,,,,,,,,,,,,,,,181.94071038799302,182.4406972059951,None,1,181.94071038799302,181.94071038799302,,,,,,,,,,,,,,,,,,,,,,,,,,,,,,,,,,,,,,,,,,,,,,,,,,,,,,,,,,,,,sofi,001,b,2019_Oct_10_1446,Experimento,3.2.3,59.7270022069457,
8,14,14,999,0.5,0:10,3,Cyan,['space'],0,0,1,20:50,./completed_changuitos/montage_jdmwp_67.19_57.69.jpg,left,0,0,0,0,,,,,0,2,2,2,,,,,,,,,0,0,0,0,0,6,6,6,,,,,,,,,,,,,,,,,,183.94006492799963,184.4399670149869,['return'],0,183.94006492799963,183.94006492799963,[0.5340530310058966],,,,,,,,,,,,,,,,,,,,,,,,,,,,,,,,,,,,,,,,,,,,,,,,,,,,,,,,,,,,sofi,001,b,2019_Oct_10_1446,Experimento,3.2.3,59.7270022069457,
8,14,14,999,0.5,0:10,3,Magenta,None,0,0,1,20:50,./completed_changuitos/montage_jdmwp_67.19_57.69.jpg,left,0,0,0,0,,,,,0,2,2,2,,,,,,,,,0,0,0,0,0,7,7,7,,,,,,,,,,,,,,,,,,185.92286781588626,None,None,1,185.92286781588626,None,,,,,,,,,,,,,,,,,,,,,,,,,,,,,,,,,,,,,,,,,,,,,,,,,,,,,,,,,,,,,sofi,001,b,2019_Oct_10_1446,Experimento,3.2.3,59.7270022069457,
8,14,14,999,0.5,0:10,3,Red,None,0,0,1,20:50,./completed_changuitos/montage_jdmwp_67.19_57.69.jpg,left,0,0,0,0,,,,,0,2,2,2,,,,,,,,,0,0,0,0,0,8,8,8,,,,,,,,,,,,,,,,,,185.92286781588626,None,None,1,185.92286781588626,None,,,,,,,,,,,,,,,,,,,,,,,,,,,,,,,,,,,,,,,,,,,,,,,,,,,,,,,,,,,,,sofi,001,b,2019_Oct_10_1446,Experimento,3.2.3,59.7270022069457,
8,14,14,999,0.5,0:10,3,Magenta,['space'],0,0,1,20:50,./completed_changuitos/montage_jdmwp_67.19_57.69.jpg,left,0,0,0,0,,,,,0,2,2,2,,,,,,,,,0,0,0,0,0,9,9,9,,,,,,,,,,,,,,,,,,185.92286781588626,None,None,0,185.92286781588626,None,,,,,,,,,,,,,,,,,,,,,,,,,,,,,,,,,,,,,,,,,,,,,,,,,,,,,,,,,,,,,sofi,001,b,2019_Oct_10_1446,Experimento,3.2.3,59.7270022069457,
8,14,14,999,0.5,0:10,3,Green,None,0,0,1,20:50,./completed_changuitos/montage_jdmwp_67.19_57.69.jpg,left,0,0,0,0,,,,,0,2,2,2,,,,,,,,,0,0,0,0,0,10,10,10,,,,,,,,,,,,,,,,,,185.92286781588626,None,None,1,185.92286781588626,None,,,,,,,,,,,,,,,,,,,,,,,,,,,,,,,,,,,,,,,,,,,,,,,,,,,,,,,,,,,,,sofi,001,b,2019_Oct_10_1446,Experimento,3.2.3,59.7270022069457,
8,14,14,999,0.5,0:10,3,Yellow,['space'],0,0,1,20:50,./completed_changuitos/montage_jdmwp_67.19_57.69.jpg,left,0,0,0,0,,,,,0,2,2,2,,,,,,,,,0,0,0,0,0,11,11,11,,,,,,,,,,,,,,,,,,185.93959193278567,None,None,0,185.93959193278567,None,,,,,,,,,,,,,,,,,,,,,,,,,,,,,,,,,,,,,,,,,,,,,,,,,,,,,,,,,,,,,sofi,001,b,2019_Oct_10_1446,Experimento,3.2.3,59.7270022069457,
8,14,14,999,0.5,0:10,3,Blue,None,0,0,1,20:50,./completed_changuitos/montage_jdmwp_67.19_57.69.jpg,left,0,0,0,0,,,,,0,2,2,2,,,,,,,,,0,0,0,0,0,12,12,12,,,,,,,,,,,,,,,,,,185.93959193278567,None,None,1,185.93959193278567,None,,,,,,,,,,,,,,,,,,,,,,,,,,,,,,,,,,,,,,,,,,,,,,,,,,,,,,,,,,,,,sofi,001,b,2019_Oct_10_1446,Experimento,3.2.3,59.7270022069457,
8,14,14,999,0.5,0:10,3,Cyan,None,0,0,1,20:50,./completed_changuitos/montage_jdmwp_67.19_57.69.jpg,left,0,0,0,0,,,,,0,2,2,2,,,,,,,,,0,0,0,0,0,13,13,13,,,,,,,,,,,,,,,,,,185.93959193278567,None,None,1,185.93959193278567,None,,,,,,,,,,,,,,,,,,,,,,,,,,,,,,,,,,,,,,,,,,,,,,,,,,,,,,,,,,,,,sofi,001,b,2019_Oct_10_1446,Experimento,3.2.3,59.7270022069457,
8,14,14,999,0.5,0:10,3,Blue,['space'],0,0,1,20:50,./completed_changuitos/montage_jdmwp_67.19_57.69.jpg,left,0,0,0,0,,,,,0,2,2,2,,,,,,,,,0,0,0,0,0,14,14,14,,,,,,,,,,,,,,,,,,185.93959193278567,None,None,0,185.93959193278567,None,,,,,,,,,,,,,,,,,,,,,,,,,,,,,,,,,,,,,,,,,,,,,,,,,,,,,,,,,,,,,sofi,001,b,2019_Oct_10_1446,Experimento,3.2.3,59.7270022069457,
8,14,14,999,0.5,0:10,3,Yellow,None,0,0,1,20:50,./completed_changuitos/montage_jdmwp_67.19_57.69.jpg,left,0,0,0,0,,,,,0,2,2,2,,,,,,,,,0,0,0,0,0,15,15,15,,,,,,,,,,,,,,,,,,185.93959193278567,None,None,1,185.93959193278567,None,,,,,,,,,,,,,,,,,,,,,,,,,,,,,,,,,,,,,,,,,,,,,,,,,,,,,,,,,,,,,sofi,001,b,2019_Oct_10_1446,Experimento,3.2.3,59.7270022069457,
8,14,14,999,0.5,0:10,3,Cyan,None,0,0,1,20:50,./completed_changuitos/montage_jdmwp_67.19_57.69.jpg,left,0,0,0,0,,,,,0,2,2,2,,,,,,,,,0,0,0,0,0,16,16,16,,,,,,,,,,,,,,,,,,185.93959193278567,None,None,1,185.93959193278567,None,,,,,,,,,,,,,,,,,,,,,,,,,,,,,,,,,,,,,,,,,,,,,,,,,,,,,,,,,,,,,sofi,001,b,2019_Oct_10_1446,Experimento,3.2.3,59.7270022069457,
8,14,14,999,0.5,0:10,3,Yellow,['space'],0,0,1,20:50,./completed_changuitos/montage_jdmwp_67.19_57.69.jpg,left,0,0,0,0,,,,,0,2,2,2,,,,,,,,,0,0,0,0,0,17,17,17,,,,,,,,,,,,,,,,,,185.93959193278567,None,None,0,185.93959193278567,None,,,,,,,,,,,,,,,,,,,,,,,,,,,,,,,,,,,,,,,,,,,,,,,,,,,,,,,,,,,,,sofi,001,b,2019_Oct_10_1446,Experimento,3.2.3,59.7270022069457,
8,14,14,999,0.5,0:10,3,Magenta,None,0,0,1,20:50,./completed_changuitos/montage_jdmwp_67.19_57.69.jpg,left,0,0,0,0,,,,,0,2,2,2,,,,,,,,,0,0,0,0,0,18,18,18,,,,,,,,,,,,,,,,,,185.9563160496851,None,None,1,185.9563160496851,None,,,,,,,,,,,,,,,,,,,,,,,,,,,,,,,,,,,,,,,,,,,,,,,,,,,,,,,,,,,,,sofi,001,b,2019_Oct_10_1446,Experimento,3.2.3,59.7270022069457,
8,14,14,999,0.5,0:10,3,Red,None,0,0,1,20:50,./completed_changuitos/montage_jdmwp_67.19_57.69.jpg,left,0,0,0,0,,,,,0,2,2,2,,,,,,,,,0,0,0,0,0,19,19,19,,,,,,,,,,,,,,,,,,185.9563160496851,None,None,1,185.9563160496851,None,,,,,,,,,,,,,,,,,,,,,,,,,,,,,,,,,,,,,,,,,,,,,,,,,,,,,,,,,,,,,sofi,001,b,2019_Oct_10_1446,Experimento,3.2.3,59.7270022069457,
8,14,14,999,0.5,0:10,3,Magenta,['space'],0,0,1,20:50,./completed_changuitos/montage_jdmwp_67.19_57.69.jpg,left,0,0,0,0,,,,,0,2,2,2,,,,,,,,,0,0,0,0,0,20,20,20,,,,,,,,,,,,,,,,,,185.9563160496851,None,None,0,185.9563160496851,None,,,,,,,,,,,,,,,,,,,,,,,,,,,,,,,,,,,,,,,,,,,,,,,,,,,,,,,,,,,,,sofi,001,b,2019_Oct_10_1446,Experimento,3.2.3,59.7270022069457,
8,14,14,999,0.5,0:10,3,Red,['space'],0,0,1,20:50,./completed_changuitos/montage_jdmwp_67.19_57.69.jpg,left,0,0,0,0,,,,,0,2,2,2,,,,,,,,,0,0,0,0,0,21,21,21,,,,,,,,,,,,,,,,,,185.9563160496851,None,None,0,185.9563160496851,None,,,,,,,,,,,,,,,,,,,,,,,,,,,,,,,,,,,,,,,,,,,,,,,,,,,,,,,,,,,,,sofi,001,b,2019_Oct_10_1446,Experimento,3.2.3,59.7270022069457,
8,14,14,999,0.5,0:10,3,Yellow,None,0,0,1,20:50,./completed_changuitos/montage_jdmwp_67.19_57.69.jpg,left,0,0,0,0,,,,,0,2,2,2,,,,,,,,,0,0,0,0,0,22,22,22,,,,,,,,,,,,,,,,,,185.9563160496851,None,None,1,185.9563160496851,None,,,,,,,,,,,,,,,,,,,,,,,,,,,,,,,,,,,,,,,,,,,,,,,,,,,,,,,,,,,,,sofi,001,b,2019_Oct_10_1446,Experimento,3.2.3,59.7270022069457,
8,14,14,999,0.5,0:10,3,Cyan,None,0,0,1,20:50,./completed_changuitos/montage_jdmwp_67.19_57.69.jpg,left,0,0,0,0,,,,,0,2,2,2,,,,,,,,,0,0,0,0,0,23,23,23,,,,,,,,,,,,,,,,,,185.9563160496851,None,None,1,185.9563160496851,None,,,,,,,,,,,,,,,,,,,,,,,,,,,,,,,,,,,,,,,,,,,,,,,,,,,,,,,,,,,,,sofi,001,b,2019_Oct_10_1446,Experimento,3.2.3,59.7270022069457,
8,14,14,999,0.5,0:10,3,Green,None,0,0,1,20:50,./completed_changuitos/montage_jdmwp_67.19_57.69.jpg,left,0,0,0,0,,,,,0,2,2,2,,,,,,,,,0,0,0,0,0,24,24,24,,,,,,,,,,,,,,,,,,185.9563160496851,None,None,1,185.9563160496851,None,,,,,,,,,,,,,,,,,,,,,,,,,,,,,,,,,,,,,,,,,,,,,,,,,,,,,,,,,,,,,sofi,001,b,2019_Oct_10_1446,Experimento,3.2.3,59.7270022069457,
8,14,14,999,0.5,0:10,3,White,None,0,0,1,20:50,./completed_changuitos/montage_jdmwp_67.19_57.69.jpg,left,0,0,0,0,,,,,0,2,2,2,,,,,,,,,0,0,0,0,0,25,25,25,,,,,,,,,,,,,,,,,,185.9563160496851,None,None,1,185.9563160496851,None,,,,,,,,,,,,,,,,,,,,,,,,,,,,,,,,,,,,,,,,,,,,,,,,,,,,,,,,,,,,,sofi,001,b,2019_Oct_10_1446,Experimento,3.2.3,59.7270022069457,
8,14,14,999,0.5,0:10,3,Green,['space'],0,0,1,20:50,./completed_changuitos/montage_jdmwp_67.19_57.69.jpg,left,0,0,0,0,,,,,0,2,2,2,,,,,,,,,0,0,0,0,0,26,26,26,,,,,,,,,,,,,,,,,,185.9563160496851,None,None,0,185.9563160496851,None,,,,,,,,,,,,,,,,,,,,,,,,,,,,,,,,,,,,,,,,,,,,,,,,,,,,,,,,,,,,,sofi,001,b,2019_Oct_10_1446,Experimento,3.2.3,59.7270022069457,
8,14,14,999,0.5,0:10,3,Red,None,0,0,1,20:50,./completed_changuitos/montage_jdmwp_67.19_57.69.jpg,left,0,0,0,0,,,,,0,2,2,2,,,,,,,,,0,0,0,0,0,27,27,27,,,,,,,,,,,,,,,,,,185.9563160496851,None,None,1,185.9563160496851,None,,,,,,,,,,,,,,,,,,,,,,,,,,,,,,,,,,,,,,,,,,,,,,,,,,,,,,,,,,,,,sofi,001,b,2019_Oct_10_1446,Experimento,3.2.3,59.7270022069457,
8,14,14,999,0.5,0:10,3,Blue,None,0,0,1,20:50,./completed_changuitos/montage_jdmwp_67.19_57.69.jpg,left,0,0,0,0,,,,,0,2,2,2,,,,,,,,,0,0,0,0,0,28,28,28,,,,,,,,,,,,,,,,,,185.9563160496851,None,None,1,185.9563160496851,None,,,,,,,,,,,,,,,,,,,,,,,,,,,,,,,,,,,,,,,,,,,,,,,,,,,,,,,,,,,,,sofi,001,b,2019_Oct_10_1446,Experimento,3.2.3,59.7270022069457,
8,14,14,999,0.5,0:10,3,Green,None,0,0,1,20:50,./completed_changuitos/montage_jdmwp_67.19_57.69.jpg,left,0,0,0,0,,,,,0,2,2,2,,,,,,,,,0,0,0,0,0,29,29,29,,,,,,,,,,,,,,,,,,185.9563160496851,None,None,1,185.9563160496851,None,,,,,,,,,,,,,,,,,,,,,,,,,,,,,,,,,,,,,,,,,,,,,,,,,,,,,,,,,,,,,sofi,001,b,2019_Oct_10_1446,Experimento,3.2.3,59.7270022069457,
8,14,14,999,0.5,0:10,3,,,0,0,1,20:50,./completed_changuitos/montage_jdmwp_67.19_57.69.jpg,left,0,0,0,0,,,,,0,2,2,2,,,,,,,,,0,0,0,0,,,,,,,,,,,,,,,,,,,,,,,,,,,,,185.9944463899883,None,left,1,3.3599561220034957,185.9944463899883,None,185.9944463899883,189.00514949999342,,,,,,,,,,,,,,,,,,,,,,,,,,,,,,,,,,,,,,,,,,,,,,,,,,,sofi,001,b,2019_Oct_10_1446,Experimento,3.2.3,59.7270022069457,
8,14,14,999,0.5,0:10,3,,,0,0,1,20:50,,,0,0,0,0,,,,,0,2,2,2,,,,,,,,,,,,,,,,,,,,,,,,,,,,,,,,,,,,,,,,,,,,,,,,,,,,,,,,,,,,,,,,,,,,,,,,,,,,,,,,,,,,,,,,,,,,,,,,,,,,sofi,001,b,2019_Oct_10_1446,Experimento,3.2.3,59.7270022069457,
8,14,14,999,0.5,0:10,3,,,0,1,0,25:50,./completed_changuitos/montage_udnqp_169.0_147.29.jpg,left,0,0,0,0,,,,,0,3,3,3,,,,,0,0,0,0,,,,,,,,,,,,,,,,,,,,,,,,,,,,,,,,,,,,,,,,,,189.49828053898818,196.08601022498624,196.08601022498624,204.0999618539936,204.0999618539936,218.11182583798654,left,1,1.1334916740015615,218.11182583798654,None,218.11182583798654,None,218.11182583798654,None,,,,,,,,,,,,,,,,,,,,,,,,,,,,,,,,,,,,sofi,001,b,2019_Oct_10_1446,Experimento,3.2.3,59.7270022069457,
8,14,14,999,0.5,0:10,3,,,0,1,0,25:50,,,0,0,0,0,,,,,0,3,3,3,,,,,,,,,,,,,,,,,,,,,,,,,,,,,,,,,,,,,,,,,,,,,,,,,,,,,,,,,,,,,,,,,,,,,,,,,,,,,,,,,,,,,,,,,,,,,,,,,,,,sofi,001,b,2019_Oct_10_1446,Experimento,3.2.3,59.7270022069457,
8,14,14,999,0.5,0:10,3,Red,None,0,0,1,28:50,./completed_changuitos/montage_sprdb_55.65_48.49.jpg,left,0,0,0,0,,,,,0,4,4,4,,,,,,,,,0,0,0,0,0,0,0,0,,,,,,,,,,,,,,219.3873763679876,220.8109309989959,220.8109309989959,None,228.83389677098603,229.3411436109891,None,1,228.83389677098603,None,,,,,,,,,,,,,,,,,,,,,,,,,,,,,,,,,,,,,,,,,,,,,,,,,,,,,,,,,,,,,sofi,001,b,2019_Oct_10_1446,Experimento,3.2.3,59.7270022069457,
8,14,14,999,0.5,0:10,3,Magenta,['space'],0,0,1,28:50,./completed_changuitos/montage_sprdb_55.65_48.49.jpg,left,0,0,0,0,,,,,0,4,4,4,,,,,,,,,0,0,0,0,0,1,1,1,,,,,,,,,,,,,,,,,,230.84063997399062,231.34064474598563,None,0,230.84063997399062,230.84063997399062,,,,,,,,,,,,,,,,,,,,,,,,,,,,,,,,,,,,,,,,,,,,,,,,,,,,,,,,,,,,,sofi,001,b,2019_Oct_10_1446,Experimento,3.2.3,59.7270022069457,
8,14,14,999,0.5,0:10,3,Green,None,0,0,1,28:50,./completed_changuitos/montage_sprdb_55.65_48.49.jpg,left,0,0,0,0,,,,,0,4,4,4,,,,,,,,,0,0,0,0,0,2,2,2,,,,,,,,,,,,,,,,,,232.84014011798718,233.33993850299157,None,1,232.84014011798718,232.84014011798718,,,,,,,,,,,,,,,,,,,,,,,,,,,,,,,,,,,,,,,,,,,,,,,,,,,,,,,,,,,,,sofi,001,b,2019_Oct_10_1446,Experimento,3.2.3,59.7270022069457,
8,14,14,999,0.5,0:10,3,Yellow,['space'],0,0,1,28:50,./completed_changuitos/montage_sprdb_55.65_48.49.jpg,left,0,0,0,0,,,,,0,4,4,4,,,,,,,,,0,0,0,0,0,3,3,3,,,,,,,,,,,,,,,,,,234.83942031298648,235.33920757699525,None,0,234.83942031298648,234.83942031298648,,,,,,,,,,,,,,,,,,,,,,,,,,,,,,,,,,,,,,,,,,,,,,,,,,,,,,,,,,,,,sofi,001,b,2019_Oct_10_1446,Experimento,3.2.3,59.7270022069457,
8,14,14,999,0.5,0:10,3,Blue,None,0,0,1,28:50,./completed_changuitos/montage_sprdb_55.65_48.49.jpg,left,0,0,0,0,,,,,0,4,4,4,,,,,,,,,0,0,0,0,0,4,4,4,,,,,,,,,,,,,,,,,,236.8386473399878,237.33855826599756,None,1,236.8386473399878,236.8386473399878,,,,,,,,,,,,,,,,,,,,,,,,,,,,,,,,,,,,,,,,,,,,,,,,,,,,,,,,,,,,,sofi,001,b,2019_Oct_10_1446,Experimento,3.2.3,59.7270022069457,
8,14,14,999,0.5,0:10,3,Cyan,None,0,0,1,28:50,./completed_changuitos/montage_sprdb_55.65_48.49.jpg,left,0,0,0,0,,,,,0,4,4,4,,,,,,,,,0,0,0,0,0,5,5,5,,,,,,,,,,,,,,,,,,238.83761461298855,239.33786965699983,None,1,238.83761461298855,238.83761461298855,,,,,,,,,,,,,,,,,,,,,,,,,,,,,,,,,,,,,,,,,,,,,,,,,,,,,,,,,,,,,sofi,001,b,2019_Oct_10_1446,Experimento,3.2.3,59.7270022069457,
8,14,14,999,0.5,0:10,3,Blue,['space'],0,0,1,28:50,./completed_changuitos/montage_sprdb_55.65_48.49.jpg,left,0,0,0,0,,,,,0,4,4,4,,,,,,,,,0,0,0,0,0,6,6,6,,,,,,,,,,,,,,,,,,240.83733496999776,241.3372897849913,None,0,240.83733496999776,240.83733496999776,,,,,,,,,,,,,,,,,,,,,,,,,,,,,,,,,,,,,,,,,,,,,,,,,,,,,,,,,,,,,sofi,001,b,2019_Oct_10_1446,Experimento,3.2.3,59.7270022069457,
8,14,14,999,0.5,0:10,3,Yellow,None,0,0,1,28:50,./completed_changuitos/montage_sprdb_55.65_48.49.jpg,left,0,0,0,0,,,,,0,4,4,4,,,,,,,,,0,0,0,0,0,7,7,7,,,,,,,,,,,,,,,,,,242.8368016438937,None,None,1,242.8368016438937,None,,,,,,,,,,,,,,,,,,,,,,,,,,,,,,,,,,,,,,,,,,,,,,,,,,,,,,,,,,,,,sofi,001,b,2019_Oct_10_1446,Experimento,3.2.3,59.7270022069457,
8,14,14,999,0.5,0:10,3,Cyan,None,0,0,1,28:50,./completed_changuitos/montage_sprdb_55.65_48.49.jpg,left,0,0,0,0,,,,,0,4,4,4,,,,,,,,,0,0,0,0,0,8,8,8,,,,,,,,,,,,,,,,,,242.8368016438937,None,None,1,242.8368016438937,None,,,,,,,,,,,,,,,,,,,,,,,,,,,,,,,,,,,,,,,,,,,,,,,,,,,,,,,,,,,,,sofi,001,b,2019_Oct_10_1446,Experimento,3.2.3,59.7270022069457,
8,14,14,999,0.5,0:10,3,Yellow,['space'],0,0,1,28:50,./completed_changuitos/montage_sprdb_55.65_48.49.jpg,left,0,0,0,0,,,,,0,4,4,4,,,,,,,,,0,0,0,0,0,9,9,9,,,,,,,,,,,,,,,,,,242.8368016438937,None,None,0,242.8368016438937,None,,,,,,,,,,,,,,,,,,,,,,,,,,,,,,,,,,,,,,,,,,,,,,,,,,,,,,,,,,,,,sofi,001,b,2019_Oct_10_1446,Experimento,3.2.3,59.7270022069457,
8,14,14,999,0.5,0:10,3,Magenta,None,0,0,1,28:50,./completed_changuitos/montage_sprdb_55.65_48.49.jpg,left,0,0,0,0,,,,,0,4,4,4,,,,,,,,,0,0,0,0,0,10,10,10,,,,,,,,,,,,,,,,,,242.8368016438937,None,None,1,242.8368016438937,None,,,,,,,,,,,,,,,,,,,,,,,,,,,,,,,,,,,,,,,,,,,,,,,,,,,,,,,,,,,,,sofi,001,b,2019_Oct_10_1446,Experimento,3.2.3,59.7270022069457,
8,14,14,999,0.5,0:10,3,Red,None,0,0,1,28:50,./completed_changuitos/montage_sprdb_55.65_48.49.jpg,left,0,0,0,0,,,,,0,4,4,4,,,,,,,,,0,0,0,0,0,11,11,11,,,,,,,,,,,,,,,,,,242.8535257607931,None,None,1,242.8535257607931,None,,,,,,,,,,,,,,,,,,,,,,,,,,,,,,,,,,,,,,,,,,,,,,,,,,,,,,,,,,,,,sofi,001,b,2019_Oct_10_1446,Experimento,3.2.3,59.7270022069457,
8,14,14,999,0.5,0:10,3,Magenta,['space'],0,0,1,28:50,./completed_changuitos/montage_sprdb_55.65_48.49.jpg,left,0,0,0,0,,,,,0,4,4,4,,,,,,,,,0,0,0,0,0,12,12,12,,,,,,,,,,,,,,,,,,242.8535257607931,None,None,0,242.8535257607931,None,,,,,,,,,,,,,,,,,,,,,,,,,,,,,,,,,,,,,,,,,,,,,,,,,,,,,,,,,,,,,sofi,001,b,2019_Oct_10_1446,Experimento,3.2.3,59.7270022069457,
8,14,14,999,0.5,0:10,3,Red,['space'],0,0,1,28:50,./completed_changuitos/montage_sprdb_55.65_48.49.jpg,left,0,0,0,0,,,,,0,4,4,4,,,,,,,,,0,0,0,0,0,13,13,13,,,,,,,,,,,,,,,,,,242.8535257607931,None,None,0,242.8535257607931,None,,,,,,,,,,,,,,,,,,,,,,,,,,,,,,,,,,,,,,,,,,,,,,,,,,,,,,,,,,,,,sofi,001,b,2019_Oct_10_1446,Experimento,3.2.3,59.7270022069457,
8,14,14,999,0.5,0:10,3,Yellow,None,0,0,1,28:50,./completed_changuitos/montage_sprdb_55.65_48.49.jpg,left,0,0,0,0,,,,,0,4,4,4,,,,,,,,,0,0,0,0,0,14,14,14,,,,,,,,,,,,,,,,,,242.8535257607931,None,None,1,242.8535257607931,None,,,,,,,,,,,,,,,,,,,,,,,,,,,,,,,,,,,,,,,,,,,,,,,,,,,,,,,,,,,,,sofi,001,b,2019_Oct_10_1446,Experimento,3.2.3,59.7270022069457,
8,14,14,999,0.5,0:10,3,Cyan,None,0,0,1,28:50,./completed_changuitos/montage_sprdb_55.65_48.49.jpg,left,0,0,0,0,,,,,0,4,4,4,,,,,,,,,0,0,0,0,0,15,15,15,,,,,,,,,,,,,,,,,,242.8535257607931,None,None,1,242.8535257607931,None,,,,,,,,,,,,,,,,,,,,,,,,,,,,,,,,,,,,,,,,,,,,,,,,,,,,,,,,,,,,,sofi,001,b,2019_Oct_10_1446,Experimento,3.2.3,59.7270022069457,
8,14,14,999,0.5,0:10,3,Green,None,0,0,1,28:50,./completed_changuitos/montage_sprdb_55.65_48.49.jpg,left,0,0,0,0,,,,,0,4,4,4,,,,,,,,,0,0,0,0,0,16,16,16,,,,,,,,,,,,,,,,,,242.8535257607931,None,None,1,242.8535257607931,None,,,,,,,,,,,,,,,,,,,,,,,,,,,,,,,,,,,,,,,,,,,,,,,,,,,,,,,,,,,,,sofi,001,b,2019_Oct_10_1446,Experimento,3.2.3,59.7270022069457,
8,14,14,999,0.5,0:10,3,White,None,0,0,1,28:50,./completed_changuitos/montage_sprdb_55.65_48.49.jpg,left,0,0,0,0,,,,,0,4,4,4,,,,,,,,,0,0,0,0,0,17,17,17,,,,,,,,,,,,,,,,,,242.87024987769254,None,None,1,242.87024987769254,None,,,,,,,,,,,,,,,,,,,,,,,,,,,,,,,,,,,,,,,,,,,,,,,,,,,,,,,,,,,,,sofi,001,b,2019_Oct_10_1446,Experimento,3.2.3,59.7270022069457,
8,14,14,999,0.5,0:10,3,Green,['space'],0,0,1,28:50,./completed_changuitos/montage_sprdb_55.65_48.49.jpg,left,0,0,0,0,,,,,0,4,4,4,,,,,,,,,0,0,0,0,0,18,18,18,,,,,,,,,,,,,,,,,,242.87024987769254,None,None,0,242.87024987769254,None,,,,,,,,,,,,,,,,,,,,,,,,,,,,,,,,,,,,,,,,,,,,,,,,,,,,,,,,,,,,,sofi,001,b,2019_Oct_10_1446,Experimento,3.2.3,59.7270022069457,
8,14,14,999,0.5,0:10,3,Red,None,0,0,1,28:50,./completed_changuitos/montage_sprdb_55.65_48.49.jpg,left,0,0,0,0,,,,,0,4,4,4,,,,,,,,,0,0,0,0,0,19,19,19,,,,,,,,,,,,,,,,,,242.87024987769254,None,None,1,242.87024987769254,None,,,,,,,,,,,,,,,,,,,,,,,,,,,,,,,,,,,,,,,,,,,,,,,,,,,,,,,,,,,,,sofi,001,b,2019_Oct_10_1446,Experimento,3.2.3,59.7270022069457,
8,14,14,999,0.5,0:10,3,Blue,None,0,0,1,28:50,./completed_changuitos/montage_sprdb_55.65_48.49.jpg,left,0,0,0,0,,,,,0,4,4,4,,,,,,,,,0,0,0,0,0,20,20,20,,,,,,,,,,,,,,,,,,242.87024987769254,None,None,1,242.87024987769254,None,,,,,,,,,,,,,,,,,,,,,,,,,,,,,,,,,,,,,,,,,,,,,,,,,,,,,,,,,,,,,sofi,001,b,2019_Oct_10_1446,Experimento,3.2.3,59.7270022069457,
8,14,14,999,0.5,0:10,3,Green,None,0,0,1,28:50,./completed_changuitos/montage_sprdb_55.65_48.49.jpg,left,0,0,0,0,,,,,0,4,4,4,,,,,,,,,0,0,0,0,0,21,21,21,,,,,,,,,,,,,,,,,,242.87024987769254,None,None,1,242.87024987769254,None,,,,,,,,,,,,,,,,,,,,,,,,,,,,,,,,,,,,,,,,,,,,,,,,,,,,,,,,,,,,,sofi,001,b,2019_Oct_10_1446,Experimento,3.2.3,59.7270022069457,
8,14,14,999,0.5,0:10,3,,,0,0,1,28:50,./completed_changuitos/montage_sprdb_55.65_48.49.jpg,left,0,0,0,0,,,,,0,4,4,4,,,,,,,,,0,0,0,0,,,,,,,,,,,,,,,,,,,,,,,,,,,,,242.90390582499094,None,left,1,2.2317949059943203,242.90390582499094,None,242.90390582499094,None,,,,,,,,,,,,,,,,,,,,,,,,,,,,,,,,,,,,,,,,,,,,,,,,,,,sofi,001,b,2019_Oct_10_1446,Experimento,3.2.3,59.7270022069457,
8,14,14,999,0.5,0:10,3,,,0,0,1,28:50,,,0,0,0,0,,,,,0,4,4,4,,,,,,,,,,,,,,,,,,,,,,,,,,,,,,,,,,,,,,,,,,,,,,,,,,,,,,,,,,,,,,,,,,,,,,,,,,,,,,,,,,,,,,,,,,,,,,,,,,,,sofi,001,b,2019_Oct_10_1446,Experimento,3.2.3,59.7270022069457,
8,14,14,999,0.5,0:10,3,,,0,1,0,10:50,./completed_changuitos/montage_hzesm_438.9_512.55.jpg,right,0,0,0,0,,,,,0,5,5,5,,,,,0,0,0,0,,,,,,,,,,,,,,,,,,,,,,,,,,,,,,,,,,,,,,,,,,245.27606567699695,251.0838705199858,251.0838705199858,259.09738983699935,259.09738983699935,273.1096804449917,left,0,1.3344974460051162,273.1096804449917,None,273.1096804449917,None,273.1096804449917,None,,,,,,,,,,,,,,,,,,,,,,,,,,,,,,,,,,,,sofi,001,b,2019_Oct_10_1446,Experimento,3.2.3,59.7270022069457,
8,14,14,999,0.5,0:10,3,,,0,1,0,10:50,,,0,0,0,0,,,,,0,5,5,5,,,,,,,,,,,,,,,,,,,,,,,,,,,,,,,,,,,,,,,,,,,,,,,,,,,,,,,,,,,,,,,,,,,,,,,,,,,,,,,,,,,,,,,,,,,,,,,,,,,,sofi,001,b,2019_Oct_10_1446,Experimento,3.2.3,59.7270022069457,
8,14,14,999,0.5,0:10,3,Yellow,None,0,0,1,15:50,./completed_changuitos/montage_ohahd_179.75_153.55.jpg,left,0,0,0,0,,,,,0,6,6,6,,,,,,,,,0,0,0,0,0,0,0,0,,,,,,,,,,,,,,274.575528300993,276.79142607099493,276.79142607099493,None,284.83422897999117,285.3388254399906,None,1,284.83422897999117,None,,,,,,,,,,,,,,,,,,,,,,,,,,,,,,,,,,,,,,,,,,,,,,,,,,,,,,,,,,,,,sofi,001,b,2019_Oct_10_1446,Experimento,3.2.3,59.7270022069457,
8,14,14,999,0.5,0:10,3,White,['space'],0,0,1,15:50,./completed_changuitos/montage_ohahd_179.75_153.55.jpg,left,0,0,0,0,,,,,0,6,6,6,,,,,,,,,0,0,0,0,0,1,1,1,,,,,,,,,,,,,,,,,,286.8382082399912,287.33813493099296,None,0,286.8382082399912,286.8382082399912,,,,,,,,,,,,,,,,,,,,,,,,,,,,,,,,,,,,,,,,,,,,,,,,,,,,,,,,,,,,,sofi,001,b,2019_Oct_10_1446,Experimento,3.2.3,59.7270022069457,
8,14,14,999,0.5,0:10,3,Magenta,None,0,0,1,15:50,./completed_changuitos/montage_ohahd_179.75_153.55.jpg,left,0,0,0,0,,,,,0,6,6,6,,,,,,,,,0,0,0,0,0,2,2,2,,,,,,,,,,,,,,,,,,288.83759812299104,289.3374456179881,None,1,288.83759812299104,288.83759812299104,,,,,,,,,,,,,,,,,,,,,,,,,,,,,,,,,,,,,,,,,,,,,,,,,,,,,,,,,,,,,sofi,001,b,2019_Oct_10_1446,Experimento,3.2.3,59.7270022069457,
8,14,14,999,0.5,0:10,3,Cyan,None,0,0,1,15:50,./completed_changuitos/montage_ohahd_179.75_153.55.jpg,left,0,0,0,0,,,,,0,6,6,6,,,,,,,,,0,0,0,0,0,3,3,3,,,,,,,,,,,,,,,,,,290.8369347909902,291.3367459009896,None,1,290.8369347909902,290.8369347909902,,,,,,,,,,,,,,,,,,,,,,,,,,,,,,,,,,,,,,,,,,,,,,,,,,,,,,,,,,,,,sofi,001,b,2019_Oct_10_1446,Experimento,3.2.3,59.7270022069457,
8,14,14,999,0.5,0:10,3,Blue,None,0,0,1,15:50,./completed_changuitos/montage_ohahd_179.75_153.55.jpg,left,0,0,0,0,,,,,0,6,6,6,,,,,,,,,0,0,0,0,0,4,4,4,,,,,,,,,,,,,,,,,,292.8362160099932,293.33567962898815,None,1,292.8362160099932,292.8362160099932,,,,,,,,,,,,,,,,,,,,,,,,,,,,,,,,,,,,,,,,,,,,,,,,,,,,,,,,,,,,,sofi,001,b,2019_Oct_10_1446,Experimento,3.2.3,59.7270022069457,
8,14,14,999,0.5,0:10,3,Magenta,None,0,0,1,15:50,./completed_changuitos/montage_ohahd_179.75_153.55.jpg,left,0,0,0,0,,,,,0,6,6,6,,,,,,,,,0,0,0,0,0,5,5,5,,,,,,,,,,,,,,,,,,294.83549388698884,295.3353911759914,None,1,294.83549388698884,294.83549388698884,,,,,,,,,,,,,,,,,,,,,,,,,,,,,,,,,,,,,,,,,,,,,,,,,,,,,,,,,,,,,sofi,001,b,2019_Oct_10_1446,Experimento,3.2.3,59.7270022069457,
8,14,14,999,0.5,0:10,3,Blue,['space'],0,0,1,15:50,./completed_changuitos/montage_ohahd_179.75_153.55.jpg,left,0,0,0,0,,,,,0,6,6,6,,,,,,,,,0,0,0,0,0,6,6,6,,,,,,,,,,,,,,,,,,296.83480322599644,297.33472719699785,['return'],0,296.83480322599644,296.83480322599644,[0.6338060109992512],,,,,,,,,,,,,,,,,,,,,,,,,,,,,,,,,,,,,,,,,,,,,,,,,,,,,,,,,,,,sofi,001,b,2019_Oct_10_1446,Experimento,3.2.3,59.7270022069457,
8,14,14,999,0.5,0:10,3,Cyan,None,0,0,1,15:50,./completed_changuitos/montage_ohahd_179.75_153.55.jpg,left,0,0,0,0,,,,,0,6,6,6,,,,,,,,,0,0,0,0,0,7,7,7,,,,,,,,,,,,,,,,,,298.8175883238902,None,None,1,298.8175883238902,None,,,,,,,,,,,,,,,,,,,,,,,,,,,,,,,,,,,,,,,,,,,,,,,,,,,,,,,,,,,,,sofi,001,b,2019_Oct_10_1446,Experimento,3.2.3,59.7270022069457,
8,14,14,999,0.5,0:10,3,Yellow,None,0,0,1,15:50,./completed_changuitos/montage_ohahd_179.75_153.55.jpg,left,0,0,0,0,,,,,0,6,6,6,,,,,,,,,0,0,0,0,0,8,8,8,,,,,,,,,,,,,,,,,,298.8175883238902,None,None,1,298.8175883238902,None,,,,,,,,,,,,,,,,,,,,,,,,,,,,,,,,,,,,,,,,,,,,,,,,,,,,,,,,,,,,,sofi,001,b,2019_Oct_10_1446,Experimento,3.2.3,59.7270022069457,
8,14,14,999,0.5,0:10,3,Cyan,None,0,0,1,15:50,./completed_changuitos/montage_ohahd_179.75_153.55.jpg,left,0,0,0,0,,,,,0,6,6,6,,,,,,,,,0,0,0,0,0,9,9,9,,,,,,,,,,,,,,,,,,298.8175883238902,None,None,1,298.8175883238902,None,,,,,,,,,,,,,,,,,,,,,,,,,,,,,,,,,,,,,,,,,,,,,,,,,,,,,,,,,,,,,sofi,001,b,2019_Oct_10_1446,Experimento,3.2.3,59.7270022069457,
8,14,14,999,0.5,0:10,3,Blue,None,0,0,1,15:50,./completed_changuitos/montage_ohahd_179.75_153.55.jpg,left,0,0,0,0,,,,,0,6,6,6,,,,,,,,,0,0,0,0,0,10,10,10,,,,,,,,,,,,,,,,,,298.8175883238902,None,None,1,298.8175883238902,None,,,,,,,,,,,,,,,,,,,,,,,,,,,,,,,,,,,,,,,,,,,,,,,,,,,,,,,,,,,,,sofi,001,b,2019_Oct_10_1446,Experimento,3.2.3,59.7270022069457,
8,14,14,999,0.5,0:10,3,Cyan,['space'],0,0,1,15:50,./completed_changuitos/montage_ohahd_179.75_153.55.jpg,left,0,0,0,0,,,,,0,6,6,6,,,,,,,,,0,0,0,0,0,11,11,11,,,,,,,,,,,,,,,,,,298.83431244078963,None,None,0,298.83431244078963,None,,,,,,,,,,,,,,,,,,,,,,,,,,,,,,,,,,,,,,,,,,,,,,,,,,,,,,,,,,,,,sofi,001,b,2019_Oct_10_1446,Experimento,3.2.3,59.7270022069457,
8,14,14,999,0.5,0:10,3,Magenta,None,0,0,1,15:50,./completed_changuitos/montage_ohahd_179.75_153.55.jpg,left,0,0,0,0,,,,,0,6,6,6,,,,,,,,,0,0,0,0,0,12,12,12,,,,,,,,,,,,,,,,,,298.83431244078963,None,None,1,298.83431244078963,None,,,,,,,,,,,,,,,,,,,,,,,,,,,,,,,,,,,,,,,,,,,,,,,,,,,,,,,,,,,,,sofi,001,b,2019_Oct_10_1446,Experimento,3.2.3,59.7270022069457,
8,14,14,999,0.5,0:10,3,Red,None,0,0,1,15:50,./completed_changuitos/montage_ohahd_179.75_153.55.jpg,left,0,0,0,0,,,,,0,6,6,6,,,,,,,,,0,0,0,0,0,13,13,13,,,,,,,,,,,,,,,,,,298.83431244078963,None,None,1,298.83431244078963,None,,,,,,,,,,,,,,,,,,,,,,,,,,,,,,,,,,,,,,,,,,,,,,,,,,,,,,,,,,,,,sofi,001,b,2019_Oct_10_1446,Experimento,3.2.3,59.7270022069457,
8,14,14,999,0.5,0:10,3,Magenta,['space'],0,0,1,15:50,./completed_changuitos/montage_ohahd_179.75_153.55.jpg,left,0,0,0,0,,,,,0,6,6,6,,,,,,,,,0,0,0,0,0,14,14,14,,,,,,,,,,,,,,,,,,298.83431244078963,None,None,0,298.83431244078963,None,,,,,,,,,,,,,,,,,,,,,,,,,,,,,,,,,,,,,,,,,,,,,,,,,,,,,,,,,,,,,sofi,001,b,2019_Oct_10_1446,Experimento,3.2.3,59.7270022069457,
8,14,14,999,0.5,0:10,3,Green,None,0,0,1,15:50,./completed_changuitos/montage_ohahd_179.75_153.55.jpg,left,0,0,0,0,,,,,0,6,6,6,,,,,,,,,0,0,0,0,0,15,15,15,,,,,,,,,,,,,,,,,,298.83431244078963,None,None,1,298.83431244078963,None,,,,,,,,,,,,,,,,,,,,,,,,,,,,,,,,,,,,,,,,,,,,,,,,,,,,,,,,,,,,,sofi,001,b,2019_Oct_10_1446,Experimento,3.2.3,59.7270022069457,
8,14,14,999,0.5,0:10,3,Yellow,['space'],0,0,1,15:50,./completed_changuitos/montage_ohahd_179.75_153.55.jpg,left,0,0,0,0,,,,,0,6,6,6,,,,,,,,,0,0,0,0,0,16,16,16,,,,,,,,,,,,,,,,,,298.83431244078963,None,None,0,298.83431244078963,None,,,,,,,,,,,,,,,,,,,,,,,,,,,,,,,,,,,,,,,,,,,,,,,,,,,,,,,,,,,,,sofi,001,b,2019_Oct_10_1446,Experimento,3.2.3,59.7270022069457,
8,14,14,999,0.5,0:10,3,Blue,None,0,0,1,15:50,./completed_changuitos/montage_ohahd_179.75_153.55.jpg,left,0,0,0,0,,,,,0,6,6,6,,,,,,,,,0,0,0,0,0,17,17,17,,,,,,,,,,,,,,,,,,298.85103655768904,None,None,1,298.85103655768904,None,,,,,,,,,,,,,,,,,,,,,,,,,,,,,,,,,,,,,,,,,,,,,,,,,,,,,,,,,,,,,sofi,001,b,2019_Oct_10_1446,Experimento,3.2.3,59.7270022069457,
8,14,14,999,0.5,0:10,3,Cyan,None,0,0,1,15:50,./completed_changuitos/montage_ohahd_179.75_153.55.jpg,left,0,0,0,0,,,,,0,6,6,6,,,,,,,,,0,0,0,0,0,18,18,18,,,,,,,,,,,,,,,,,,298.85103655768904,None,None,1,298.85103655768904,None,,,,,,,,,,,,,,,,,,,,,,,,,,,,,,,,,,,,,,,,,,,,,,,,,,,,,,,,,,,,,sofi,001,b,2019_Oct_10_1446,Experimento,3.2.3,59.7270022069457,
8,14,14,999,0.5,0:10,3,Blue,['space'],0,0,1,15:50,./completed_changuitos/montage_ohahd_179.75_153.55.jpg,left,0,0,0,0,,,,,0,6,6,6,,,,,,,,,0,0,0,0,0,19,19,19,,,,,,,,,,,,,,,,,,298.85103655768904,None,None,0,298.85103655768904,None,,,,,,,,,,,,,,,,,,,,,,,,,,,,,,,,,,,,,,,,,,,,,,,,,,,,,,,,,,,,,sofi,001,b,2019_Oct_10_1446,Experimento,3.2.3,59.7270022069457,
8,14,14,999,0.5,0:10,3,Yellow,None,0,0,1,15:50,./completed_changuitos/montage_ohahd_179.75_153.55.jpg,left,0,0,0,0,,,,,0,6,6,6,,,,,,,,,0,0,0,0,0,20,20,20,,,,,,,,,,,,,,,,,,298.85103655768904,None,None,1,298.85103655768904,None,,,,,,,,,,,,,,,,,,,,,,,,,,,,,,,,,,,,,,,,,,,,,,,,,,,,,,,,,,,,,sofi,001,b,2019_Oct_10_1446,Experimento,3.2.3,59.7270022069457,
8,14,14,999,0.5,0:10,3,Cyan,None,0,0,1,15:50,./completed_changuitos/montage_ohahd_179.75_153.55.jpg,left,0,0,0,0,,,,,0,6,6,6,,,,,,,,,0,0,0,0,0,21,21,21,,,,,,,,,,,,,,,,,,298.85103655768904,None,None,1,298.85103655768904,None,,,,,,,,,,,,,,,,,,,,,,,,,,,,,,,,,,,,,,,,,,,,,,,,,,,,,,,,,,,,,sofi,001,b,2019_Oct_10_1446,Experimento,3.2.3,59.7270022069457,
8,14,14,999,0.5,0:10,3,Yellow,['space'],0,0,1,15:50,./completed_changuitos/montage_ohahd_179.75_153.55.jpg,left,0,0,0,0,,,,,0,6,6,6,,,,,,,,,0,0,0,0,0,22,22,22,,,,,,,,,,,,,,,,,,298.85103655768904,None,None,0,298.85103655768904,None,,,,,,,,,,,,,,,,,,,,,,,,,,,,,,,,,,,,,,,,,,,,,,,,,,,,,,,,,,,,,sofi,001,b,2019_Oct_10_1446,Experimento,3.2.3,59.7270022069457,
8,14,14,999,0.5,0:10,3,Magenta,None,0,0,1,15:50,./completed_changuitos/montage_ohahd_179.75_153.55.jpg,left,0,0,0,0,,,,,0,6,6,6,,,,,,,,,0,0,0,0,0,23,23,23,,,,,,,,,,,,,,,,,,298.85103655768904,None,None,1,298.85103655768904,None,,,,,,,,,,,,,,,,,,,,,,,,,,,,,,,,,,,,,,,,,,,,,,,,,,,,,,,,,,,,,sofi,001,b,2019_Oct_10_1446,Experimento,3.2.3,59.7270022069457,
8,14,14,999,0.5,0:10,3,Red,None,0,0,1,15:50,./completed_changuitos/montage_ohahd_179.75_153.55.jpg,left,0,0,0,0,,,,,0,6,6,6,,,,,,,,,0,0,0,0,0,24,24,24,,,,,,,,,,,,,,,,,,298.85103655768904,None,None,1,298.85103655768904,None,,,,,,,,,,,,,,,,,,,,,,,,,,,,,,,,,,,,,,,,,,,,,,,,,,,,,,,,,,,,,sofi,001,b,2019_Oct_10_1446,Experimento,3.2.3,59.7270022069457,
8,14,14,999,0.5,0:10,3,Magenta,['space'],0,0,1,15:50,./completed_changuitos/montage_ohahd_179.75_153.55.jpg,left,0,0,0,0,,,,,0,6,6,6,,,,,,,,,0,0,0,0,0,25,25,25,,,,,,,,,,,,,,,,,,298.85103655768904,None,None,0,298.85103655768904,None,,,,,,,,,,,,,,,,,,,,,,,,,,,,,,,,,,,,,,,,,,,,,,,,,,,,,,,,,,,,,sofi,001,b,2019_Oct_10_1446,Experimento,3.2.3,59.7270022069457,
8,14,14,999,0.5,0:10,3,Red,['space'],0,0,1,15:50,./completed_changuitos/montage_ohahd_179.75_153.55.jpg,left,0,0,0,0,,,,,0,6,6,6,,,,,,,,,0,0,0,0,0,26,26,26,,,,,,,,,,,,,,,,,,298.85103655768904,None,None,0,298.85103655768904,None,,,,,,,,,,,,,,,,,,,,,,,,,,,,,,,,,,,,,,,,,,,,,,,,,,,,,,,,,,,,,sofi,001,b,2019_Oct_10_1446,Experimento,3.2.3,59.7270022069457,
8,14,14,999,0.5,0:10,3,Yellow,None,0,0,1,15:50,./completed_changuitos/montage_ohahd_179.75_153.55.jpg,left,0,0,0,0,,,,,0,6,6,6,,,,,,,,,0,0,0,0,0,27,27,27,,,,,,,,,,,,,,,,,,298.85103655768904,None,None,1,298.85103655768904,None,,,,,,,,,,,,,,,,,,,,,,,,,,,,,,,,,,,,,,,,,,,,,,,,,,,,,,,,,,,,,sofi,001,b,2019_Oct_10_1446,Experimento,3.2.3,59.7270022069457,
8,14,14,999,0.5,0:10,3,Cyan,None,0,0,1,15:50,./completed_changuitos/montage_ohahd_179.75_153.55.jpg,left,0,0,0,0,,,,,0,6,6,6,,,,,,,,,0,0,0,0,0,28,28,28,,,,,,,,,,,,,,,,,,298.85103655768904,None,None,1,298.85103655768904,None,,,,,,,,,,,,,,,,,,,,,,,,,,,,,,,,,,,,,,,,,,,,,,,,,,,,,,,,,,,,,sofi,001,b,2019_Oct_10_1446,Experimento,3.2.3,59.7270022069457,
8,14,14,999,0.5,0:10,3,Green,None,0,0,1,15:50,./completed_changuitos/montage_ohahd_179.75_153.55.jpg,left,0,0,0,0,,,,,0,6,6,6,,,,,,,,,0,0,0,0,0,29,29,29,,,,,,,,,,,,,,,,,,298.85103655768904,None,None,1,298.85103655768904,None,,,,,,,,,,,,,,,,,,,,,,,,,,,,,,,,,,,,,,,,,,,,,,,,,,,,,,,,,,,,,sofi,001,b,2019_Oct_10_1446,Experimento,3.2.3,59.7270022069457,
8,14,14,999,0.5,0:10,3,White,None,0,0,1,15:50,./completed_changuitos/montage_ohahd_179.75_153.55.jpg,left,0,0,0,0,,,,,0,6,6,6,,,,,,,,,0,0,0,0,0,30,30,30,,,,,,,,,,,,,,,,,,298.8677606745885,None,None,1,298.8677606745885,None,,,,,,,,,,,,,,,,,,,,,,,,,,,,,,,,,,,,,,,,,,,,,,,,,,,,,,,,,,,,,sofi,001,b,2019_Oct_10_1446,Experimento,3.2.3,59.7270022069457,
8,14,14,999,0.5,0:10,3,Green,['space'],0,0,1,15:50,./completed_changuitos/montage_ohahd_179.75_153.55.jpg,left,0,0,0,0,,,,,0,6,6,6,,,,,,,,,0,0,0,0,0,31,31,31,,,,,,,,,,,,,,,,,,298.8677606745885,None,None,0,298.8677606745885,None,,,,,,,,,,,,,,,,,,,,,,,,,,,,,,,,,,,,,,,,,,,,,,,,,,,,,,,,,,,,,sofi,001,b,2019_Oct_10_1446,Experimento,3.2.3,59.7270022069457,
8,14,14,999,0.5,0:10,3,Red,None,0,0,1,15:50,./completed_changuitos/montage_ohahd_179.75_153.55.jpg,left,0,0,0,0,,,,,0,6,6,6,,,,,,,,,0,0,0,0,0,32,32,32,,,,,,,,,,,,,,,,,,298.8677606745885,None,None,1,298.8677606745885,None,,,,,,,,,,,,,,,,,,,,,,,,,,,,,,,,,,,,,,,,,,,,,,,,,,,,,,,,,,,,,sofi,001,b,2019_Oct_10_1446,Experimento,3.2.3,59.7270022069457,
8,14,14,999,0.5,0:10,3,Blue,None,0,0,1,15:50,./completed_changuitos/montage_ohahd_179.75_153.55.jpg,left,0,0,0,0,,,,,0,6,6,6,,,,,,,,,0,0,0,0,0,33,33,33,,,,,,,,,,,,,,,,,,298.8677606745885,None,None,1,298.8677606745885,None,,,,,,,,,,,,,,,,,,,,,,,,,,,,,,,,,,,,,,,,,,,,,,,,,,,,,,,,,,,,,sofi,001,b,2019_Oct_10_1446,Experimento,3.2.3,59.7270022069457,
8,14,14,999,0.5,0:10,3,Green,None,0,0,1,15:50,./completed_changuitos/montage_ohahd_179.75_153.55.jpg,left,0,0,0,0,,,,,0,6,6,6,,,,,,,,,0,0,0,0,0,34,34,34,,,,,,,,,,,,,,,,,,298.8677606745885,None,None,1,298.8677606745885,None,,,,,,,,,,,,,,,,,,,,,,,,,,,,,,,,,,,,,,,,,,,,,,,,,,,,,,,,,,,,,sofi,001,b,2019_Oct_10_1446,Experimento,3.2.3,59.7270022069457,
8,14,14,999,0.5,0:10,3,,,0,0,1,15:50,./completed_changuitos/montage_ohahd_179.75_153.55.jpg,left,0,0,0,0,,,,,0,6,6,6,,,,,,,,,0,0,0,0,,,,,,,,,,,,,,,,,,,,,,,,,,,,,298.8956464199873,None,left,1,1.3872490530047799,298.8956464199873,None,298.8956464199873,None,,,,,,,,,,,,,,,,,,,,,,,,,,,,,,,,,,,,,,,,,,,,,,,,,,,sofi,001,b,2019_Oct_10_1446,Experimento,3.2.3,59.7270022069457,
8,14,14,999,0.5,0:10,3,,,0,0,1,15:50,,,0,0,0,0,,,,,0,6,6,6,,,,,,,,,,,,,,,,,,,,,,,,,,,,,,,,,,,,,,,,,,,,,,,,,,,,,,,,,,,,,,,,,,,,,,,,,,,,,,,,,,,,,,,,,,,,,,,,,,,,sofi,001,b,2019_Oct_10_1446,Experimento,3.2.3,59.7270022069457,
8,14,14,999,0.5,0:10,3,,,0,1,0,19:50,./completed_changuitos/montage_eedsv_88.95_102.19.jpg,right,0,0,0,0,,,,,0,7,7,7,,,,,0,0,0,0,,,,,,,,,,,,,,,,,,,,,,,,,,,,,,,,,,,,,,,,,,300.42690282499825,301.94980622398725,301.94980622398725,309.96374578798714,309.96374578798714,323.9752344699955,left,0,1.317125411995221,323.9752344699955,None,323.9752344699955,None,323.9752344699955,None,,,,,,,,,,,,,,,,,,,,,,,,,,,,,,,,,,,,sofi,001,b,2019_Oct_10_1446,Experimento,3.2.3,59.7270022069457,
8,14,14,999,0.5,0:10,3,,,0,1,0,19:50,,,0,0,0,0,,,,,0,7,7,7,,,,,,,,,,,,,,,,,,,,,,,,,,,,,,,,,,,,,,,,,,,,,,,,,,,,,,,,,,,,,,,,,,,,,,,,,,,,,,,,,,,,,,,,,,,,,,,,,,,,sofi,001,b,2019_Oct_10_1446,Experimento,3.2.3,59.7270022069457,
8,14,14,999,0.5,0:10,3,Magenta,None,0,0,1,20:50,./completed_changuitos/montage_mmgft_65.29_57.69.jpg,left,0,0,0,0,,,,,0,8,8,8,,,,,,,,,0,0,0,0,0,0,0,0,,,,,,,,,,,,,,325.4246274729958,327.907596894991,327.907596894991,None,335.9502774749999,336.45467457998893,None,1,335.9502774749999,None,,,,,,,,,,,,,,,,,,,,,,,,,,,,,,,,,,,,,,,,,,,,,,,,,,,,,,,,,,,,,sofi,001,b,2019_Oct_10_1446,Experimento,3.2.3,59.7270022069457,
8,14,14,999,0.5,0:10,3,Blue,['space'],0,0,1,20:50,./completed_changuitos/montage_mmgft_65.29_57.69.jpg,left,0,0,0,0,,,,,0,8,8,8,,,,,,,,,0,0,0,0,0,1,1,1,,,,,,,,,,,,,,,,,,337.95377088399255,338.4539749479882,None,0,337.95377088399255,337.95377088399255,,,,,,,,,,,,,,,,,,,,,,,,,,,,,,,,,,,,,,,,,,,,,,,,,,,,,,,,,,,,,sofi,001,b,2019_Oct_10_1446,Experimento,3.2.3,59.7270022069457,
8,14,14,999,0.5,0:10,3,Cyan,None,0,0,1,20:50,./completed_changuitos/montage_mmgft_65.29_57.69.jpg,left,0,0,0,0,,,,,0,8,8,8,,,,,,,,,0,0,0,0,0,2,2,2,,,,,,,,,,,,,,,,,,339.95343375299126,340.453296415988,None,1,339.95343375299126,339.95343375299126,,,,,,,,,,,,,,,,,,,,,,,,,,,,,,,,,,,,,,,,,,,,,,,,,,,,,,,,,,,,,sofi,001,b,2019_Oct_10_1446,Experimento,3.2.3,59.7270022069457,
8,14,14,999,0.5,0:10,3,Yellow,None,0,0,1,20:50,./completed_changuitos/montage_mmgft_65.29_57.69.jpg,left,0,0,0,0,,,,,0,8,8,8,,,,,,,,,0,0,0,0,0,3,3,3,,,,,,,,,,,,,,,,,,341.9527610649966,342.45264721299463,None,1,341.9527610649966,341.9527610649966,,,,,,,,,,,,,,,,,,,,,,,,,,,,,,,,,,,,,,,,,,,,,,,,,,,,,,,,,,,,,sofi,001,b,2019_Oct_10_1446,Experimento,3.2.3,59.7270022069457,
8,14,14,999,0.5,0:10,3,Cyan,None,0,0,1,20:50,./completed_changuitos/montage_mmgft_65.29_57.69.jpg,left,0,0,0,0,,,,,0,8,8,8,,,,,,,,,0,0,0,0,0,4,4,4,,,,,,,,,,,,,,,,,,343.95206618099473,344.4519445679907,['return'],0,343.95206618099473,343.95206618099473,[0.9670658529939828],,,,,,,,,,,,,,,,,,,,,,,,,,,,,,,,,,,,,,,,,,,,,,,,,,,,,,,,,,,,sofi,001,b,2019_Oct_10_1446,Experimento,3.2.3,59.7270022069457,
8,14,14,999,0.5,0:10,3,Blue,None,0,0,1,20:50,./completed_changuitos/montage_mmgft_65.29_57.69.jpg,left,0,0,0,0,,,,,0,8,8,8,,,,,,,,,0,0,0,0,0,5,5,5,,,,,,,,,,,,,,,,,,345.95129549098783,346.4512946249888,None,1,345.95129549098783,345.95129549098783,,,,,,,,,,,,,,,,,,,,,,,,,,,,,,,,,,,,,,,,,,,,,,,,,,,,,,,,,,,,,sofi,001,b,2019_Oct_10_1446,Experimento,3.2.3,59.7270022069457,
8,14,14,999,0.5,0:10,3,Cyan,['space'],0,0,1,20:50,./completed_changuitos/montage_mmgft_65.29_57.69.jpg,left,0,0,0,0,,,,,0,8,8,8,,,,,,,,,0,0,0,0,0,6,6,6,,,,,,,,,,,,,,,,,,347.95066165599565,348.45062729799247,['return'],0,347.95066165599565,347.95066165599565,[0.38390310600516386],,,,,,,,,,,,,,,,,,,,,,,,,,,,,,,,,,,,,,,,,,,,,,,,,,,,,,,,,,,,sofi,001,b,2019_Oct_10_1446,Experimento,3.2.3,59.7270022069457,
8,14,14,999,0.5,0:10,3,Magenta,None,0,0,1,20:50,./completed_changuitos/montage_mmgft_65.29_57.69.jpg,left,0,0,0,0,,,,,0,8,8,8,,,,,,,,,0,0,0,0,0,7,7,7,,,,,,,,,,,,,,,,,,349.93349167489504,None,None,1,349.93349167489504,None,,,,,,,,,,,,,,,,,,,,,,,,,,,,,,,,,,,,,,,,,,,,,,,,,,,,,,,,,,,,,sofi,001,b,2019_Oct_10_1446,Experimento,3.2.3,59.7270022069457,
8,14,14,999,0.5,0:10,3,Red,None,0,0,1,20:50,./completed_changuitos/montage_mmgft_65.29_57.69.jpg,left,0,0,0,0,,,,,0,8,8,8,,,,,,,,,0,0,0,0,0,8,8,8,,,,,,,,,,,,,,,,,,349.93349167489504,None,None,1,349.93349167489504,None,,,,,,,,,,,,,,,,,,,,,,,,,,,,,,,,,,,,,,,,,,,,,,,,,,,,,,,,,,,,,sofi,001,b,2019_Oct_10_1446,Experimento,3.2.3,59.7270022069457,
8,14,14,999,0.5,0:10,3,Magenta,['space'],0,0,1,20:50,./completed_changuitos/montage_mmgft_65.29_57.69.jpg,left,0,0,0,0,,,,,0,8,8,8,,,,,,,,,0,0,0,0,0,9,9,9,,,,,,,,,,,,,,,,,,349.93349167489504,None,None,0,349.93349167489504,None,,,,,,,,,,,,,,,,,,,,,,,,,,,,,,,,,,,,,,,,,,,,,,,,,,,,,,,,,,,,,sofi,001,b,2019_Oct_10_1446,Experimento,3.2.3,59.7270022069457,
8,14,14,999,0.5,0:10,3,Green,None,0,0,1,20:50,./completed_changuitos/montage_mmgft_65.29_57.69.jpg,left,0,0,0,0,,,,,0,8,8,8,,,,,,,,,0,0,0,0,0,10,10,10,,,,,,,,,,,,,,,,,,349.93349167489504,None,None,1,349.93349167489504,None,,,,,,,,,,,,,,,,,,,,,,,,,,,,,,,,,,,,,,,,,,,,,,,,,,,,,,,,,,,,,sofi,001,b,2019_Oct_10_1446,Experimento,3.2.3,59.7270022069457,
8,14,14,999,0.5,0:10,3,Yellow,['space'],0,0,1,20:50,./completed_changuitos/montage_mmgft_65.29_57.69.jpg,left,0,0,0,0,,,,,0,8,8,8,,,,,,,,,0,0,0,0,0,11,11,11,,,,,,,,,,,,,,,,,,349.95021579179445,None,None,0,349.95021579179445,None,,,,,,,,,,,,,,,,,,,,,,,,,,,,,,,,,,,,,,,,,,,,,,,,,,,,,,,,,,,,,sofi,001,b,2019_Oct_10_1446,Experimento,3.2.3,59.7270022069457,
8,14,14,999,0.5,0:10,3,Blue,None,0,0,1,20:50,./completed_changuitos/montage_mmgft_65.29_57.69.jpg,left,0,0,0,0,,,,,0,8,8,8,,,,,,,,,0,0,0,0,0,12,12,12,,,,,,,,,,,,,,,,,,349.95021579179445,None,None,1,349.95021579179445,None,,,,,,,,,,,,,,,,,,,,,,,,,,,,,,,,,,,,,,,,,,,,,,,,,,,,,,,,,,,,,sofi,001,b,2019_Oct_10_1446,Experimento,3.2.3,59.7270022069457,
8,14,14,999,0.5,0:10,3,Cyan,None,0,0,1,20:50,./completed_changuitos/montage_mmgft_65.29_57.69.jpg,left,0,0,0,0,,,,,0,8,8,8,,,,,,,,,0,0,0,0,0,13,13,13,,,,,,,,,,,,,,,,,,349.95021579179445,None,None,1,349.95021579179445,None,,,,,,,,,,,,,,,,,,,,,,,,,,,,,,,,,,,,,,,,,,,,,,,,,,,,,,,,,,,,,sofi,001,b,2019_Oct_10_1446,Experimento,3.2.3,59.7270022069457,
8,14,14,999,0.5,0:10,3,Blue,['space'],0,0,1,20:50,./completed_changuitos/montage_mmgft_65.29_57.69.jpg,left,0,0,0,0,,,,,0,8,8,8,,,,,,,,,0,0,0,0,0,14,14,14,,,,,,,,,,,,,,,,,,349.95021579179445,None,None,0,349.95021579179445,None,,,,,,,,,,,,,,,,,,,,,,,,,,,,,,,,,,,,,,,,,,,,,,,,,,,,,,,,,,,,,sofi,001,b,2019_Oct_10_1446,Experimento,3.2.3,59.7270022069457,
8,14,14,999,0.5,0:10,3,Yellow,None,0,0,1,20:50,./completed_changuitos/montage_mmgft_65.29_57.69.jpg,left,0,0,0,0,,,,,0,8,8,8,,,,,,,,,0,0,0,0,0,15,15,15,,,,,,,,,,,,,,,,,,349.95021579179445,None,None,1,349.95021579179445,None,,,,,,,,,,,,,,,,,,,,,,,,,,,,,,,,,,,,,,,,,,,,,,,,,,,,,,,,,,,,,sofi,001,b,2019_Oct_10_1446,Experimento,3.2.3,59.7270022069457,
8,14,14,999,0.5,0:10,3,Cyan,None,0,0,1,20:50,./completed_changuitos/montage_mmgft_65.29_57.69.jpg,left,0,0,0,0,,,,,0,8,8,8,,,,,,,,,0,0,0,0,0,16,16,16,,,,,,,,,,,,,,,,,,349.96693990869386,None,None,1,349.96693990869386,None,,,,,,,,,,,,,,,,,,,,,,,,,,,,,,,,,,,,,,,,,,,,,,,,,,,,,,,,,,,,,sofi,001,b,2019_Oct_10_1446,Experimento,3.2.3,59.7270022069457,
8,14,14,999,0.5,0:10,3,Yellow,['space'],0,0,1,20:50,./completed_changuitos/montage_mmgft_65.29_57.69.jpg,left,0,0,0,0,,,,,0,8,8,8,,,,,,,,,0,0,0,0,0,17,17,17,,,,,,,,,,,,,,,,,,349.96693990869386,None,None,0,349.96693990869386,None,,,,,,,,,,,,,,,,,,,,,,,,,,,,,,,,,,,,,,,,,,,,,,,,,,,,,,,,,,,,,sofi,001,b,2019_Oct_10_1446,Experimento,3.2.3,59.7270022069457,
8,14,14,999,0.5,0:10,3,Magenta,None,0,0,1,20:50,./completed_changuitos/montage_mmgft_65.29_57.69.jpg,left,0,0,0,0,,,,,0,8,8,8,,,,,,,,,0,0,0,0,0,18,18,18,,,,,,,,,,,,,,,,,,349.96693990869386,None,None,1,349.96693990869386,None,,,,,,,,,,,,,,,,,,,,,,,,,,,,,,,,,,,,,,,,,,,,,,,,,,,,,,,,,,,,,sofi,001,b,2019_Oct_10_1446,Experimento,3.2.3,59.7270022069457,
8,14,14,999,0.5,0:10,3,Red,None,0,0,1,20:50,./completed_changuitos/montage_mmgft_65.29_57.69.jpg,left,0,0,0,0,,,,,0,8,8,8,,,,,,,,,0,0,0,0,0,19,19,19,,,,,,,,,,,,,,,,,,349.96693990869386,None,None,1,349.96693990869386,None,,,,,,,,,,,,,,,,,,,,,,,,,,,,,,,,,,,,,,,,,,,,,,,,,,,,,,,,,,,,,sofi,001,b,2019_Oct_10_1446,Experimento,3.2.3,59.7270022069457,
8,14,14,999,0.5,0:10,3,Magenta,['space'],0,0,1,20:50,./completed_changuitos/montage_mmgft_65.29_57.69.jpg,left,0,0,0,0,,,,,0,8,8,8,,,,,,,,,0,0,0,0,0,20,20,20,,,,,,,,,,,,,,,,,,349.96693990869386,None,None,0,349.96693990869386,None,,,,,,,,,,,,,,,,,,,,,,,,,,,,,,,,,,,,,,,,,,,,,,,,,,,,,,,,,,,,,sofi,001,b,2019_Oct_10_1446,Experimento,3.2.3,59.7270022069457,
8,14,14,999,0.5,0:10,3,Red,['space'],0,0,1,20:50,./completed_changuitos/montage_mmgft_65.29_57.69.jpg,left,0,0,0,0,,,,,0,8,8,8,,,,,,,,,0,0,0,0,0,21,21,21,,,,,,,,,,,,,,,,,,349.96693990869386,None,None,0,349.96693990869386,None,,,,,,,,,,,,,,,,,,,,,,,,,,,,,,,,,,,,,,,,,,,,,,,,,,,,,,,,,,,,,sofi,001,b,2019_Oct_10_1446,Experimento,3.2.3,59.7270022069457,
8,14,14,999,0.5,0:10,3,Yellow,None,0,0,1,20:50,./completed_changuitos/montage_mmgft_65.29_57.69.jpg,left,0,0,0,0,,,,,0,8,8,8,,,,,,,,,0,0,0,0,0,22,22,22,,,,,,,,,,,,,,,,,,349.96693990869386,None,None,1,349.96693990869386,None,,,,,,,,,,,,,,,,,,,,,,,,,,,,,,,,,,,,,,,,,,,,,,,,,,,,,,,,,,,,,sofi,001,b,2019_Oct_10_1446,Experimento,3.2.3,59.7270022069457,
8,14,14,999,0.5,0:10,3,Cyan,None,0,0,1,20:50,./completed_changuitos/montage_mmgft_65.29_57.69.jpg,left,0,0,0,0,,,,,0,8,8,8,,,,,,,,,0,0,0,0,0,23,23,23,,,,,,,,,,,,,,,,,,349.96693990869386,None,None,1,349.96693990869386,None,,,,,,,,,,,,,,,,,,,,,,,,,,,,,,,,,,,,,,,,,,,,,,,,,,,,,,,,,,,,,sofi,001,b,2019_Oct_10_1446,Experimento,3.2.3,59.7270022069457,
8,14,14,999,0.5,0:10,3,Green,None,0,0,1,20:50,./completed_changuitos/montage_mmgft_65.29_57.69.jpg,left,0,0,0,0,,,,,0,8,8,8,,,,,,,,,0,0,0,0,0,24,24,24,,,,,,,,,,,,,,,,,,349.96693990869386,None,None,1,349.96693990869386,None,,,,,,,,,,,,,,,,,,,,,,,,,,,,,,,,,,,,,,,,,,,,,,,,,,,,,,,,,,,,,sofi,001,b,2019_Oct_10_1446,Experimento,3.2.3,59.7270022069457,
8,14,14,999,0.5,0:10,3,White,None,0,0,1,20:50,./completed_changuitos/montage_mmgft_65.29_57.69.jpg,left,0,0,0,0,,,,,0,8,8,8,,,,,,,,,0,0,0,0,0,25,25,25,,,,,,,,,,,,,,,,,,349.96693990869386,None,None,1,349.96693990869386,None,,,,,,,,,,,,,,,,,,,,,,,,,,,,,,,,,,,,,,,,,,,,,,,,,,,,,,,,,,,,,sofi,001,b,2019_Oct_10_1446,Experimento,3.2.3,59.7270022069457,
8,14,14,999,0.5,0:10,3,Green,['space'],0,0,1,20:50,./completed_changuitos/montage_mmgft_65.29_57.69.jpg,left,0,0,0,0,,,,,0,8,8,8,,,,,,,,,0,0,0,0,0,26,26,26,,,,,,,,,,,,,,,,,,349.96693990869386,None,None,0,349.96693990869386,None,,,,,,,,,,,,,,,,,,,,,,,,,,,,,,,,,,,,,,,,,,,,,,,,,,,,,,,,,,,,,sofi,001,b,2019_Oct_10_1446,Experimento,3.2.3,59.7270022069457,
8,14,14,999,0.5,0:10,3,Red,None,0,0,1,20:50,./completed_changuitos/montage_mmgft_65.29_57.69.jpg,left,0,0,0,0,,,,,0,8,8,8,,,,,,,,,0,0,0,0,0,27,27,27,,,,,,,,,,,,,,,,,,349.9836640255933,None,None,1,349.9836640255933,None,,,,,,,,,,,,,,,,,,,,,,,,,,,,,,,,,,,,,,,,,,,,,,,,,,,,,,,,,,,,,sofi,001,b,2019_Oct_10_1446,Experimento,3.2.3,59.7270022069457,
8,14,14,999,0.5,0:10,3,Blue,None,0,0,1,20:50,./completed_changuitos/montage_mmgft_65.29_57.69.jpg,left,0,0,0,0,,,,,0,8,8,8,,,,,,,,,0,0,0,0,0,28,28,28,,,,,,,,,,,,,,,,,,349.9836640255933,None,None,1,349.9836640255933,None,,,,,,,,,,,,,,,,,,,,,,,,,,,,,,,,,,,,,,,,,,,,,,,,,,,,,,,,,,,,,sofi,001,b,2019_Oct_10_1446,Experimento,3.2.3,59.7270022069457,
8,14,14,999,0.5,0:10,3,Green,None,0,0,1,20:50,./completed_changuitos/montage_mmgft_65.29_57.69.jpg,left,0,0,0,0,,,,,0,8,8,8,,,,,,,,,0,0,0,0,0,29,29,29,,,,,,,,,,,,,,,,,,349.9836640255933,None,None,1,349.9836640255933,None,,,,,,,,,,,,,,,,,,,,,,,,,,,,,,,,,,,,,,,,,,,,,,,,,,,,,,,,,,,,,sofi,001,b,2019_Oct_10_1446,Experimento,3.2.3,59.7270022069457,
8,14,14,999,0.5,0:10,3,,,0,0,1,20:50,./completed_changuitos/montage_mmgft_65.29_57.69.jpg,left,0,0,0,0,,,,,0,8,8,8,,,,,,,,,0,0,0,0,,,,,,,,,,,,,,,,,,,,,,,,,,,,,350.011920637,None,left,1,1.68760310599464,350.011920637,None,350.011920637,None,,,,,,,,,,,,,,,,,,,,,,,,,,,,,,,,,,,,,,,,,,,,,,,,,,,sofi,001,b,2019_Oct_10_1446,Experimento,3.2.3,59.7270022069457,
8,14,14,999,0.5,0:10,3,,,0,0,1,20:50,,,0,0,0,0,,,,,0,8,8,8,,,,,,,,,,,,,,,,,,,,,,,,,,,,,,,,,,,,,,,,,,,,,,,,,,,,,,,,,,,,,,,,,,,,,,,,,,,,,,,,,,,,,,,,,,,,,,,,,,,,sofi,001,b,2019_Oct_10_1446,Experimento,3.2.3,59.7270022069457,
8,14,14,999,0.5,0:10,3,,,0,1,0,25:50,./completed_changuitos/montage_lzdmo_32.1_36.39.jpg,right,0,0,0,0,,,,,0,9,9,9,,,,,0,0,0,0,,,,,,,,,,,,,,,,,,,,,,,,,,,,,,,,,,,,,,,,,,351.83987112699833,355.2149555199867,355.2149555199867,363.22885288798716,363.22885288798716,377.2408422679873,left,0,1.566512495992356,377.2408422679873,None,377.2408422679873,None,377.2408422679873,None,,,,,,,,,,,,,,,,,,,,,,,,,,,,,,,,,,,,sofi,001,b,2019_Oct_10_1446,Experimento,3.2.3,59.7270022069457,
8,14,14,999,0.5,0:10,3,,,0,1,0,25:50,,,0,0,0,0,,,,,0,9,9,9,,,,,,,,,,,,,,,,,,,,,,,,,,,,,,,,,,,,,,,,,,,,,,,,,,,,,,,,,,,,,,,,,,,,,,,,,,,,,,,,,,,,,,,,,,,,,,,,,,,,sofi,001,b,2019_Oct_10_1446,Experimento,3.2.3,59.7270022069457,
8,14,14,999,0.5,0:10,3,Red,None,0,0,1,28:50,./completed_changuitos/montage_grmmq_95.25_109.15.jpg,right,0,0,0,0,,,,,0,10,10,10,,,,,,,,,0,0,0,0,0,0,0,0,,,,,,,,,,,,,,378.93628666999575,382.42227743798867,382.42227743798867,None,390.4610059449915,390.9694153459859,None,1,390.4610059449915,None,,,,,,,,,,,,,,,,,,,,,,,,,,,,,,,,,,,,,,,,,,,,,,,,,,,,,,,,,,,,,sofi,001,b,2019_Oct_10_1446,Experimento,3.2.3,59.7270022069457,
8,14,14,999,0.5,0:10,3,Magenta,['space'],0,0,1,28:50,./completed_changuitos/montage_grmmq_95.25_109.15.jpg,right,0,0,0,0,,,,,0,10,10,10,,,,,,,,,0,0,0,0,0,1,1,1,,,,,,,,,,,,,,,,,,392.46887296199566,392.9687089279905,None,0,392.46887296199566,392.46887296199566,,,,,,,,,,,,,,,,,,,,,,,,,,,,,,,,,,,,,,,,,,,,,,,,,,,,,,,,,,,,,sofi,001,b,2019_Oct_10_1446,Experimento,3.2.3,59.7270022069457,
8,14,14,999,0.5,0:10,3,Green,None,0,0,1,28:50,./completed_changuitos/montage_grmmq_95.25_109.15.jpg,right,0,0,0,0,,,,,0,10,10,10,,,,,,,,,0,0,0,0,0,2,2,2,,,,,,,,,,,,,,,,,,394.4682354189863,394.9676367919892,None,1,394.4682354189863,394.4682354189863,,,,,,,,,,,,,,,,,,,,,,,,,,,,,,,,,,,,,,,,,,,,,,,,,,,,,,,,,,,,,sofi,001,b,2019_Oct_10_1446,Experimento,3.2.3,59.7270022069457,
8,14,14,999,0.5,0:10,3,Yellow,['space'],0,0,1,28:50,./completed_changuitos/montage_grmmq_95.25_109.15.jpg,right,0,0,0,0,,,,,0,10,10,10,,,,,,,,,0,0,0,0,0,3,3,3,,,,,,,,,,,,,,,,,,396.48400557799323,396.9839840779896,None,0,396.48400557799323,396.48400557799323,,,,,,,,,,,,,,,,,,,,,,,,,,,,,,,,,,,,,,,,,,,,,,,,,,,,,,,,,,,,,sofi,001,b,2019_Oct_10_1446,Experimento,3.2.3,59.7270022069457,
8,14,14,999,0.5,0:10,3,Blue,None,0,0,1,28:50,./completed_changuitos/montage_grmmq_95.25_109.15.jpg,right,0,0,0,0,,,,,0,10,10,10,,,,,,,,,0,0,0,0,0,4,4,4,,,,,,,,,,,,,,,,,,398.48306057899026,398.9833153239888,None,1,398.48306057899026,398.48306057899026,,,,,,,,,,,,,,,,,,,,,,,,,,,,,,,,,,,,,,,,,,,,,,,,,,,,,,,,,,,,,sofi,001,b,2019_Oct_10_1446,Experimento,3.2.3,59.7270022069457,
8,14,14,999,0.5,0:10,3,Cyan,None,0,0,1,28:50,./completed_changuitos/montage_grmmq_95.25_109.15.jpg,right,0,0,0,0,,,,,0,10,10,10,,,,,,,,,0,0,0,0,0,5,5,5,,,,,,,,,,,,,,,,,,400.48237914498895,400.9826509299892,None,1,400.48237914498895,400.48237914498895,,,,,,,,,,,,,,,,,,,,,,,,,,,,,,,,,,,,,,,,,,,,,,,,,,,,,,,,,,,,,sofi,001,b,2019_Oct_10_1446,Experimento,3.2.3,59.7270022069457,
8,14,14,999,0.5,0:10,3,Blue,['space'],0,0,1,28:50,./completed_changuitos/montage_grmmq_95.25_109.15.jpg,right,0,0,0,0,,,,,0,10,10,10,,,,,,,,,0,0,0,0,0,6,6,6,,,,,,,,,,,,,,,,,,402.48211817999254,402.9819771099865,['return'],0,402.48211817999254,402.48211817999254,[0.7845146789913997],,,,,,,,,,,,,,,,,,,,,,,,,,,,,,,,,,,,,,,,,,,,,,,,,,,,,,,,,,,,sofi,001,b,2019_Oct_10_1446,Experimento,3.2.3,59.7270022069457,
8,14,14,999,0.5,0:10,3,Yellow,None,0,0,1,28:50,./completed_changuitos/montage_grmmq_95.25_109.15.jpg,right,0,0,0,0,,,,,0,10,10,10,,,,,,,,,0,0,0,0,0,7,7,7,,,,,,,,,,,,,,,,,,404.44810882088785,None,None,1,404.44810882088785,None,,,,,,,,,,,,,,,,,,,,,,,,,,,,,,,,,,,,,,,,,,,,,,,,,,,,,,,,,,,,,sofi,001,b,2019_Oct_10_1446,Experimento,3.2.3,59.7270022069457,
8,14,14,999,0.5,0:10,3,Cyan,None,0,0,1,28:50,./completed_changuitos/montage_grmmq_95.25_109.15.jpg,right,0,0,0,0,,,,,0,10,10,10,,,,,,,,,0,0,0,0,0,8,8,8,,,,,,,,,,,,,,,,,,404.44810882088785,None,None,1,404.44810882088785,None,,,,,,,,,,,,,,,,,,,,,,,,,,,,,,,,,,,,,,,,,,,,,,,,,,,,,,,,,,,,,sofi,001,b,2019_Oct_10_1446,Experimento,3.2.3,59.7270022069457,
8,14,14,999,0.5,0:10,3,Yellow,['space'],0,0,1,28:50,./completed_changuitos/montage_grmmq_95.25_109.15.jpg,right,0,0,0,0,,,,,0,10,10,10,,,,,,,,,0,0,0,0,0,9,9,9,,,,,,,,,,,,,,,,,,404.44810882088785,None,None,0,404.44810882088785,None,,,,,,,,,,,,,,,,,,,,,,,,,,,,,,,,,,,,,,,,,,,,,,,,,,,,,,,,,,,,,sofi,001,b,2019_Oct_10_1446,Experimento,3.2.3,59.7270022069457,
8,14,14,999,0.5,0:10,3,Magenta,None,0,0,1,28:50,./completed_changuitos/montage_grmmq_95.25_109.15.jpg,right,0,0,0,0,,,,,0,10,10,10,,,,,,,,,0,0,0,0,0,10,10,10,,,,,,,,,,,,,,,,,,404.44810882088785,None,None,1,404.44810882088785,None,,,,,,,,,,,,,,,,,,,,,,,,,,,,,,,,,,,,,,,,,,,,,,,,,,,,,,,,,,,,,sofi,001,b,2019_Oct_10_1446,Experimento,3.2.3,59.7270022069457,
8,14,14,999,0.5,0:10,3,Red,None,0,0,1,28:50,./completed_changuitos/montage_grmmq_95.25_109.15.jpg,right,0,0,0,0,,,,,0,10,10,10,,,,,,,,,0,0,0,0,0,11,11,11,,,,,,,,,,,,,,,,,,404.46483293778726,None,None,1,404.46483293778726,None,,,,,,,,,,,,,,,,,,,,,,,,,,,,,,,,,,,,,,,,,,,,,,,,,,,,,,,,,,,,,sofi,001,b,2019_Oct_10_1446,Experimento,3.2.3,59.7270022069457,
8,14,14,999,0.5,0:10,3,Magenta,['space'],0,0,1,28:50,./completed_changuitos/montage_grmmq_95.25_109.15.jpg,right,0,0,0,0,,,,,0,10,10,10,,,,,,,,,0,0,0,0,0,12,12,12,,,,,,,,,,,,,,,,,,404.46483293778726,None,None,0,404.46483293778726,None,,,,,,,,,,,,,,,,,,,,,,,,,,,,,,,,,,,,,,,,,,,,,,,,,,,,,,,,,,,,,sofi,001,b,2019_Oct_10_1446,Experimento,3.2.3,59.7270022069457,
8,14,14,999,0.5,0:10,3,Red,['space'],0,0,1,28:50,./completed_changuitos/montage_grmmq_95.25_109.15.jpg,right,0,0,0,0,,,,,0,10,10,10,,,,,,,,,0,0,0,0,0,13,13,13,,,,,,,,,,,,,,,,,,404.46483293778726,None,None,0,404.46483293778726,None,,,,,,,,,,,,,,,,,,,,,,,,,,,,,,,,,,,,,,,,,,,,,,,,,,,,,,,,,,,,,sofi,001,b,2019_Oct_10_1446,Experimento,3.2.3,59.7270022069457,
8,14,14,999,0.5,0:10,3,Yellow,None,0,0,1,28:50,./completed_changuitos/montage_grmmq_95.25_109.15.jpg,right,0,0,0,0,,,,,0,10,10,10,,,,,,,,,0,0,0,0,0,14,14,14,,,,,,,,,,,,,,,,,,404.46483293778726,None,None,1,404.46483293778726,None,,,,,,,,,,,,,,,,,,,,,,,,,,,,,,,,,,,,,,,,,,,,,,,,,,,,,,,,,,,,,sofi,001,b,2019_Oct_10_1446,Experimento,3.2.3,59.7270022069457,
8,14,14,999,0.5,0:10,3,Cyan,None,0,0,1,28:50,./completed_changuitos/montage_grmmq_95.25_109.15.jpg,right,0,0,0,0,,,,,0,10,10,10,,,,,,,,,0,0,0,0,0,15,15,15,,,,,,,,,,,,,,,,,,404.46483293778726,None,None,1,404.46483293778726,None,,,,,,,,,,,,,,,,,,,,,,,,,,,,,,,,,,,,,,,,,,,,,,,,,,,,,,,,,,,,,sofi,001,b,2019_Oct_10_1446,Experimento,3.2.3,59.7270022069457,
8,14,14,999,0.5,0:10,3,Green,None,0,0,1,28:50,./completed_changuitos/montage_grmmq_95.25_109.15.jpg,right,0,0,0,0,,,,,0,10,10,10,,,,,,,,,0,0,0,0,0,16,16,16,,,,,,,,,,,,,,,,,,404.46483293778726,None,None,1,404.46483293778726,None,,,,,,,,,,,,,,,,,,,,,,,,,,,,,,,,,,,,,,,,,,,,,,,,,,,,,,,,,,,,,sofi,001,b,2019_Oct_10_1446,Experimento,3.2.3,59.7270022069457,
8,14,14,999,0.5,0:10,3,White,None,0,0,1,28:50,./completed_changuitos/montage_grmmq_95.25_109.15.jpg,right,0,0,0,0,,,,,0,10,10,10,,,,,,,,,0,0,0,0,0,17,17,17,,,,,,,,,,,,,,,,,,404.4815570546867,None,None,1,404.4815570546867,None,,,,,,,,,,,,,,,,,,,,,,,,,,,,,,,,,,,,,,,,,,,,,,,,,,,,,,,,,,,,,sofi,001,b,2019_Oct_10_1446,Experimento,3.2.3,59.7270022069457,
8,14,14,999,0.5,0:10,3,Green,['space'],0,0,1,28:50,./completed_changuitos/montage_grmmq_95.25_109.15.jpg,right,0,0,0,0,,,,,0,10,10,10,,,,,,,,,0,0,0,0,0,18,18,18,,,,,,,,,,,,,,,,,,404.4815570546867,None,None,0,404.4815570546867,None,,,,,,,,,,,,,,,,,,,,,,,,,,,,,,,,,,,,,,,,,,,,,,,,,,,,,,,,,,,,,sofi,001,b,2019_Oct_10_1446,Experimento,3.2.3,59.7270022069457,
8,14,14,999,0.5,0:10,3,Red,None,0,0,1,28:50,./completed_changuitos/montage_grmmq_95.25_109.15.jpg,right,0,0,0,0,,,,,0,10,10,10,,,,,,,,,0,0,0,0,0,19,19,19,,,,,,,,,,,,,,,,,,404.4815570546867,None,None,1,404.4815570546867,None,,,,,,,,,,,,,,,,,,,,,,,,,,,,,,,,,,,,,,,,,,,,,,,,,,,,,,,,,,,,,sofi,001,b,2019_Oct_10_1446,Experimento,3.2.3,59.7270022069457,
8,14,14,999,0.5,0:10,3,Blue,None,0,0,1,28:50,./completed_changuitos/montage_grmmq_95.25_109.15.jpg,right,0,0,0,0,,,,,0,10,10,10,,,,,,,,,0,0,0,0,0,20,20,20,,,,,,,,,,,,,,,,,,404.4815570546867,None,None,1,404.4815570546867,None,,,,,,,,,,,,,,,,,,,,,,,,,,,,,,,,,,,,,,,,,,,,,,,,,,,,,,,,,,,,,sofi,001,b,2019_Oct_10_1446,Experimento,3.2.3,59.7270022069457,
8,14,14,999,0.5,0:10,3,Green,None,0,0,1,28:50,./completed_changuitos/montage_grmmq_95.25_109.15.jpg,right,0,0,0,0,,,,,0,10,10,10,,,,,,,,,0,0,0,0,0,21,21,21,,,,,,,,,,,,,,,,,,404.4815570546867,None,None,1,404.4815570546867,None,,,,,,,,,,,,,,,,,,,,,,,,,,,,,,,,,,,,,,,,,,,,,,,,,,,,,,,,,,,,,sofi,001,b,2019_Oct_10_1446,Experimento,3.2.3,59.7270022069457,
8,14,14,999,0.5,0:10,3,,,0,0,1,28:50,./completed_changuitos/montage_grmmq_95.25_109.15.jpg,right,0,0,0,0,,,,,0,10,10,10,,,,,,,,,0,0,0,0,,,,,,,,,,,,,,,,,,,,,,,,,,,,,404.51617793198966,None,right,1,2.731297712001833,404.51617793198966,None,404.51617793198966,None,,,,,,,,,,,,,,,,,,,,,,,,,,,,,,,,,,,,,,,,,,,,,,,,,,,sofi,001,b,2019_Oct_10_1446,Experimento,3.2.3,59.7270022069457,
8,14,14,999,0.5,0:10,3,,,0,0,1,28:50,,,0,0,0,0,,,,,0,10,10,10,,,,,,,,,,,,,,,,,,,,,,,,,,,,,,,,,,,,,,,,,,,,,,,,,,,,,,,,,,,,,,,,,,,,,,,,,,,,,,,,,,,,,,,,,,,,,,,,,,,,sofi,001,b,2019_Oct_10_1446,Experimento,3.2.3,59.7270022069457,
8,14,14,999,0.5,0:10,3,,,0,1,0,10:50,./completed_changuitos/montage_sayhj_81.85_96.3.jpg,right,0,0,0,0,,,,,0,11,11,11,,,,,0,0,0,0,,,,,,,,,,,,,,,,,,,,,,,,,,,,,,,,,,,,,,,,,,407.38877282998874,409.42976989199815,409.42976989199815,417.4436534879933,417.4436534879933,431.4555213509884,right,1,1.0679304060031427,431.4555213509884,None,431.4555213509884,None,431.4555213509884,None,,,,,,,,,,,,,,,,,,,,,,,,,,,,,,,,,,,,sofi,001,b,2019_Oct_10_1446,Experimento,3.2.3,59.7270022069457,
8,14,14,999,0.5,0:10,3,,,0,1,0,10:50,,,0,0,0,0,,,,,0,11,11,11,,,,,,,,,,,,,,,,,,,,,,,,,,,,,,,,,,,,,,,,,,,,,,,,,,,,,,,,,,,,,,,,,,,,,,,,,,,,,,,,,,,,,,,,,,,,,,,,,,,,sofi,001,b,2019_Oct_10_1446,Experimento,3.2.3,59.7270022069457,
8,14,14,999,0.5,0:10,3,,,1,0,0,30:50,./completed_changuitos/montage_bngmd_447.25_390.0.jpg,left,0,0,0,0,,,,,0,12,12,12,0,0,0,0,,,,,,,,,,,,,,,,,,,,,,,,,,,,,,,,,,,,,,,,,,,,,,,,,,,,,,,,,,,,,433.1549464159907,434.1546321729984,434.1546321729984,442.16859926999314,right,0,0.8827490800031228,442.16859926999314,None,442.16859926999314,None,442.16859926999314,None,,,,,,,,,,,,,,,,,,,,,,,sofi,001,b,2019_Oct_10_1446,Experimento,3.2.3,59.7270022069457,
8,14,14,999,0.5,0:10,3,,,1,0,0,30:50,,,0,0,0,0,,,,,0,12,12,12,,,,,,,,,,,,,,,,,,,,,,,,,,,,,,,,,,,,,,,,,,,,,,,,,,,,,,,,,,,,,,,,,,,,,,,,,,,,,,,,,,,,,,,,,,,,,,,,,,,,sofi,001,b,2019_Oct_10_1446,Experimento,3.2.3,59.7270022069457,
8,14,14,999,0.5,0:10,3,,,1,0,0,32:50,./completed_changuitos/montage_yyalg_243.95_212.29.jpg,left,0,0,0,0,,,,,0,13,13,13,0,0,0,0,,,,,,,,,,,,,,,,,,,,,,,,,,,,,,,,,,,,,,,,,,,,,,,,,,,,,,,,,,,,,443.684709669993,444.55104617799225,444.55104617799225,452.5645972709899,right,0,0.649971746999654,452.5645972709899,None,452.5645972709899,None,452.5645972709899,None,,,,,,,,,,,,,,,,,,,,,,,sofi,001,b,2019_Oct_10_1446,Experimento,3.2.3,59.7270022069457,
8,14,14,999,0.5,0:10,3,,,1,0,0,32:50,,,0,0,0,0,,,,,0,13,13,13,,,,,,,,,,,,,,,,,,,,,,,,,,,,,,,,,,,,,,,,,,,,,,,,,,,,,,,,,,,,,,,,,,,,,,,,,,,,,,,,,,,,,,,,,,,,,,,,,,,,sofi,001,b,2019_Oct_10_1446,Experimento,3.2.3,59.7270022069457,
8,14,14,999,0.5,0:10,3,,,1,0,0,34:50,./completed_changuitos/montage_dxeto_199.9_233.25.jpg,right,0,0,0,0,,,,,0,14,14,14,0,0,0,0,,,,,,,,,,,,,,,,,,,,,,,,,,,,,,,,,,,,,,,,,,,,,,,,,,,,,,,,,,,,,453.8479396139883,454.71396917299717,454.71396917299717,462.7282184789947,right,1,1.799909523993847,462.7282184789947,None,462.7282184789947,None,462.7282184789947,None,,,,,,,,,,,,,,,,,,,,,,,sofi,001,b,2019_Oct_10_1446,Experimento,3.2.3,59.7270022069457,
8,14,14,999,0.5,0:10,3,,,1,0,0,34:50,,,0,0,0,0,,,,,0,14,14,14,,,,,,,,,,,,,,,,,,,,,,,,,,,,,,,,,,,,,,,,,,,,,,,,,,,,,,,,,,,,,,,,,,,,,,,,,,,,,,,,,,,,,,,,,,,,,,,,,,,,sofi,001,b,2019_Oct_10_1446,Experimento,3.2.3,59.7270022069457,
8,14,14,999,0.5,0:10,3,,,1,0,0,30:50,./completed_changuitos/montage_unedg_83.45_72.75.jpg,left,0,0,0,0,,,,,0,15,15,15,0,0,0,0,,,,,,,,,,,,,,,,,,,,,,,,,,,,,,,,,,,,,,,,,,,,,,,,,,,,,,,,,,,,,465.1606843319896,466.5102223149879,466.5102223149879,474.52415488699626,right,0,0.8832481260033092,474.52415488699626,None,474.52415488699626,None,474.52415488699626,None,,,,,,,,,,,,,,,,,,,,,,,sofi,001,b,2019_Oct_10_1446,Experimento,3.2.3,59.7270022069457,
8,14,14,999,0.5,0:10,3,,,1,0,0,30:50,,,0,0,0,0,,,,,0,15,15,15,,,,,,,,,,,,,,,,,,,,,,,,,,,,,,,,,,,,,,,,,,,,,,,,,,,,,,,,,,,,,,,,,,,,,,,,,,,,,,,,,,,,,,,,,,,,,,,,,,,,sofi,001,b,2019_Oct_10_1446,Experimento,3.2.3,59.7270022069457,
8,14,14,999,0.5,0:10,3,,,1,0,0,32:50,./completed_changuitos/montage_jhcfg_228.69_199.9.jpg,left,0,0,0,0,,,,,0,16,16,16,0,0,0,0,,,,,,,,,,,,,,,,,,,,,,,,,,,,,,,,,,,,,,,,,,,,,,,,,,,,,,,,,,,,,476.0403138309921,477.18990687398764,477.18990687398764,485.203837285997,right,0,1.2333861259976402,485.203837285997,None,485.203837285997,None,485.203837285997,None,,,,,,,,,,,,,,,,,,,,,,,sofi,001,b,2019_Oct_10_1446,Experimento,3.2.3,59.7270022069457,
8,14,14,999,0.5,0:10,3,,,1,0,0,32:50,,,0,0,0,0,,,,,0,16,16,16,,,,,,,,,,,,,,,,,,,,,,,,,,,,,,,,,,,,,,,,,,,,,,,,,,,,,,,,,,,,,,,,,,,,,,,,,,,,,,,,,,,,,,,,,,,,,,,,,,,,sofi,001,b,2019_Oct_10_1446,Experimento,3.2.3,59.7270022069457,
8,14,14,999,0.5,0:10,3,,,1,0,0,34:50,./completed_changuitos/montage_gxpfc_101.65_90.95.jpg,left,0,0,0,0,,,,,0,17,17,17,0,0,0,0,,,,,,,,,,,,,,,,,,,,,,,,,,,,,,,,,,,,,,,,,,,,,,,,,,,,,,,,,,,,,487.086498988996,489.3523800409894,489.3523800409894,497.36636865399487,left,1,1.8165395260002697,497.36636865399487,None,497.36636865399487,None,497.36636865399487,None,,,,,,,,,,,,,,,,,,,,,,,sofi,001,b,2019_Oct_10_1446,Experimento,3.2.3,59.7270022069457,
8,14,14,999,0.5,0:10,3,,,1,0,0,34:50,,,0,0,0,0,,,,,0,17,17,17,,,,,,,,,,,,,,,,,,,,,,,,,,,,,,,,,,,,,,,,,,,,,,,,,,,,,,,,,,,,,,,,,,,,,,,,,,,,,,,,,,,,,,,,,,,,,,,,,,,,sofi,001,b,2019_Oct_10_1446,Experimento,3.2.3,59.7270022069457,
8,14,14,999,0.5,0:10,3,,,,,,,,,0,0,0,0,,,,,,,,,,,,,,,,,,,,,,,,,,,,,,,,,,,,,,,,,,,,,,,,,,,,,,,,,,,,,,,,,,,,,,,,,,,,,,,,,,,,,,499.25505883699225,500.34865632199217,1,18.060934763008845,500.34865632199217,None,500.34865632199217,None,c,14.545831131996238,518.4254875609913,None,518.4254875609913,None,518.4254875609913,None,532.9873732049891,None,7,9.230848141000024,532.9873732049891,None,sofi,001,b,2019_Oct_10_1446,Experimento,3.2.3,59.7270022069457,
