changuito_time_to_show,time_to_think,time_to_play,total_items,nback_stimulus_time,nback_training,time_to_show_tiny_stimulus,colourtest,corresp,inmediato,consciente,inconsciente,nback_slice,imagen,correcta,trials_5.thisRepN,trials_5.thisTrialN,trials_5.thisN,trials_5.thisIndex,nback_train.thisRepN,nback_train.thisTrialN,nback_train.thisN,nback_train.thisIndex,treatment_order.thisRepN,treatment_order.thisTrialN,treatment_order.thisN,treatment_order.thisIndex,trials.thisRepN,trials.thisTrialN,trials.thisN,trials.thisIndex,trials_2.thisRepN,trials_2.thisTrialN,trials_2.thisN,trials_2.thisIndex,trials_3.thisRepN,trials_3.thisTrialN,trials_3.thisN,trials_3.thisIndex,trials_4.thisRepN,trials_4.thisTrialN,trials_4.thisN,trials_4.thisIndex,Presentacion.started,Presentacion.stopped,Juego.started,Juego.stopped,image_6.started,image_6.stopped,polygon.started,polygon.stopped,nback_train_resp.keys,nback_train_resp.corr,nback_train_resp.started,nback_train_resp.stopped,nback_train_resp.rt,holi.started,holi.stopped,image_3.started,image_3.stopped,polygon_2.started,polygon_2.stopped,nback_train_resp_2.keys,nback_train_resp_2.corr,nback_train_resp_2.started,nback_train_resp_2.stopped,nback_train_resp_2.rt,text_2.started,text_2.stopped,key_resp.keys,key_resp.corr,key_resp.rt,key_resp.started,key_resp.stopped,image_5.started,image_5.stopped,hola.started,hola.stopped,image_2.started,image_2.stopped,tiempo_para_pensar.started,tiempo_para_pensar.stopped,respuesta_consciente.keys,respuesta_consciente.corr,respuesta_consciente.rt,respuesta_consciente.started,respuesta_consciente.stopped,cual_es_la_mas_barata.started,cual_es_la_mas_barata.stopped,image_4.started,image_4.stopped,text.started,text.stopped,image.started,image.stopped,respuesta_inmediato.keys,respuesta_inmediato.corr,respuesta_inmediato.rt,respuesta_inmediato.started,respuesta_inmediato.stopped,pregunta_cual_es_el_mas_barato.started,pregunta_cual_es_el_mas_barato.stopped,short_stim1.started,short_stim1.stopped,gracias.started,gracias.stopped,respuesta1.keys,respuesta1.rt,respuesta1.started,respuesta1.stopped,pregunta1.started,pregunta1.stopped,respuesta3bis_3.keys,respuesta3bis_3.rt,respuesta3bis_3.started,respuesta3bis_3.stopped,pregunta3_3.started,pregunta3_3.stopped,productoCon3RANGOSabc_3.started,productoCon3RANGOSabc_3.stopped,text_3.started,text_3.stopped,key_resp_2.keys,key_resp_2.rt,key_resp_2.started,key_resp_2.stopped,participant,session,group,date,expName,psychopyVersion,frameRate,
8,14,14,999,0.5,0:10,3,White,None,,,,,,,0,0,0,0,0,0,0,0,,,,,,,,,,,,,,,,,,,,,171.04406716299854,None,183.118170447,None,183.118170447,None,199.8056541440019,200.2872207890032,None,1,199.8056541440019,None,,,,,,,,,,,,,,,,,,,,,,,,,,,,,,,,,,,,,,,,,,,,,,,,,,,,,,,,,,,,,,,,,,,,,,,,facundo,001,b,2019_Oct_10_1431,Experimento,3.1.5,60.092216795342516,
8,14,14,999,0.5,0:10,3,Red,None,,,,,,,0,0,0,0,0,1,1,1,,,,,,,,,,,,,,,,,,,,,,,,,,,201.806850605004,202.28793918299925,None,1,201.806850605004,None,,,,,,,,,,,,,,,,,,,,,,,,,,,,,,,,,,,,,,,,,,,,,,,,,,,,,,,,,,,,,,,,,,,,,,,,facundo,001,b,2019_Oct_10_1431,Experimento,3.1.5,60.092216795342516,
8,14,14,999,0.5,0:10,3,Magenta,None,,,,,,,0,0,0,0,0,2,2,2,,,,,,,,,,,,,,,,,,,,,,,,,,,203.80753350000305,204.2891859730007,None,1,203.80753350000305,None,,,,,,,,,,,,,,,,,,,,,,,,,,,,,,,,,,,,,,,,,,,,,,,,,,,,,,,,,,,,,,,,,,,,,,,,facundo,001,b,2019_Oct_10_1431,Experimento,3.1.5,60.092216795342516,
8,14,14,999,0.5,0:10,3,Cyan,None,,,,,,,0,0,0,0,0,3,3,3,,,,,,,,,,,,,,,,,,,,,,,,,,,205.80895347500336,206.29015929800516,None,1,205.80895347500336,None,,,,,,,,,,,,,,,,,,,,,,,,,,,,,,,,,,,,,,,,,,,,,,,,,,,,,,,,,,,,,,,,,,,,,,,,facundo,001,b,2019_Oct_10_1431,Experimento,3.1.5,60.092216795342516,
8,14,14,999,0.5,0:10,3,Magenta,['space'],,,,,,,0,0,0,0,0,4,4,4,,,,,,,,,,,,,,,,,,,,,,,,,,,207.80815445400367,208.290950472001,['return'],0,207.80815445400367,None,[0.38530065499799093],,,,,,,,,,,,,,,,,,,,,,,,,,,,,,,,,,,,,,,,,,,,,,,,,,,,,,,,,,,,,,,,,,,,,,,facundo,001,b,2019_Oct_10_1431,Experimento,3.1.5,60.092216795342516,
8,14,14,999,0.5,0:10,3,Green,None,,,,,,,0,0,0,0,0,5,5,5,,,,,,,,,,,,,,,,,,,,,,,,,,,209.8103094140024,210.29209306600387,None,1,209.8103094140024,None,,,,,,,,,,,,,,,,,,,,,,,,,,,,,,,,,,,,,,,,,,,,,,,,,,,,,,,,,,,,,,,,,,,,,,,,facundo,001,b,2019_Oct_10_1431,Experimento,3.1.5,60.092216795342516,
8,14,14,999,0.5,0:10,3,White,None,,,,,,,0,0,0,0,0,6,6,6,,,,,,,,,,,,,,,,,,,,,,,,,,,211.81026036300318,212.29329829299968,None,1,211.81026036300318,None,,,,,,,,,,,,,,,,,,,,,,,,,,,,,,,,,,,,,,,,,,,,,,,,,,,,,,,,,,,,,,,,,,,,,,,,facundo,001,b,2019_Oct_10_1431,Experimento,3.1.5,60.092216795342516,
8,14,14,999,0.5,0:10,3,Green,['space'],,,,,,,0,0,0,0,0,7,7,7,,,,,,,,,,,,,,,,,,,,,,,,,,,213.81145504400047,214.2935778700048,None,0,213.81145504400047,None,,,,,,,,,,,,,,,,,,,,,,,,,,,,,,,,,,,,,,,,,,,,,,,,,,,,,,,,,,,,,,,,,,,,,,,,facundo,001,b,2019_Oct_10_1431,Experimento,3.1.5,60.092216795342516,
8,14,14,999,0.5,0:10,3,Blue,None,,,,,,,0,0,0,0,0,8,8,8,,,,,,,,,,,,,,,,,,,,,,,,,,,215.81374892400345,216.29486202200496,None,1,215.81374892400345,None,,,,,,,,,,,,,,,,,,,,,,,,,,,,,,,,,,,,,,,,,,,,,,,,,,,,,,,,,,,,,,,,,,,,,,,,facundo,001,b,2019_Oct_10_1431,Experimento,3.1.5,60.092216795342516,
8,14,14,999,0.5,0:10,3,Green,['space'],,,,,,,0,0,0,0,0,9,9,9,,,,,,,,,,,,,,,,,,,,,,,,,,,217.81375858899992,218.29660503299965,['return'],0,217.81375858899992,None,[0.4732852000015555],,,,,,,,,,,,,,,,,,,,,,,,,,,,,,,,,,,,,,,,,,,,,,,,,,,,,,,,,,,,,,,,,,,,,,,facundo,001,b,2019_Oct_10_1431,Experimento,3.1.5,60.092216795342516,
8,14,14,999,0.5,0:10,3,Yellow,None,0,0,1,15:50,./completed_changuitos/montage_nynjt_31.67_35.95.jpg,right,0,0,0,0,,,,,0,0,0,0,,,,,,,,,0,0,0,0,0,0,0,0,,,,,,,,,,,,,,219.98357479100378,228.71993430000293,228.71993430000293,None,236.75521140699857,237.23799930800305,None,1,236.75521140699857,None,,,,,,,,,,,,,,,,,,,,,,,,,,,,,,,,,,,,,,,,,,,,,,,,,,,,,,,,,,,,,facundo,001,b,2019_Oct_10_1431,Experimento,3.1.5,60.092216795342516,
8,14,14,999,0.5,0:10,3,White,['space'],0,0,1,15:50,./completed_changuitos/montage_nynjt_31.67_35.95.jpg,right,0,0,0,0,,,,,0,0,0,0,,,,,,,,,0,0,0,0,0,1,1,1,,,,,,,,,,,,,,,,,,238.75785909700062,239.23904820100142,None,0,238.75785909700062,None,,,,,,,,,,,,,,,,,,,,,,,,,,,,,,,,,,,,,,,,,,,,,,,,,,,,,,,,,,,,,facundo,001,b,2019_Oct_10_1431,Experimento,3.1.5,60.092216795342516,
8,14,14,999,0.5,0:10,3,Magenta,None,0,0,1,15:50,./completed_changuitos/montage_nynjt_31.67_35.95.jpg,right,0,0,0,0,,,,,0,0,0,0,,,,,,,,,0,0,0,0,0,2,2,2,,,,,,,,,,,,,,,,,,240.758716371005,241.24011120700015,None,1,240.758716371005,None,,,,,,,,,,,,,,,,,,,,,,,,,,,,,,,,,,,,,,,,,,,,,,,,,,,,,,,,,,,,,facundo,001,b,2019_Oct_10_1431,Experimento,3.1.5,60.092216795342516,
8,14,14,999,0.5,0:10,3,Cyan,None,0,0,1,15:50,./completed_changuitos/montage_nynjt_31.67_35.95.jpg,right,0,0,0,0,,,,,0,0,0,0,,,,,,,,,0,0,0,0,0,3,3,3,,,,,,,,,,,,,,,,,,242.75894265800162,243.24062392699852,None,1,242.75894265800162,None,,,,,,,,,,,,,,,,,,,,,,,,,,,,,,,,,,,,,,,,,,,,,,,,,,,,,,,,,,,,,facundo,001,b,2019_Oct_10_1431,Experimento,3.1.5,60.092216795342516,
8,14,14,999,0.5,0:10,3,Blue,None,0,0,1,15:50,./completed_changuitos/montage_nynjt_31.67_35.95.jpg,right,0,0,0,0,,,,,0,0,0,0,,,,,,,,,0,0,0,0,0,4,4,4,,,,,,,,,,,,,,,,,,244.7600866030043,245.241722261002,None,1,244.7600866030043,None,,,,,,,,,,,,,,,,,,,,,,,,,,,,,,,,,,,,,,,,,,,,,,,,,,,,,,,,,,,,,facundo,001,b,2019_Oct_10_1431,Experimento,3.1.5,60.092216795342516,
8,14,14,999,0.5,0:10,3,Magenta,None,0,0,1,15:50,./completed_changuitos/montage_nynjt_31.67_35.95.jpg,right,0,0,0,0,,,,,0,0,0,0,,,,,,,,,0,0,0,0,0,5,5,5,,,,,,,,,,,,,,,,,,246.7625143260011,247.24285417400097,None,1,246.7625143260011,None,,,,,,,,,,,,,,,,,,,,,,,,,,,,,,,,,,,,,,,,,,,,,,,,,,,,,,,,,,,,,facundo,001,b,2019_Oct_10_1431,Experimento,3.1.5,60.092216795342516,
8,14,14,999,0.5,0:10,3,Blue,['space'],0,0,1,15:50,./completed_changuitos/montage_nynjt_31.67_35.95.jpg,right,0,0,0,0,,,,,0,0,0,0,,,,,,,,,0,0,0,0,0,6,6,6,,,,,,,,,,,,,,,,,,248.76155276800273,249.24342092699953,['return'],0,248.76155276800273,None,[0.31298529399646213],,,,,,,,,,,,,,,,,,,,,,,,,,,,,,,,,,,,,,,,,,,,,,,,,,,,,,,,,,,,facundo,001,b,2019_Oct_10_1431,Experimento,3.1.5,60.092216795342516,
8,14,14,999,0.5,0:10,3,Cyan,None,0,0,1,15:50,./completed_changuitos/montage_nynjt_31.67_35.95.jpg,right,0,0,0,0,,,,,0,0,0,0,,,,,,,,,0,0,0,0,0,7,7,7,,,,,,,,,,,,,,,,,,None,None,None,1,None,None,,,,,,,,,,,,,,,,,,,,,,,,,,,,,,,,,,,,,,,,,,,,,,,,,,,,,,,,,,,,,facundo,001,b,2019_Oct_10_1431,Experimento,3.1.5,60.092216795342516,
8,14,14,999,0.5,0:10,3,Yellow,None,0,0,1,15:50,./completed_changuitos/montage_nynjt_31.67_35.95.jpg,right,0,0,0,0,,,,,0,0,0,0,,,,,,,,,0,0,0,0,0,8,8,8,,,,,,,,,,,,,,,,,,None,None,None,1,None,None,,,,,,,,,,,,,,,,,,,,,,,,,,,,,,,,,,,,,,,,,,,,,,,,,,,,,,,,,,,,,facundo,001,b,2019_Oct_10_1431,Experimento,3.1.5,60.092216795342516,
8,14,14,999,0.5,0:10,3,Cyan,None,0,0,1,15:50,./completed_changuitos/montage_nynjt_31.67_35.95.jpg,right,0,0,0,0,,,,,0,0,0,0,,,,,,,,,0,0,0,0,0,9,9,9,,,,,,,,,,,,,,,,,,None,None,None,1,None,None,,,,,,,,,,,,,,,,,,,,,,,,,,,,,,,,,,,,,,,,,,,,,,,,,,,,,,,,,,,,,facundo,001,b,2019_Oct_10_1431,Experimento,3.1.5,60.092216795342516,
8,14,14,999,0.5,0:10,3,Blue,None,0,0,1,15:50,./completed_changuitos/montage_nynjt_31.67_35.95.jpg,right,0,0,0,0,,,,,0,0,0,0,,,,,,,,,0,0,0,0,0,10,10,10,,,,,,,,,,,,,,,,,,None,None,None,1,None,None,,,,,,,,,,,,,,,,,,,,,,,,,,,,,,,,,,,,,,,,,,,,,,,,,,,,,,,,,,,,,facundo,001,b,2019_Oct_10_1431,Experimento,3.1.5,60.092216795342516,
8,14,14,999,0.5,0:10,3,Cyan,['space'],0,0,1,15:50,./completed_changuitos/montage_nynjt_31.67_35.95.jpg,right,0,0,0,0,,,,,0,0,0,0,,,,,,,,,0,0,0,0,0,11,11,11,,,,,,,,,,,,,,,,,,None,None,None,0,None,None,,,,,,,,,,,,,,,,,,,,,,,,,,,,,,,,,,,,,,,,,,,,,,,,,,,,,,,,,,,,,facundo,001,b,2019_Oct_10_1431,Experimento,3.1.5,60.092216795342516,
8,14,14,999,0.5,0:10,3,Magenta,None,0,0,1,15:50,./completed_changuitos/montage_nynjt_31.67_35.95.jpg,right,0,0,0,0,,,,,0,0,0,0,,,,,,,,,0,0,0,0,0,12,12,12,,,,,,,,,,,,,,,,,,None,None,None,1,None,None,,,,,,,,,,,,,,,,,,,,,,,,,,,,,,,,,,,,,,,,,,,,,,,,,,,,,,,,,,,,,facundo,001,b,2019_Oct_10_1431,Experimento,3.1.5,60.092216795342516,
8,14,14,999,0.5,0:10,3,Red,None,0,0,1,15:50,./completed_changuitos/montage_nynjt_31.67_35.95.jpg,right,0,0,0,0,,,,,0,0,0,0,,,,,,,,,0,0,0,0,0,13,13,13,,,,,,,,,,,,,,,,,,None,None,None,1,None,None,,,,,,,,,,,,,,,,,,,,,,,,,,,,,,,,,,,,,,,,,,,,,,,,,,,,,,,,,,,,,facundo,001,b,2019_Oct_10_1431,Experimento,3.1.5,60.092216795342516,
8,14,14,999,0.5,0:10,3,Magenta,['space'],0,0,1,15:50,./completed_changuitos/montage_nynjt_31.67_35.95.jpg,right,0,0,0,0,,,,,0,0,0,0,,,,,,,,,0,0,0,0,0,14,14,14,,,,,,,,,,,,,,,,,,None,None,None,0,None,None,,,,,,,,,,,,,,,,,,,,,,,,,,,,,,,,,,,,,,,,,,,,,,,,,,,,,,,,,,,,,facundo,001,b,2019_Oct_10_1431,Experimento,3.1.5,60.092216795342516,
8,14,14,999,0.5,0:10,3,Green,None,0,0,1,15:50,./completed_changuitos/montage_nynjt_31.67_35.95.jpg,right,0,0,0,0,,,,,0,0,0,0,,,,,,,,,0,0,0,0,0,15,15,15,,,,,,,,,,,,,,,,,,None,None,None,1,None,None,,,,,,,,,,,,,,,,,,,,,,,,,,,,,,,,,,,,,,,,,,,,,,,,,,,,,,,,,,,,,facundo,001,b,2019_Oct_10_1431,Experimento,3.1.5,60.092216795342516,
8,14,14,999,0.5,0:10,3,Yellow,['space'],0,0,1,15:50,./completed_changuitos/montage_nynjt_31.67_35.95.jpg,right,0,0,0,0,,,,,0,0,0,0,,,,,,,,,0,0,0,0,0,16,16,16,,,,,,,,,,,,,,,,,,None,None,None,0,None,None,,,,,,,,,,,,,,,,,,,,,,,,,,,,,,,,,,,,,,,,,,,,,,,,,,,,,,,,,,,,,facundo,001,b,2019_Oct_10_1431,Experimento,3.1.5,60.092216795342516,
8,14,14,999,0.5,0:10,3,Blue,None,0,0,1,15:50,./completed_changuitos/montage_nynjt_31.67_35.95.jpg,right,0,0,0,0,,,,,0,0,0,0,,,,,,,,,0,0,0,0,0,17,17,17,,,,,,,,,,,,,,,,,,None,None,None,1,None,None,,,,,,,,,,,,,,,,,,,,,,,,,,,,,,,,,,,,,,,,,,,,,,,,,,,,,,,,,,,,,facundo,001,b,2019_Oct_10_1431,Experimento,3.1.5,60.092216795342516,
8,14,14,999,0.5,0:10,3,Cyan,None,0,0,1,15:50,./completed_changuitos/montage_nynjt_31.67_35.95.jpg,right,0,0,0,0,,,,,0,0,0,0,,,,,,,,,0,0,0,0,0,18,18,18,,,,,,,,,,,,,,,,,,None,None,None,1,None,None,,,,,,,,,,,,,,,,,,,,,,,,,,,,,,,,,,,,,,,,,,,,,,,,,,,,,,,,,,,,,facundo,001,b,2019_Oct_10_1431,Experimento,3.1.5,60.092216795342516,
8,14,14,999,0.5,0:10,3,Blue,['space'],0,0,1,15:50,./completed_changuitos/montage_nynjt_31.67_35.95.jpg,right,0,0,0,0,,,,,0,0,0,0,,,,,,,,,0,0,0,0,0,19,19,19,,,,,,,,,,,,,,,,,,None,None,None,0,None,None,,,,,,,,,,,,,,,,,,,,,,,,,,,,,,,,,,,,,,,,,,,,,,,,,,,,,,,,,,,,,facundo,001,b,2019_Oct_10_1431,Experimento,3.1.5,60.092216795342516,
8,14,14,999,0.5,0:10,3,Yellow,None,0,0,1,15:50,./completed_changuitos/montage_nynjt_31.67_35.95.jpg,right,0,0,0,0,,,,,0,0,0,0,,,,,,,,,0,0,0,0,0,20,20,20,,,,,,,,,,,,,,,,,,None,None,None,1,None,None,,,,,,,,,,,,,,,,,,,,,,,,,,,,,,,,,,,,,,,,,,,,,,,,,,,,,,,,,,,,,facundo,001,b,2019_Oct_10_1431,Experimento,3.1.5,60.092216795342516,
8,14,14,999,0.5,0:10,3,Cyan,None,0,0,1,15:50,./completed_changuitos/montage_nynjt_31.67_35.95.jpg,right,0,0,0,0,,,,,0,0,0,0,,,,,,,,,0,0,0,0,0,21,21,21,,,,,,,,,,,,,,,,,,None,None,None,1,None,None,,,,,,,,,,,,,,,,,,,,,,,,,,,,,,,,,,,,,,,,,,,,,,,,,,,,,,,,,,,,,facundo,001,b,2019_Oct_10_1431,Experimento,3.1.5,60.092216795342516,
8,14,14,999,0.5,0:10,3,Yellow,['space'],0,0,1,15:50,./completed_changuitos/montage_nynjt_31.67_35.95.jpg,right,0,0,0,0,,,,,0,0,0,0,,,,,,,,,0,0,0,0,0,22,22,22,,,,,,,,,,,,,,,,,,None,None,None,0,None,None,,,,,,,,,,,,,,,,,,,,,,,,,,,,,,,,,,,,,,,,,,,,,,,,,,,,,,,,,,,,,facundo,001,b,2019_Oct_10_1431,Experimento,3.1.5,60.092216795342516,
8,14,14,999,0.5,0:10,3,Magenta,None,0,0,1,15:50,./completed_changuitos/montage_nynjt_31.67_35.95.jpg,right,0,0,0,0,,,,,0,0,0,0,,,,,,,,,0,0,0,0,0,23,23,23,,,,,,,,,,,,,,,,,,None,None,None,1,None,None,,,,,,,,,,,,,,,,,,,,,,,,,,,,,,,,,,,,,,,,,,,,,,,,,,,,,,,,,,,,,facundo,001,b,2019_Oct_10_1431,Experimento,3.1.5,60.092216795342516,
8,14,14,999,0.5,0:10,3,Red,None,0,0,1,15:50,./completed_changuitos/montage_nynjt_31.67_35.95.jpg,right,0,0,0,0,,,,,0,0,0,0,,,,,,,,,0,0,0,0,0,24,24,24,,,,,,,,,,,,,,,,,,None,None,None,1,None,None,,,,,,,,,,,,,,,,,,,,,,,,,,,,,,,,,,,,,,,,,,,,,,,,,,,,,,,,,,,,,facundo,001,b,2019_Oct_10_1431,Experimento,3.1.5,60.092216795342516,
8,14,14,999,0.5,0:10,3,Magenta,['space'],0,0,1,15:50,./completed_changuitos/montage_nynjt_31.67_35.95.jpg,right,0,0,0,0,,,,,0,0,0,0,,,,,,,,,0,0,0,0,0,25,25,25,,,,,,,,,,,,,,,,,,None,None,None,0,None,None,,,,,,,,,,,,,,,,,,,,,,,,,,,,,,,,,,,,,,,,,,,,,,,,,,,,,,,,,,,,,facundo,001,b,2019_Oct_10_1431,Experimento,3.1.5,60.092216795342516,
8,14,14,999,0.5,0:10,3,Red,['space'],0,0,1,15:50,./completed_changuitos/montage_nynjt_31.67_35.95.jpg,right,0,0,0,0,,,,,0,0,0,0,,,,,,,,,0,0,0,0,0,26,26,26,,,,,,,,,,,,,,,,,,None,None,None,0,None,None,,,,,,,,,,,,,,,,,,,,,,,,,,,,,,,,,,,,,,,,,,,,,,,,,,,,,,,,,,,,,facundo,001,b,2019_Oct_10_1431,Experimento,3.1.5,60.092216795342516,
8,14,14,999,0.5,0:10,3,Yellow,None,0,0,1,15:50,./completed_changuitos/montage_nynjt_31.67_35.95.jpg,right,0,0,0,0,,,,,0,0,0,0,,,,,,,,,0,0,0,0,0,27,27,27,,,,,,,,,,,,,,,,,,None,None,None,1,None,None,,,,,,,,,,,,,,,,,,,,,,,,,,,,,,,,,,,,,,,,,,,,,,,,,,,,,,,,,,,,,facundo,001,b,2019_Oct_10_1431,Experimento,3.1.5,60.092216795342516,
8,14,14,999,0.5,0:10,3,Cyan,None,0,0,1,15:50,./completed_changuitos/montage_nynjt_31.67_35.95.jpg,right,0,0,0,0,,,,,0,0,0,0,,,,,,,,,0,0,0,0,0,28,28,28,,,,,,,,,,,,,,,,,,None,None,None,1,None,None,,,,,,,,,,,,,,,,,,,,,,,,,,,,,,,,,,,,,,,,,,,,,,,,,,,,,,,,,,,,,facundo,001,b,2019_Oct_10_1431,Experimento,3.1.5,60.092216795342516,
8,14,14,999,0.5,0:10,3,Green,None,0,0,1,15:50,./completed_changuitos/montage_nynjt_31.67_35.95.jpg,right,0,0,0,0,,,,,0,0,0,0,,,,,,,,,0,0,0,0,0,29,29,29,,,,,,,,,,,,,,,,,,None,None,None,1,None,None,,,,,,,,,,,,,,,,,,,,,,,,,,,,,,,,,,,,,,,,,,,,,,,,,,,,,,,,,,,,,facundo,001,b,2019_Oct_10_1431,Experimento,3.1.5,60.092216795342516,
8,14,14,999,0.5,0:10,3,White,None,0,0,1,15:50,./completed_changuitos/montage_nynjt_31.67_35.95.jpg,right,0,0,0,0,,,,,0,0,0,0,,,,,,,,,0,0,0,0,0,30,30,30,,,,,,,,,,,,,,,,,,None,None,None,1,None,None,,,,,,,,,,,,,,,,,,,,,,,,,,,,,,,,,,,,,,,,,,,,,,,,,,,,,,,,,,,,,facundo,001,b,2019_Oct_10_1431,Experimento,3.1.5,60.092216795342516,
8,14,14,999,0.5,0:10,3,Green,['space'],0,0,1,15:50,./completed_changuitos/montage_nynjt_31.67_35.95.jpg,right,0,0,0,0,,,,,0,0,0,0,,,,,,,,,0,0,0,0,0,31,31,31,,,,,,,,,,,,,,,,,,None,None,None,0,None,None,,,,,,,,,,,,,,,,,,,,,,,,,,,,,,,,,,,,,,,,,,,,,,,,,,,,,,,,,,,,,facundo,001,b,2019_Oct_10_1431,Experimento,3.1.5,60.092216795342516,
8,14,14,999,0.5,0:10,3,Red,None,0,0,1,15:50,./completed_changuitos/montage_nynjt_31.67_35.95.jpg,right,0,0,0,0,,,,,0,0,0,0,,,,,,,,,0,0,0,0,0,32,32,32,,,,,,,,,,,,,,,,,,None,None,None,1,None,None,,,,,,,,,,,,,,,,,,,,,,,,,,,,,,,,,,,,,,,,,,,,,,,,,,,,,,,,,,,,,facundo,001,b,2019_Oct_10_1431,Experimento,3.1.5,60.092216795342516,
8,14,14,999,0.5,0:10,3,Blue,None,0,0,1,15:50,./completed_changuitos/montage_nynjt_31.67_35.95.jpg,right,0,0,0,0,,,,,0,0,0,0,,,,,,,,,0,0,0,0,0,33,33,33,,,,,,,,,,,,,,,,,,None,None,None,1,None,None,,,,,,,,,,,,,,,,,,,,,,,,,,,,,,,,,,,,,,,,,,,,,,,,,,,,,,,,,,,,,facundo,001,b,2019_Oct_10_1431,Experimento,3.1.5,60.092216795342516,
8,14,14,999,0.5,0:10,3,Green,None,0,0,1,15:50,./completed_changuitos/montage_nynjt_31.67_35.95.jpg,right,0,0,0,0,,,,,0,0,0,0,,,,,,,,,0,0,0,0,0,34,34,34,,,,,,,,,,,,,,,,,,None,None,None,1,None,None,,,,,,,,,,,,,,,,,,,,,,,,,,,,,,,,,,,,,,,,,,,,,,,,,,,,,,,,,,,,,facundo,001,b,2019_Oct_10_1431,Experimento,3.1.5,60.092216795342516,
8,14,14,999,0.5,0:10,3,,,0,0,1,15:50,./completed_changuitos/montage_nynjt_31.67_35.95.jpg,right,0,0,0,0,,,,,0,0,0,0,,,,,,,,,0,0,0,0,,,,,,,,,,,,,,,,,,,,,,,,,,,,,251.3330595849984,None,right,1,1.1525294769962784,251.3330595849984,None,251.3330595849984,None,,,,,,,,,,,,,,,,,,,,,,,,,,,,,,,,,,,,,,,,,,,,,,,,,,,facundo,001,b,2019_Oct_10_1431,Experimento,3.1.5,60.092216795342516,
8,14,14,999,0.5,0:10,3,,,0,0,1,15:50,,,0,0,0,0,,,,,0,0,0,0,,,,,,,,,,,,,,,,,,,,,,,,,,,,,,,,,,,,,,,,,,,,,,,,,,,,,,,,,,,,,,,,,,,,,,,,,,,,,,,,,,,,,,,,,,,,,,,,,,,,facundo,001,b,2019_Oct_10_1431,Experimento,3.1.5,60.092216795342516,
8,14,14,999,0.5,0:10,3,,,0,1,0,19:50,./completed_changuitos/montage_ktneq_63.15_55.75.jpg,left,0,0,0,0,,,,,0,1,1,1,,,,,0,0,0,0,,,,,,,,,,,,,,,,,,,,,,,,,,,,,,,,,,,,,,,,,,252.81482728700212,256.1474445929998,256.1474445929998,264.1502918920014,264.1502918920014,278.15802585300116,left,1,2.3445252389938105,278.15802585300116,None,278.15802585300116,None,278.15802585300116,None,,,,,,,,,,,,,,,,,,,,,,,,,,,,,,,,,,,,facundo,001,b,2019_Oct_10_1431,Experimento,3.1.5,60.092216795342516,
8,14,14,999,0.5,0:10,3,,,0,1,0,19:50,,,0,0,0,0,,,,,0,1,1,1,,,,,,,,,,,,,,,,,,,,,,,,,,,,,,,,,,,,,,,,,,,,,,,,,,,,,,,,,,,,,,,,,,,,,,,,,,,,,,,,,,,,,,,,,,,,,,,,,,,,facundo,001,b,2019_Oct_10_1431,Experimento,3.1.5,60.092216795342516,
8,14,14,999,0.5,0:10,3,Magenta,None,0,0,1,20:50,./completed_changuitos/montage_tfanv_50.85_44.95.jpg,left,0,0,0,0,,,,,0,2,2,2,,,,,,,,,0,0,0,0,0,0,0,0,,,,,,,,,,,,,,280.7277997150013,285.2280087550025,285.2280087550025,None,293.2651926920007,293.74797085400496,None,1,293.2651926920007,None,,,,,,,,,,,,,,,,,,,,,,,,,,,,,,,,,,,,,,,,,,,,,,,,,,,,,,,,,,,,,facundo,001,b,2019_Oct_10_1431,Experimento,3.1.5,60.092216795342516,
8,14,14,999,0.5,0:10,3,Blue,['space'],0,0,1,20:50,./completed_changuitos/montage_tfanv_50.85_44.95.jpg,left,0,0,0,0,,,,,0,2,2,2,,,,,,,,,0,0,0,0,0,1,1,1,,,,,,,,,,,,,,,,,,295.2699317000006,295.75047323499894,None,0,295.2699317000006,None,,,,,,,,,,,,,,,,,,,,,,,,,,,,,,,,,,,,,,,,,,,,,,,,,,,,,,,,,,,,,facundo,001,b,2019_Oct_10_1431,Experimento,3.1.5,60.092216795342516,
8,14,14,999,0.5,0:10,3,Cyan,None,0,0,1,20:50,./completed_changuitos/montage_tfanv_50.85_44.95.jpg,left,0,0,0,0,,,,,0,2,2,2,,,,,,,,,0,0,0,0,0,2,2,2,,,,,,,,,,,,,,,,,,297.26875630200084,297.7501403610004,None,1,297.26875630200084,None,,,,,,,,,,,,,,,,,,,,,,,,,,,,,,,,,,,,,,,,,,,,,,,,,,,,,,,,,,,,,facundo,001,b,2019_Oct_10_1431,Experimento,3.1.5,60.092216795342516,
8,14,14,999,0.5,0:10,3,Yellow,None,0,0,1,20:50,./completed_changuitos/montage_tfanv_50.85_44.95.jpg,left,0,0,0,0,,,,,0,2,2,2,,,,,,,,,0,0,0,0,0,3,3,3,,,,,,,,,,,,,,,,,,299.26883894800267,299.7507522540036,None,1,299.26883894800267,None,,,,,,,,,,,,,,,,,,,,,,,,,,,,,,,,,,,,,,,,,,,,,,,,,,,,,,,,,,,,,facundo,001,b,2019_Oct_10_1431,Experimento,3.1.5,60.092216795342516,
8,14,14,999,0.5,0:10,3,Cyan,None,0,0,1,20:50,./completed_changuitos/montage_tfanv_50.85_44.95.jpg,left,0,0,0,0,,,,,0,2,2,2,,,,,,,,,0,0,0,0,0,4,4,4,,,,,,,,,,,,,,,,,,301.26968570100144,301.75197764800396,['return'],0,301.26968570100144,None,[0.5377528929966502],,,,,,,,,,,,,,,,,,,,,,,,,,,,,,,,,,,,,,,,,,,,,,,,,,,,,,,,,,,,facundo,001,b,2019_Oct_10_1431,Experimento,3.1.5,60.092216795342516,
8,14,14,999,0.5,0:10,3,Blue,None,0,0,1,20:50,./completed_changuitos/montage_tfanv_50.85_44.95.jpg,left,0,0,0,0,,,,,0,2,2,2,,,,,,,,,0,0,0,0,0,5,5,5,,,,,,,,,,,,,,,,,,303.27045216900297,303.7529640520006,None,1,303.27045216900297,None,,,,,,,,,,,,,,,,,,,,,,,,,,,,,,,,,,,,,,,,,,,,,,,,,,,,,,,,,,,,,facundo,001,b,2019_Oct_10_1431,Experimento,3.1.5,60.092216795342516,
8,14,14,999,0.5,0:10,3,Cyan,['space'],0,0,1,20:50,./completed_changuitos/montage_tfanv_50.85_44.95.jpg,left,0,0,0,0,,,,,0,2,2,2,,,,,,,,,0,0,0,0,0,6,6,6,,,,,,,,,,,,,,,,,,305.27198040000076,305.7535933840045,['return'],0,305.27198040000076,None,[0.743298691995733],,,,,,,,,,,,,,,,,,,,,,,,,,,,,,,,,,,,,,,,,,,,,,,,,,,,,,,,,,,,facundo,001,b,2019_Oct_10_1431,Experimento,3.1.5,60.092216795342516,
8,14,14,999,0.5,0:10,3,Magenta,None,0,0,1,20:50,./completed_changuitos/montage_tfanv_50.85_44.95.jpg,left,0,0,0,0,,,,,0,2,2,2,,,,,,,,,0,0,0,0,0,7,7,7,,,,,,,,,,,,,,,,,,None,None,None,1,None,None,,,,,,,,,,,,,,,,,,,,,,,,,,,,,,,,,,,,,,,,,,,,,,,,,,,,,,,,,,,,,facundo,001,b,2019_Oct_10_1431,Experimento,3.1.5,60.092216795342516,
8,14,14,999,0.5,0:10,3,Red,None,0,0,1,20:50,./completed_changuitos/montage_tfanv_50.85_44.95.jpg,left,0,0,0,0,,,,,0,2,2,2,,,,,,,,,0,0,0,0,0,8,8,8,,,,,,,,,,,,,,,,,,None,None,None,1,None,None,,,,,,,,,,,,,,,,,,,,,,,,,,,,,,,,,,,,,,,,,,,,,,,,,,,,,,,,,,,,,facundo,001,b,2019_Oct_10_1431,Experimento,3.1.5,60.092216795342516,
8,14,14,999,0.5,0:10,3,Magenta,['space'],0,0,1,20:50,./completed_changuitos/montage_tfanv_50.85_44.95.jpg,left,0,0,0,0,,,,,0,2,2,2,,,,,,,,,0,0,0,0,0,9,9,9,,,,,,,,,,,,,,,,,,None,None,None,0,None,None,,,,,,,,,,,,,,,,,,,,,,,,,,,,,,,,,,,,,,,,,,,,,,,,,,,,,,,,,,,,,facundo,001,b,2019_Oct_10_1431,Experimento,3.1.5,60.092216795342516,
8,14,14,999,0.5,0:10,3,Green,None,0,0,1,20:50,./completed_changuitos/montage_tfanv_50.85_44.95.jpg,left,0,0,0,0,,,,,0,2,2,2,,,,,,,,,0,0,0,0,0,10,10,10,,,,,,,,,,,,,,,,,,None,None,None,1,None,None,,,,,,,,,,,,,,,,,,,,,,,,,,,,,,,,,,,,,,,,,,,,,,,,,,,,,,,,,,,,,facundo,001,b,2019_Oct_10_1431,Experimento,3.1.5,60.092216795342516,
8,14,14,999,0.5,0:10,3,Yellow,['space'],0,0,1,20:50,./completed_changuitos/montage_tfanv_50.85_44.95.jpg,left,0,0,0,0,,,,,0,2,2,2,,,,,,,,,0,0,0,0,0,11,11,11,,,,,,,,,,,,,,,,,,None,None,None,0,None,None,,,,,,,,,,,,,,,,,,,,,,,,,,,,,,,,,,,,,,,,,,,,,,,,,,,,,,,,,,,,,facundo,001,b,2019_Oct_10_1431,Experimento,3.1.5,60.092216795342516,
8,14,14,999,0.5,0:10,3,Blue,None,0,0,1,20:50,./completed_changuitos/montage_tfanv_50.85_44.95.jpg,left,0,0,0,0,,,,,0,2,2,2,,,,,,,,,0,0,0,0,0,12,12,12,,,,,,,,,,,,,,,,,,None,None,None,1,None,None,,,,,,,,,,,,,,,,,,,,,,,,,,,,,,,,,,,,,,,,,,,,,,,,,,,,,,,,,,,,,facundo,001,b,2019_Oct_10_1431,Experimento,3.1.5,60.092216795342516,
8,14,14,999,0.5,0:10,3,Cyan,None,0,0,1,20:50,./completed_changuitos/montage_tfanv_50.85_44.95.jpg,left,0,0,0,0,,,,,0,2,2,2,,,,,,,,,0,0,0,0,0,13,13,13,,,,,,,,,,,,,,,,,,None,None,None,1,None,None,,,,,,,,,,,,,,,,,,,,,,,,,,,,,,,,,,,,,,,,,,,,,,,,,,,,,,,,,,,,,facundo,001,b,2019_Oct_10_1431,Experimento,3.1.5,60.092216795342516,
8,14,14,999,0.5,0:10,3,Blue,['space'],0,0,1,20:50,./completed_changuitos/montage_tfanv_50.85_44.95.jpg,left,0,0,0,0,,,,,0,2,2,2,,,,,,,,,0,0,0,0,0,14,14,14,,,,,,,,,,,,,,,,,,None,None,None,0,None,None,,,,,,,,,,,,,,,,,,,,,,,,,,,,,,,,,,,,,,,,,,,,,,,,,,,,,,,,,,,,,facundo,001,b,2019_Oct_10_1431,Experimento,3.1.5,60.092216795342516,
8,14,14,999,0.5,0:10,3,Yellow,None,0,0,1,20:50,./completed_changuitos/montage_tfanv_50.85_44.95.jpg,left,0,0,0,0,,,,,0,2,2,2,,,,,,,,,0,0,0,0,0,15,15,15,,,,,,,,,,,,,,,,,,None,None,None,1,None,None,,,,,,,,,,,,,,,,,,,,,,,,,,,,,,,,,,,,,,,,,,,,,,,,,,,,,,,,,,,,,facundo,001,b,2019_Oct_10_1431,Experimento,3.1.5,60.092216795342516,
8,14,14,999,0.5,0:10,3,Cyan,None,0,0,1,20:50,./completed_changuitos/montage_tfanv_50.85_44.95.jpg,left,0,0,0,0,,,,,0,2,2,2,,,,,,,,,0,0,0,0,0,16,16,16,,,,,,,,,,,,,,,,,,None,None,None,1,None,None,,,,,,,,,,,,,,,,,,,,,,,,,,,,,,,,,,,,,,,,,,,,,,,,,,,,,,,,,,,,,facundo,001,b,2019_Oct_10_1431,Experimento,3.1.5,60.092216795342516,
8,14,14,999,0.5,0:10,3,Yellow,['space'],0,0,1,20:50,./completed_changuitos/montage_tfanv_50.85_44.95.jpg,left,0,0,0,0,,,,,0,2,2,2,,,,,,,,,0,0,0,0,0,17,17,17,,,,,,,,,,,,,,,,,,None,None,None,0,None,None,,,,,,,,,,,,,,,,,,,,,,,,,,,,,,,,,,,,,,,,,,,,,,,,,,,,,,,,,,,,,facundo,001,b,2019_Oct_10_1431,Experimento,3.1.5,60.092216795342516,
8,14,14,999,0.5,0:10,3,Magenta,None,0,0,1,20:50,./completed_changuitos/montage_tfanv_50.85_44.95.jpg,left,0,0,0,0,,,,,0,2,2,2,,,,,,,,,0,0,0,0,0,18,18,18,,,,,,,,,,,,,,,,,,None,None,None,1,None,None,,,,,,,,,,,,,,,,,,,,,,,,,,,,,,,,,,,,,,,,,,,,,,,,,,,,,,,,,,,,,facundo,001,b,2019_Oct_10_1431,Experimento,3.1.5,60.092216795342516,
8,14,14,999,0.5,0:10,3,Red,None,0,0,1,20:50,./completed_changuitos/montage_tfanv_50.85_44.95.jpg,left,0,0,0,0,,,,,0,2,2,2,,,,,,,,,0,0,0,0,0,19,19,19,,,,,,,,,,,,,,,,,,None,None,None,1,None,None,,,,,,,,,,,,,,,,,,,,,,,,,,,,,,,,,,,,,,,,,,,,,,,,,,,,,,,,,,,,,facundo,001,b,2019_Oct_10_1431,Experimento,3.1.5,60.092216795342516,
8,14,14,999,0.5,0:10,3,Magenta,['space'],0,0,1,20:50,./completed_changuitos/montage_tfanv_50.85_44.95.jpg,left,0,0,0,0,,,,,0,2,2,2,,,,,,,,,0,0,0,0,0,20,20,20,,,,,,,,,,,,,,,,,,None,None,None,0,None,None,,,,,,,,,,,,,,,,,,,,,,,,,,,,,,,,,,,,,,,,,,,,,,,,,,,,,,,,,,,,,facundo,001,b,2019_Oct_10_1431,Experimento,3.1.5,60.092216795342516,
8,14,14,999,0.5,0:10,3,Red,['space'],0,0,1,20:50,./completed_changuitos/montage_tfanv_50.85_44.95.jpg,left,0,0,0,0,,,,,0,2,2,2,,,,,,,,,0,0,0,0,0,21,21,21,,,,,,,,,,,,,,,,,,None,None,None,0,None,None,,,,,,,,,,,,,,,,,,,,,,,,,,,,,,,,,,,,,,,,,,,,,,,,,,,,,,,,,,,,,facundo,001,b,2019_Oct_10_1431,Experimento,3.1.5,60.092216795342516,
8,14,14,999,0.5,0:10,3,Yellow,None,0,0,1,20:50,./completed_changuitos/montage_tfanv_50.85_44.95.jpg,left,0,0,0,0,,,,,0,2,2,2,,,,,,,,,0,0,0,0,0,22,22,22,,,,,,,,,,,,,,,,,,None,None,None,1,None,None,,,,,,,,,,,,,,,,,,,,,,,,,,,,,,,,,,,,,,,,,,,,,,,,,,,,,,,,,,,,,facundo,001,b,2019_Oct_10_1431,Experimento,3.1.5,60.092216795342516,
8,14,14,999,0.5,0:10,3,Cyan,None,0,0,1,20:50,./completed_changuitos/montage_tfanv_50.85_44.95.jpg,left,0,0,0,0,,,,,0,2,2,2,,,,,,,,,0,0,0,0,0,23,23,23,,,,,,,,,,,,,,,,,,None,None,None,1,None,None,,,,,,,,,,,,,,,,,,,,,,,,,,,,,,,,,,,,,,,,,,,,,,,,,,,,,,,,,,,,,facundo,001,b,2019_Oct_10_1431,Experimento,3.1.5,60.092216795342516,
8,14,14,999,0.5,0:10,3,Green,None,0,0,1,20:50,./completed_changuitos/montage_tfanv_50.85_44.95.jpg,left,0,0,0,0,,,,,0,2,2,2,,,,,,,,,0,0,0,0,0,24,24,24,,,,,,,,,,,,,,,,,,None,None,None,1,None,None,,,,,,,,,,,,,,,,,,,,,,,,,,,,,,,,,,,,,,,,,,,,,,,,,,,,,,,,,,,,,facundo,001,b,2019_Oct_10_1431,Experimento,3.1.5,60.092216795342516,
8,14,14,999,0.5,0:10,3,White,None,0,0,1,20:50,./completed_changuitos/montage_tfanv_50.85_44.95.jpg,left,0,0,0,0,,,,,0,2,2,2,,,,,,,,,0,0,0,0,0,25,25,25,,,,,,,,,,,,,,,,,,None,None,None,1,None,None,,,,,,,,,,,,,,,,,,,,,,,,,,,,,,,,,,,,,,,,,,,,,,,,,,,,,,,,,,,,,facundo,001,b,2019_Oct_10_1431,Experimento,3.1.5,60.092216795342516,
8,14,14,999,0.5,0:10,3,Green,['space'],0,0,1,20:50,./completed_changuitos/montage_tfanv_50.85_44.95.jpg,left,0,0,0,0,,,,,0,2,2,2,,,,,,,,,0,0,0,0,0,26,26,26,,,,,,,,,,,,,,,,,,None,None,None,0,None,None,,,,,,,,,,,,,,,,,,,,,,,,,,,,,,,,,,,,,,,,,,,,,,,,,,,,,,,,,,,,,facundo,001,b,2019_Oct_10_1431,Experimento,3.1.5,60.092216795342516,
8,14,14,999,0.5,0:10,3,Red,None,0,0,1,20:50,./completed_changuitos/montage_tfanv_50.85_44.95.jpg,left,0,0,0,0,,,,,0,2,2,2,,,,,,,,,0,0,0,0,0,27,27,27,,,,,,,,,,,,,,,,,,None,None,None,1,None,None,,,,,,,,,,,,,,,,,,,,,,,,,,,,,,,,,,,,,,,,,,,,,,,,,,,,,,,,,,,,,facundo,001,b,2019_Oct_10_1431,Experimento,3.1.5,60.092216795342516,
8,14,14,999,0.5,0:10,3,Blue,None,0,0,1,20:50,./completed_changuitos/montage_tfanv_50.85_44.95.jpg,left,0,0,0,0,,,,,0,2,2,2,,,,,,,,,0,0,0,0,0,28,28,28,,,,,,,,,,,,,,,,,,None,None,None,1,None,None,,,,,,,,,,,,,,,,,,,,,,,,,,,,,,,,,,,,,,,,,,,,,,,,,,,,,,,,,,,,,facundo,001,b,2019_Oct_10_1431,Experimento,3.1.5,60.092216795342516,
8,14,14,999,0.5,0:10,3,Green,None,0,0,1,20:50,./completed_changuitos/montage_tfanv_50.85_44.95.jpg,left,0,0,0,0,,,,,0,2,2,2,,,,,,,,,0,0,0,0,0,29,29,29,,,,,,,,,,,,,,,,,,None,None,None,1,None,None,,,,,,,,,,,,,,,,,,,,,,,,,,,,,,,,,,,,,,,,,,,,,,,,,,,,,,,,,,,,,facundo,001,b,2019_Oct_10_1431,Experimento,3.1.5,60.092216795342516,
8,14,14,999,0.5,0:10,3,,,0,0,1,20:50,./completed_changuitos/montage_tfanv_50.85_44.95.jpg,left,0,0,0,0,,,,,0,2,2,2,,,,,,,,,0,0,0,0,,,,,,,,,,,,,,,,,,,,,,,,,,,,,307.73889196800155,None,left,1,1.5211102750035934,307.73889196800155,None,307.73889196800155,None,,,,,,,,,,,,,,,,,,,,,,,,,,,,,,,,,,,,,,,,,,,,,,,,,,,facundo,001,b,2019_Oct_10_1431,Experimento,3.1.5,60.092216795342516,
8,14,14,999,0.5,0:10,3,,,0,0,1,20:50,,,0,0,0,0,,,,,0,2,2,2,,,,,,,,,,,,,,,,,,,,,,,,,,,,,,,,,,,,,,,,,,,,,,,,,,,,,,,,,,,,,,,,,,,,,,,,,,,,,,,,,,,,,,,,,,,,,,,,,,,,facundo,001,b,2019_Oct_10_1431,Experimento,3.1.5,60.092216795342516,
8,14,14,999,0.5,0:10,3,,,0,1,0,25:50,./completed_changuitos/montage_ewjxh_452.6_523.25.jpg,right,0,0,0,0,,,,,0,3,3,3,,,,,0,0,0,0,,,,,,,,,,,,,,,,,,,,,,,,,,,,,,,,,,,,,,,,,,309.5579631130022,310.85889505000523,310.85889505000523,318.8595081110034,318.8595081110034,332.8667623900037,right,1,2.5425654889986617,332.8667623900037,None,332.8667623900037,None,332.8667623900037,None,,,,,,,,,,,,,,,,,,,,,,,,,,,,,,,,,,,,facundo,001,b,2019_Oct_10_1431,Experimento,3.1.5,60.092216795342516,
8,14,14,999,0.5,0:10,3,,,0,1,0,25:50,,,0,0,0,0,,,,,0,3,3,3,,,,,,,,,,,,,,,,,,,,,,,,,,,,,,,,,,,,,,,,,,,,,,,,,,,,,,,,,,,,,,,,,,,,,,,,,,,,,,,,,,,,,,,,,,,,,,,,,,,,facundo,001,b,2019_Oct_10_1431,Experimento,3.1.5,60.092216795342516,
8,14,14,999,0.5,0:10,3,Red,None,0,0,1,28:50,./completed_changuitos/montage_gerhz_725.89_619.0.jpg,left,0,0,0,0,,,,,0,4,4,4,,,,,,,,,0,0,0,0,0,0,0,0,,,,,,,,,,,,,,335.63886708000064,336.952277821998,336.952277821998,None,344.98947772900283,345.47280663800484,None,1,344.98947772900283,None,,,,,,,,,,,,,,,,,,,,,,,,,,,,,,,,,,,,,,,,,,,,,,,,,,,,,,,,,,,,,facundo,001,b,2019_Oct_10_1431,Experimento,3.1.5,60.092216795342516,
8,14,14,999,0.5,0:10,3,Magenta,['space'],0,0,1,28:50,./completed_changuitos/montage_gerhz_725.89_619.0.jpg,left,0,0,0,0,,,,,0,4,4,4,,,,,,,,,0,0,0,0,0,1,1,1,,,,,,,,,,,,,,,,,,346.9934625090027,347.473703018004,None,0,346.9934625090027,None,,,,,,,,,,,,,,,,,,,,,,,,,,,,,,,,,,,,,,,,,,,,,,,,,,,,,,,,,,,,,facundo,001,b,2019_Oct_10_1431,Experimento,3.1.5,60.092216795342516,
8,14,14,999,0.5,0:10,3,Green,None,0,0,1,28:50,./completed_changuitos/montage_gerhz_725.89_619.0.jpg,left,0,0,0,0,,,,,0,4,4,4,,,,,,,,,0,0,0,0,0,2,2,2,,,,,,,,,,,,,,,,,,348.9922981089985,349.4743027939985,None,1,348.9922981089985,None,,,,,,,,,,,,,,,,,,,,,,,,,,,,,,,,,,,,,,,,,,,,,,,,,,,,,,,,,,,,,facundo,001,b,2019_Oct_10_1431,Experimento,3.1.5,60.092216795342516,
8,14,14,999,0.5,0:10,3,Yellow,['space'],0,0,1,28:50,./completed_changuitos/montage_gerhz_725.89_619.0.jpg,left,0,0,0,0,,,,,0,4,4,4,,,,,,,,,0,0,0,0,0,3,3,3,,,,,,,,,,,,,,,,,,350.9939549039991,351.47562620999815,None,0,350.9939549039991,None,,,,,,,,,,,,,,,,,,,,,,,,,,,,,,,,,,,,,,,,,,,,,,,,,,,,,,,,,,,,,facundo,001,b,2019_Oct_10_1431,Experimento,3.1.5,60.092216795342516,
8,14,14,999,0.5,0:10,3,Blue,None,0,0,1,28:50,./completed_changuitos/montage_gerhz_725.89_619.0.jpg,left,0,0,0,0,,,,,0,4,4,4,,,,,,,,,0,0,0,0,0,4,4,4,,,,,,,,,,,,,,,,,,352.99495644099807,353.47655464499985,None,1,352.99495644099807,None,,,,,,,,,,,,,,,,,,,,,,,,,,,,,,,,,,,,,,,,,,,,,,,,,,,,,,,,,,,,,facundo,001,b,2019_Oct_10_1431,Experimento,3.1.5,60.092216795342516,
8,14,14,999,0.5,0:10,3,Cyan,None,0,0,1,28:50,./completed_changuitos/montage_gerhz_725.89_619.0.jpg,left,0,0,0,0,,,,,0,4,4,4,,,,,,,,,0,0,0,0,0,5,5,5,,,,,,,,,,,,,,,,,,354.99462873800076,355.477142290998,None,1,354.99462873800076,None,,,,,,,,,,,,,,,,,,,,,,,,,,,,,,,,,,,,,,,,,,,,,,,,,,,,,,,,,,,,,facundo,001,b,2019_Oct_10_1431,Experimento,3.1.5,60.092216795342516,
8,14,14,999,0.5,0:10,3,Blue,['space'],0,0,1,28:50,./completed_changuitos/montage_gerhz_725.89_619.0.jpg,left,0,0,0,0,,,,,0,4,4,4,,,,,,,,,0,0,0,0,0,6,6,6,,,,,,,,,,,,,,,,,,356.9954089000021,357.47844790999807,['return'],0,356.9954089000021,None,[0.37142046399821993],,,,,,,,,,,,,,,,,,,,,,,,,,,,,,,,,,,,,,,,,,,,,,,,,,,,,,,,,,,,facundo,001,b,2019_Oct_10_1431,Experimento,3.1.5,60.092216795342516,
8,14,14,999,0.5,0:10,3,Yellow,None,0,0,1,28:50,./completed_changuitos/montage_gerhz_725.89_619.0.jpg,left,0,0,0,0,,,,,0,4,4,4,,,,,,,,,0,0,0,0,0,7,7,7,,,,,,,,,,,,,,,,,,None,None,None,1,None,None,,,,,,,,,,,,,,,,,,,,,,,,,,,,,,,,,,,,,,,,,,,,,,,,,,,,,,,,,,,,,facundo,001,b,2019_Oct_10_1431,Experimento,3.1.5,60.092216795342516,
8,14,14,999,0.5,0:10,3,Cyan,None,0,0,1,28:50,./completed_changuitos/montage_gerhz_725.89_619.0.jpg,left,0,0,0,0,,,,,0,4,4,4,,,,,,,,,0,0,0,0,0,8,8,8,,,,,,,,,,,,,,,,,,None,None,None,1,None,None,,,,,,,,,,,,,,,,,,,,,,,,,,,,,,,,,,,,,,,,,,,,,,,,,,,,,,,,,,,,,facundo,001,b,2019_Oct_10_1431,Experimento,3.1.5,60.092216795342516,
8,14,14,999,0.5,0:10,3,Yellow,['space'],0,0,1,28:50,./completed_changuitos/montage_gerhz_725.89_619.0.jpg,left,0,0,0,0,,,,,0,4,4,4,,,,,,,,,0,0,0,0,0,9,9,9,,,,,,,,,,,,,,,,,,None,None,None,0,None,None,,,,,,,,,,,,,,,,,,,,,,,,,,,,,,,,,,,,,,,,,,,,,,,,,,,,,,,,,,,,,facundo,001,b,2019_Oct_10_1431,Experimento,3.1.5,60.092216795342516,
8,14,14,999,0.5,0:10,3,Magenta,None,0,0,1,28:50,./completed_changuitos/montage_gerhz_725.89_619.0.jpg,left,0,0,0,0,,,,,0,4,4,4,,,,,,,,,0,0,0,0,0,10,10,10,,,,,,,,,,,,,,,,,,None,None,None,1,None,None,,,,,,,,,,,,,,,,,,,,,,,,,,,,,,,,,,,,,,,,,,,,,,,,,,,,,,,,,,,,,facundo,001,b,2019_Oct_10_1431,Experimento,3.1.5,60.092216795342516,
8,14,14,999,0.5,0:10,3,Red,None,0,0,1,28:50,./completed_changuitos/montage_gerhz_725.89_619.0.jpg,left,0,0,0,0,,,,,0,4,4,4,,,,,,,,,0,0,0,0,0,11,11,11,,,,,,,,,,,,,,,,,,None,None,None,1,None,None,,,,,,,,,,,,,,,,,,,,,,,,,,,,,,,,,,,,,,,,,,,,,,,,,,,,,,,,,,,,,facundo,001,b,2019_Oct_10_1431,Experimento,3.1.5,60.092216795342516,
8,14,14,999,0.5,0:10,3,Magenta,['space'],0,0,1,28:50,./completed_changuitos/montage_gerhz_725.89_619.0.jpg,left,0,0,0,0,,,,,0,4,4,4,,,,,,,,,0,0,0,0,0,12,12,12,,,,,,,,,,,,,,,,,,None,None,None,0,None,None,,,,,,,,,,,,,,,,,,,,,,,,,,,,,,,,,,,,,,,,,,,,,,,,,,,,,,,,,,,,,facundo,001,b,2019_Oct_10_1431,Experimento,3.1.5,60.092216795342516,
8,14,14,999,0.5,0:10,3,Red,['space'],0,0,1,28:50,./completed_changuitos/montage_gerhz_725.89_619.0.jpg,left,0,0,0,0,,,,,0,4,4,4,,,,,,,,,0,0,0,0,0,13,13,13,,,,,,,,,,,,,,,,,,None,None,None,0,None,None,,,,,,,,,,,,,,,,,,,,,,,,,,,,,,,,,,,,,,,,,,,,,,,,,,,,,,,,,,,,,facundo,001,b,2019_Oct_10_1431,Experimento,3.1.5,60.092216795342516,
8,14,14,999,0.5,0:10,3,Yellow,None,0,0,1,28:50,./completed_changuitos/montage_gerhz_725.89_619.0.jpg,left,0,0,0,0,,,,,0,4,4,4,,,,,,,,,0,0,0,0,0,14,14,14,,,,,,,,,,,,,,,,,,None,None,None,1,None,None,,,,,,,,,,,,,,,,,,,,,,,,,,,,,,,,,,,,,,,,,,,,,,,,,,,,,,,,,,,,,facundo,001,b,2019_Oct_10_1431,Experimento,3.1.5,60.092216795342516,
8,14,14,999,0.5,0:10,3,Cyan,None,0,0,1,28:50,./completed_changuitos/montage_gerhz_725.89_619.0.jpg,left,0,0,0,0,,,,,0,4,4,4,,,,,,,,,0,0,0,0,0,15,15,15,,,,,,,,,,,,,,,,,,None,None,None,1,None,None,,,,,,,,,,,,,,,,,,,,,,,,,,,,,,,,,,,,,,,,,,,,,,,,,,,,,,,,,,,,,facundo,001,b,2019_Oct_10_1431,Experimento,3.1.5,60.092216795342516,
8,14,14,999,0.5,0:10,3,Green,None,0,0,1,28:50,./completed_changuitos/montage_gerhz_725.89_619.0.jpg,left,0,0,0,0,,,,,0,4,4,4,,,,,,,,,0,0,0,0,0,16,16,16,,,,,,,,,,,,,,,,,,None,None,None,1,None,None,,,,,,,,,,,,,,,,,,,,,,,,,,,,,,,,,,,,,,,,,,,,,,,,,,,,,,,,,,,,,facundo,001,b,2019_Oct_10_1431,Experimento,3.1.5,60.092216795342516,
8,14,14,999,0.5,0:10,3,White,None,0,0,1,28:50,./completed_changuitos/montage_gerhz_725.89_619.0.jpg,left,0,0,0,0,,,,,0,4,4,4,,,,,,,,,0,0,0,0,0,17,17,17,,,,,,,,,,,,,,,,,,None,None,None,1,None,None,,,,,,,,,,,,,,,,,,,,,,,,,,,,,,,,,,,,,,,,,,,,,,,,,,,,,,,,,,,,,facundo,001,b,2019_Oct_10_1431,Experimento,3.1.5,60.092216795342516,
8,14,14,999,0.5,0:10,3,Green,['space'],0,0,1,28:50,./completed_changuitos/montage_gerhz_725.89_619.0.jpg,left,0,0,0,0,,,,,0,4,4,4,,,,,,,,,0,0,0,0,0,18,18,18,,,,,,,,,,,,,,,,,,None,None,None,0,None,None,,,,,,,,,,,,,,,,,,,,,,,,,,,,,,,,,,,,,,,,,,,,,,,,,,,,,,,,,,,,,facundo,001,b,2019_Oct_10_1431,Experimento,3.1.5,60.092216795342516,
8,14,14,999,0.5,0:10,3,Red,None,0,0,1,28:50,./completed_changuitos/montage_gerhz_725.89_619.0.jpg,left,0,0,0,0,,,,,0,4,4,4,,,,,,,,,0,0,0,0,0,19,19,19,,,,,,,,,,,,,,,,,,None,None,None,1,None,None,,,,,,,,,,,,,,,,,,,,,,,,,,,,,,,,,,,,,,,,,,,,,,,,,,,,,,,,,,,,,facundo,001,b,2019_Oct_10_1431,Experimento,3.1.5,60.092216795342516,
8,14,14,999,0.5,0:10,3,Blue,None,0,0,1,28:50,./completed_changuitos/montage_gerhz_725.89_619.0.jpg,left,0,0,0,0,,,,,0,4,4,4,,,,,,,,,0,0,0,0,0,20,20,20,,,,,,,,,,,,,,,,,,None,None,None,1,None,None,,,,,,,,,,,,,,,,,,,,,,,,,,,,,,,,,,,,,,,,,,,,,,,,,,,,,,,,,,,,,facundo,001,b,2019_Oct_10_1431,Experimento,3.1.5,60.092216795342516,
8,14,14,999,0.5,0:10,3,Green,None,0,0,1,28:50,./completed_changuitos/montage_gerhz_725.89_619.0.jpg,left,0,0,0,0,,,,,0,4,4,4,,,,,,,,,0,0,0,0,0,21,21,21,,,,,,,,,,,,,,,,,,None,None,None,1,None,None,,,,,,,,,,,,,,,,,,,,,,,,,,,,,,,,,,,,,,,,,,,,,,,,,,,,,,,,,,,,,facundo,001,b,2019_Oct_10_1431,Experimento,3.1.5,60.092216795342516,
8,14,14,999,0.5,0:10,3,,,0,0,1,28:50,./completed_changuitos/montage_gerhz_725.89_619.0.jpg,left,0,0,0,0,,,,,0,4,4,4,,,,,,,,,0,0,0,0,,,,,,,,,,,,,,,,,,,,,,,,,,,,,359.3470665080022,None,right,0,0.76462808100041,359.3470665080022,None,359.3470665080022,None,,,,,,,,,,,,,,,,,,,,,,,,,,,,,,,,,,,,,,,,,,,,,,,,,,,facundo,001,b,2019_Oct_10_1431,Experimento,3.1.5,60.092216795342516,
8,14,14,999,0.5,0:10,3,,,0,0,1,28:50,,,0,0,0,0,,,,,0,4,4,4,,,,,,,,,,,,,,,,,,,,,,,,,,,,,,,,,,,,,,,,,,,,,,,,,,,,,,,,,,,,,,,,,,,,,,,,,,,,,,,,,,,,,,,,,,,,,,,,,,,,facundo,001,b,2019_Oct_10_1431,Experimento,3.1.5,60.092216795342516,
8,14,14,999,0.5,0:10,3,,,0,1,0,10:50,./completed_changuitos/montage_wgtjj_297.45_334.9.jpg,right,0,0,0,0,,,,,0,5,5,5,,,,,0,0,0,0,,,,,,,,,,,,,,,,,,,,,,,,,,,,,,,,,,,,,,,,,,360.3803464049997,361.7156966580005,361.7156966580005,369.7170731330043,369.7170731330043,383.72417213099834,left,0,0.7513990220031701,383.72417213099834,None,383.72417213099834,None,383.72417213099834,None,,,,,,,,,,,,,,,,,,,,,,,,,,,,,,,,,,,,facundo,001,b,2019_Oct_10_1431,Experimento,3.1.5,60.092216795342516,
8,14,14,999,0.5,0:10,3,,,0,1,0,10:50,,,0,0,0,0,,,,,0,5,5,5,,,,,,,,,,,,,,,,,,,,,,,,,,,,,,,,,,,,,,,,,,,,,,,,,,,,,,,,,,,,,,,,,,,,,,,,,,,,,,,,,,,,,,,,,,,,,,,,,,,,facundo,001,b,2019_Oct_10_1431,Experimento,3.1.5,60.092216795342516,
8,14,14,999,0.5,0:10,3,Yellow,None,0,0,1,15:50,./completed_changuitos/montage_jqmix_60.49_53.49.jpg,left,0,0,0,0,,,,,0,6,6,6,,,,,,,,,0,0,0,0,0,0,0,0,,,,,,,,,,,,,,384.7089931180017,387.2774828600013,387.2774828600013,None,395.31379715700314,395.7965912600048,None,1,395.31379715700314,None,,,,,,,,,,,,,,,,,,,,,,,,,,,,,,,,,,,,,,,,,,,,,,,,,,,,,,,,,,,,,facundo,001,b,2019_Oct_10_1431,Experimento,3.1.5,60.092216795342516,
8,14,14,999,0.5,0:10,3,White,['space'],0,0,1,15:50,./completed_changuitos/montage_jqmix_60.49_53.49.jpg,left,0,0,0,0,,,,,0,6,6,6,,,,,,,,,0,0,0,0,0,1,1,1,,,,,,,,,,,,,,,,,,397.3152864920048,397.7972038020016,None,0,397.3152864920048,None,,,,,,,,,,,,,,,,,,,,,,,,,,,,,,,,,,,,,,,,,,,,,,,,,,,,,,,,,,,,,facundo,001,b,2019_Oct_10_1431,Experimento,3.1.5,60.092216795342516,
8,14,14,999,0.5,0:10,3,Magenta,None,0,0,1,15:50,./completed_changuitos/montage_jqmix_60.49_53.49.jpg,left,0,0,0,0,,,,,0,6,6,6,,,,,,,,,0,0,0,0,0,2,2,2,,,,,,,,,,,,,,,,,,399.31687934100046,399.7992490340039,None,1,399.31687934100046,None,,,,,,,,,,,,,,,,,,,,,,,,,,,,,,,,,,,,,,,,,,,,,,,,,,,,,,,,,,,,,facundo,001,b,2019_Oct_10_1431,Experimento,3.1.5,60.092216795342516,
8,14,14,999,0.5,0:10,3,Cyan,None,0,0,1,15:50,./completed_changuitos/montage_jqmix_60.49_53.49.jpg,left,0,0,0,0,,,,,0,6,6,6,,,,,,,,,0,0,0,0,0,3,3,3,,,,,,,,,,,,,,,,,,401.31695915000455,401.79943249300413,None,1,401.31695915000455,None,,,,,,,,,,,,,,,,,,,,,,,,,,,,,,,,,,,,,,,,,,,,,,,,,,,,,,,,,,,,,facundo,001,b,2019_Oct_10_1431,Experimento,3.1.5,60.092216795342516,
8,14,14,999,0.5,0:10,3,Blue,None,0,0,1,15:50,./completed_changuitos/montage_jqmix_60.49_53.49.jpg,left,0,0,0,0,,,,,0,6,6,6,,,,,,,,,0,0,0,0,0,4,4,4,,,,,,,,,,,,,,,,,,403.31869768899924,403.8000583730027,None,1,403.31869768899924,None,,,,,,,,,,,,,,,,,,,,,,,,,,,,,,,,,,,,,,,,,,,,,,,,,,,,,,,,,,,,,facundo,001,b,2019_Oct_10_1431,Experimento,3.1.5,60.092216795342516,
8,14,14,999,0.5,0:10,3,Magenta,None,0,0,1,15:50,./completed_changuitos/montage_jqmix_60.49_53.49.jpg,left,0,0,0,0,,,,,0,6,6,6,,,,,,,,,0,0,0,0,0,5,5,5,,,,,,,,,,,,,,,,,,405.31980945399846,405.80132224900444,None,1,405.31980945399846,None,,,,,,,,,,,,,,,,,,,,,,,,,,,,,,,,,,,,,,,,,,,,,,,,,,,,,,,,,,,,,facundo,001,b,2019_Oct_10_1431,Experimento,3.1.5,60.092216795342516,
8,14,14,999,0.5,0:10,3,Blue,['space'],0,0,1,15:50,./completed_changuitos/montage_jqmix_60.49_53.49.jpg,left,0,0,0,0,,,,,0,6,6,6,,,,,,,,,0,0,0,0,0,6,6,6,,,,,,,,,,,,,,,,,,407.3198095789994,407.8027179790006,['return'],0,407.3198095789994,None,[0.7299413330038078],,,,,,,,,,,,,,,,,,,,,,,,,,,,,,,,,,,,,,,,,,,,,,,,,,,,,,,,,,,,facundo,001,b,2019_Oct_10_1431,Experimento,3.1.5,60.092216795342516,
8,14,14,999,0.5,0:10,3,Cyan,None,0,0,1,15:50,./completed_changuitos/montage_jqmix_60.49_53.49.jpg,left,0,0,0,0,,,,,0,6,6,6,,,,,,,,,0,0,0,0,0,7,7,7,,,,,,,,,,,,,,,,,,None,None,None,1,None,None,,,,,,,,,,,,,,,,,,,,,,,,,,,,,,,,,,,,,,,,,,,,,,,,,,,,,,,,,,,,,facundo,001,b,2019_Oct_10_1431,Experimento,3.1.5,60.092216795342516,
8,14,14,999,0.5,0:10,3,Yellow,None,0,0,1,15:50,./completed_changuitos/montage_jqmix_60.49_53.49.jpg,left,0,0,0,0,,,,,0,6,6,6,,,,,,,,,0,0,0,0,0,8,8,8,,,,,,,,,,,,,,,,,,None,None,None,1,None,None,,,,,,,,,,,,,,,,,,,,,,,,,,,,,,,,,,,,,,,,,,,,,,,,,,,,,,,,,,,,,facundo,001,b,2019_Oct_10_1431,Experimento,3.1.5,60.092216795342516,
8,14,14,999,0.5,0:10,3,Cyan,None,0,0,1,15:50,./completed_changuitos/montage_jqmix_60.49_53.49.jpg,left,0,0,0,0,,,,,0,6,6,6,,,,,,,,,0,0,0,0,0,9,9,9,,,,,,,,,,,,,,,,,,None,None,None,1,None,None,,,,,,,,,,,,,,,,,,,,,,,,,,,,,,,,,,,,,,,,,,,,,,,,,,,,,,,,,,,,,facundo,001,b,2019_Oct_10_1431,Experimento,3.1.5,60.092216795342516,
8,14,14,999,0.5,0:10,3,Blue,None,0,0,1,15:50,./completed_changuitos/montage_jqmix_60.49_53.49.jpg,left,0,0,0,0,,,,,0,6,6,6,,,,,,,,,0,0,0,0,0,10,10,10,,,,,,,,,,,,,,,,,,None,None,None,1,None,None,,,,,,,,,,,,,,,,,,,,,,,,,,,,,,,,,,,,,,,,,,,,,,,,,,,,,,,,,,,,,facundo,001,b,2019_Oct_10_1431,Experimento,3.1.5,60.092216795342516,
8,14,14,999,0.5,0:10,3,Cyan,['space'],0,0,1,15:50,./completed_changuitos/montage_jqmix_60.49_53.49.jpg,left,0,0,0,0,,,,,0,6,6,6,,,,,,,,,0,0,0,0,0,11,11,11,,,,,,,,,,,,,,,,,,None,None,None,0,None,None,,,,,,,,,,,,,,,,,,,,,,,,,,,,,,,,,,,,,,,,,,,,,,,,,,,,,,,,,,,,,facundo,001,b,2019_Oct_10_1431,Experimento,3.1.5,60.092216795342516,
8,14,14,999,0.5,0:10,3,Magenta,None,0,0,1,15:50,./completed_changuitos/montage_jqmix_60.49_53.49.jpg,left,0,0,0,0,,,,,0,6,6,6,,,,,,,,,0,0,0,0,0,12,12,12,,,,,,,,,,,,,,,,,,None,None,None,1,None,None,,,,,,,,,,,,,,,,,,,,,,,,,,,,,,,,,,,,,,,,,,,,,,,,,,,,,,,,,,,,,facundo,001,b,2019_Oct_10_1431,Experimento,3.1.5,60.092216795342516,
8,14,14,999,0.5,0:10,3,Red,None,0,0,1,15:50,./completed_changuitos/montage_jqmix_60.49_53.49.jpg,left,0,0,0,0,,,,,0,6,6,6,,,,,,,,,0,0,0,0,0,13,13,13,,,,,,,,,,,,,,,,,,None,None,None,1,None,None,,,,,,,,,,,,,,,,,,,,,,,,,,,,,,,,,,,,,,,,,,,,,,,,,,,,,,,,,,,,,facundo,001,b,2019_Oct_10_1431,Experimento,3.1.5,60.092216795342516,
8,14,14,999,0.5,0:10,3,Magenta,['space'],0,0,1,15:50,./completed_changuitos/montage_jqmix_60.49_53.49.jpg,left,0,0,0,0,,,,,0,6,6,6,,,,,,,,,0,0,0,0,0,14,14,14,,,,,,,,,,,,,,,,,,None,None,None,0,None,None,,,,,,,,,,,,,,,,,,,,,,,,,,,,,,,,,,,,,,,,,,,,,,,,,,,,,,,,,,,,,facundo,001,b,2019_Oct_10_1431,Experimento,3.1.5,60.092216795342516,
8,14,14,999,0.5,0:10,3,Green,None,0,0,1,15:50,./completed_changuitos/montage_jqmix_60.49_53.49.jpg,left,0,0,0,0,,,,,0,6,6,6,,,,,,,,,0,0,0,0,0,15,15,15,,,,,,,,,,,,,,,,,,None,None,None,1,None,None,,,,,,,,,,,,,,,,,,,,,,,,,,,,,,,,,,,,,,,,,,,,,,,,,,,,,,,,,,,,,facundo,001,b,2019_Oct_10_1431,Experimento,3.1.5,60.092216795342516,
8,14,14,999,0.5,0:10,3,Yellow,['space'],0,0,1,15:50,./completed_changuitos/montage_jqmix_60.49_53.49.jpg,left,0,0,0,0,,,,,0,6,6,6,,,,,,,,,0,0,0,0,0,16,16,16,,,,,,,,,,,,,,,,,,None,None,None,0,None,None,,,,,,,,,,,,,,,,,,,,,,,,,,,,,,,,,,,,,,,,,,,,,,,,,,,,,,,,,,,,,facundo,001,b,2019_Oct_10_1431,Experimento,3.1.5,60.092216795342516,
8,14,14,999,0.5,0:10,3,Blue,None,0,0,1,15:50,./completed_changuitos/montage_jqmix_60.49_53.49.jpg,left,0,0,0,0,,,,,0,6,6,6,,,,,,,,,0,0,0,0,0,17,17,17,,,,,,,,,,,,,,,,,,None,None,None,1,None,None,,,,,,,,,,,,,,,,,,,,,,,,,,,,,,,,,,,,,,,,,,,,,,,,,,,,,,,,,,,,,facundo,001,b,2019_Oct_10_1431,Experimento,3.1.5,60.092216795342516,
8,14,14,999,0.5,0:10,3,Cyan,None,0,0,1,15:50,./completed_changuitos/montage_jqmix_60.49_53.49.jpg,left,0,0,0,0,,,,,0,6,6,6,,,,,,,,,0,0,0,0,0,18,18,18,,,,,,,,,,,,,,,,,,None,None,None,1,None,None,,,,,,,,,,,,,,,,,,,,,,,,,,,,,,,,,,,,,,,,,,,,,,,,,,,,,,,,,,,,,facundo,001,b,2019_Oct_10_1431,Experimento,3.1.5,60.092216795342516,
8,14,14,999,0.5,0:10,3,Blue,['space'],0,0,1,15:50,./completed_changuitos/montage_jqmix_60.49_53.49.jpg,left,0,0,0,0,,,,,0,6,6,6,,,,,,,,,0,0,0,0,0,19,19,19,,,,,,,,,,,,,,,,,,None,None,None,0,None,None,,,,,,,,,,,,,,,,,,,,,,,,,,,,,,,,,,,,,,,,,,,,,,,,,,,,,,,,,,,,,facundo,001,b,2019_Oct_10_1431,Experimento,3.1.5,60.092216795342516,
8,14,14,999,0.5,0:10,3,Yellow,None,0,0,1,15:50,./completed_changuitos/montage_jqmix_60.49_53.49.jpg,left,0,0,0,0,,,,,0,6,6,6,,,,,,,,,0,0,0,0,0,20,20,20,,,,,,,,,,,,,,,,,,None,None,None,1,None,None,,,,,,,,,,,,,,,,,,,,,,,,,,,,,,,,,,,,,,,,,,,,,,,,,,,,,,,,,,,,,facundo,001,b,2019_Oct_10_1431,Experimento,3.1.5,60.092216795342516,
8,14,14,999,0.5,0:10,3,Cyan,None,0,0,1,15:50,./completed_changuitos/montage_jqmix_60.49_53.49.jpg,left,0,0,0,0,,,,,0,6,6,6,,,,,,,,,0,0,0,0,0,21,21,21,,,,,,,,,,,,,,,,,,None,None,None,1,None,None,,,,,,,,,,,,,,,,,,,,,,,,,,,,,,,,,,,,,,,,,,,,,,,,,,,,,,,,,,,,,facundo,001,b,2019_Oct_10_1431,Experimento,3.1.5,60.092216795342516,
8,14,14,999,0.5,0:10,3,Yellow,['space'],0,0,1,15:50,./completed_changuitos/montage_jqmix_60.49_53.49.jpg,left,0,0,0,0,,,,,0,6,6,6,,,,,,,,,0,0,0,0,0,22,22,22,,,,,,,,,,,,,,,,,,None,None,None,0,None,None,,,,,,,,,,,,,,,,,,,,,,,,,,,,,,,,,,,,,,,,,,,,,,,,,,,,,,,,,,,,,facundo,001,b,2019_Oct_10_1431,Experimento,3.1.5,60.092216795342516,
8,14,14,999,0.5,0:10,3,Magenta,None,0,0,1,15:50,./completed_changuitos/montage_jqmix_60.49_53.49.jpg,left,0,0,0,0,,,,,0,6,6,6,,,,,,,,,0,0,0,0,0,23,23,23,,,,,,,,,,,,,,,,,,None,None,None,1,None,None,,,,,,,,,,,,,,,,,,,,,,,,,,,,,,,,,,,,,,,,,,,,,,,,,,,,,,,,,,,,,facundo,001,b,2019_Oct_10_1431,Experimento,3.1.5,60.092216795342516,
8,14,14,999,0.5,0:10,3,Red,None,0,0,1,15:50,./completed_changuitos/montage_jqmix_60.49_53.49.jpg,left,0,0,0,0,,,,,0,6,6,6,,,,,,,,,0,0,0,0,0,24,24,24,,,,,,,,,,,,,,,,,,None,None,None,1,None,None,,,,,,,,,,,,,,,,,,,,,,,,,,,,,,,,,,,,,,,,,,,,,,,,,,,,,,,,,,,,,facundo,001,b,2019_Oct_10_1431,Experimento,3.1.5,60.092216795342516,
8,14,14,999,0.5,0:10,3,Magenta,['space'],0,0,1,15:50,./completed_changuitos/montage_jqmix_60.49_53.49.jpg,left,0,0,0,0,,,,,0,6,6,6,,,,,,,,,0,0,0,0,0,25,25,25,,,,,,,,,,,,,,,,,,None,None,None,0,None,None,,,,,,,,,,,,,,,,,,,,,,,,,,,,,,,,,,,,,,,,,,,,,,,,,,,,,,,,,,,,,facundo,001,b,2019_Oct_10_1431,Experimento,3.1.5,60.092216795342516,
8,14,14,999,0.5,0:10,3,Red,['space'],0,0,1,15:50,./completed_changuitos/montage_jqmix_60.49_53.49.jpg,left,0,0,0,0,,,,,0,6,6,6,,,,,,,,,0,0,0,0,0,26,26,26,,,,,,,,,,,,,,,,,,None,None,None,0,None,None,,,,,,,,,,,,,,,,,,,,,,,,,,,,,,,,,,,,,,,,,,,,,,,,,,,,,,,,,,,,,facundo,001,b,2019_Oct_10_1431,Experimento,3.1.5,60.092216795342516,
8,14,14,999,0.5,0:10,3,Yellow,None,0,0,1,15:50,./completed_changuitos/montage_jqmix_60.49_53.49.jpg,left,0,0,0,0,,,,,0,6,6,6,,,,,,,,,0,0,0,0,0,27,27,27,,,,,,,,,,,,,,,,,,None,None,None,1,None,None,,,,,,,,,,,,,,,,,,,,,,,,,,,,,,,,,,,,,,,,,,,,,,,,,,,,,,,,,,,,,facundo,001,b,2019_Oct_10_1431,Experimento,3.1.5,60.092216795342516,
8,14,14,999,0.5,0:10,3,Cyan,None,0,0,1,15:50,./completed_changuitos/montage_jqmix_60.49_53.49.jpg,left,0,0,0,0,,,,,0,6,6,6,,,,,,,,,0,0,0,0,0,28,28,28,,,,,,,,,,,,,,,,,,None,None,None,1,None,None,,,,,,,,,,,,,,,,,,,,,,,,,,,,,,,,,,,,,,,,,,,,,,,,,,,,,,,,,,,,,facundo,001,b,2019_Oct_10_1431,Experimento,3.1.5,60.092216795342516,
8,14,14,999,0.5,0:10,3,Green,None,0,0,1,15:50,./completed_changuitos/montage_jqmix_60.49_53.49.jpg,left,0,0,0,0,,,,,0,6,6,6,,,,,,,,,0,0,0,0,0,29,29,29,,,,,,,,,,,,,,,,,,None,None,None,1,None,None,,,,,,,,,,,,,,,,,,,,,,,,,,,,,,,,,,,,,,,,,,,,,,,,,,,,,,,,,,,,,facundo,001,b,2019_Oct_10_1431,Experimento,3.1.5,60.092216795342516,
8,14,14,999,0.5,0:10,3,White,None,0,0,1,15:50,./completed_changuitos/montage_jqmix_60.49_53.49.jpg,left,0,0,0,0,,,,,0,6,6,6,,,,,,,,,0,0,0,0,0,30,30,30,,,,,,,,,,,,,,,,,,None,None,None,1,None,None,,,,,,,,,,,,,,,,,,,,,,,,,,,,,,,,,,,,,,,,,,,,,,,,,,,,,,,,,,,,,facundo,001,b,2019_Oct_10_1431,Experimento,3.1.5,60.092216795342516,
8,14,14,999,0.5,0:10,3,Green,['space'],0,0,1,15:50,./completed_changuitos/montage_jqmix_60.49_53.49.jpg,left,0,0,0,0,,,,,0,6,6,6,,,,,,,,,0,0,0,0,0,31,31,31,,,,,,,,,,,,,,,,,,None,None,None,0,None,None,,,,,,,,,,,,,,,,,,,,,,,,,,,,,,,,,,,,,,,,,,,,,,,,,,,,,,,,,,,,,facundo,001,b,2019_Oct_10_1431,Experimento,3.1.5,60.092216795342516,
8,14,14,999,0.5,0:10,3,Red,None,0,0,1,15:50,./completed_changuitos/montage_jqmix_60.49_53.49.jpg,left,0,0,0,0,,,,,0,6,6,6,,,,,,,,,0,0,0,0,0,32,32,32,,,,,,,,,,,,,,,,,,None,None,None,1,None,None,,,,,,,,,,,,,,,,,,,,,,,,,,,,,,,,,,,,,,,,,,,,,,,,,,,,,,,,,,,,,facundo,001,b,2019_Oct_10_1431,Experimento,3.1.5,60.092216795342516,
8,14,14,999,0.5,0:10,3,Blue,None,0,0,1,15:50,./completed_changuitos/montage_jqmix_60.49_53.49.jpg,left,0,0,0,0,,,,,0,6,6,6,,,,,,,,,0,0,0,0,0,33,33,33,,,,,,,,,,,,,,,,,,None,None,None,1,None,None,,,,,,,,,,,,,,,,,,,,,,,,,,,,,,,,,,,,,,,,,,,,,,,,,,,,,,,,,,,,,facundo,001,b,2019_Oct_10_1431,Experimento,3.1.5,60.092216795342516,
8,14,14,999,0.5,0:10,3,Green,None,0,0,1,15:50,./completed_changuitos/montage_jqmix_60.49_53.49.jpg,left,0,0,0,0,,,,,0,6,6,6,,,,,,,,,0,0,0,0,0,34,34,34,,,,,,,,,,,,,,,,,,None,None,None,1,None,None,,,,,,,,,,,,,,,,,,,,,,,,,,,,,,,,,,,,,,,,,,,,,,,,,,,,,,,,,,,,,facundo,001,b,2019_Oct_10_1431,Experimento,3.1.5,60.092216795342516,
8,14,14,999,0.5,0:10,3,,,0,0,1,15:50,./completed_changuitos/montage_jqmix_60.49_53.49.jpg,left,0,0,0,0,,,,,0,6,6,6,,,,,,,,,0,0,0,0,,,,,,,,,,,,,,,,,,,,,,,,,,,,,409.9046700250037,None,right,0,0.6218288889940595,409.9046700250037,None,409.9046700250037,None,,,,,,,,,,,,,,,,,,,,,,,,,,,,,,,,,,,,,,,,,,,,,,,,,,,facundo,001,b,2019_Oct_10_1431,Experimento,3.1.5,60.092216795342516,
8,14,14,999,0.5,0:10,3,,,0,0,1,15:50,,,0,0,0,0,,,,,0,6,6,6,,,,,,,,,,,,,,,,,,,,,,,,,,,,,,,,,,,,,,,,,,,,,,,,,,,,,,,,,,,,,,,,,,,,,,,,,,,,,,,,,,,,,,,,,,,,,,,,,,,,facundo,001,b,2019_Oct_10_1431,Experimento,3.1.5,60.092216795342516,
8,14,14,999,0.5,0:10,3,,,0,1,0,19:50,./completed_changuitos/montage_alhrk_63.05_71.19.jpg,right,0,0,0,0,,,,,0,7,7,7,,,,,0,0,0,0,,,,,,,,,,,,,,,,,,,,,,,,,,,,,,,,,,,,,,,,,,410.8066653290007,412.4049135690002,412.4049135690002,420.4075697990047,420.4075697990047,434.4145687870041,right,1,0.6370821020027506,434.4145687870041,None,434.4145687870041,None,434.4145687870041,None,,,,,,,,,,,,,,,,,,,,,,,,,,,,,,,,,,,,facundo,001,b,2019_Oct_10_1431,Experimento,3.1.5,60.092216795342516,
8,14,14,999,0.5,0:10,3,,,0,1,0,19:50,,,0,0,0,0,,,,,0,7,7,7,,,,,,,,,,,,,,,,,,,,,,,,,,,,,,,,,,,,,,,,,,,,,,,,,,,,,,,,,,,,,,,,,,,,,,,,,,,,,,,,,,,,,,,,,,,,,,,,,,,,facundo,001,b,2019_Oct_10_1431,Experimento,3.1.5,60.092216795342516,
8,14,14,999,0.5,0:10,3,Magenta,None,0,0,1,20:50,./completed_changuitos/montage_tnjtg_125.19_108.99.jpg,left,0,0,0,0,,,,,0,8,8,8,,,,,,,,,0,0,0,0,0,0,0,0,,,,,,,,,,,,,,435.3172959479998,436.35008524300065,436.35008524300065,None,444.38698382900475,444.8698663460018,None,1,444.38698382900475,None,,,,,,,,,,,,,,,,,,,,,,,,,,,,,,,,,,,,,,,,,,,,,,,,,,,,,,,,,,,,,facundo,001,b,2019_Oct_10_1431,Experimento,3.1.5,60.092216795342516,
8,14,14,999,0.5,0:10,3,Blue,['space'],0,0,1,20:50,./completed_changuitos/montage_tnjtg_125.19_108.99.jpg,left,0,0,0,0,,,,,0,8,8,8,,,,,,,,,0,0,0,0,0,1,1,1,,,,,,,,,,,,,,,,,,446.3882185170005,446.8710028589994,None,0,446.3882185170005,None,,,,,,,,,,,,,,,,,,,,,,,,,,,,,,,,,,,,,,,,,,,,,,,,,,,,,,,,,,,,,facundo,001,b,2019_Oct_10_1431,Experimento,3.1.5,60.092216795342516,
8,14,14,999,0.5,0:10,3,Cyan,None,0,0,1,20:50,./completed_changuitos/montage_tnjtg_125.19_108.99.jpg,left,0,0,0,0,,,,,0,8,8,8,,,,,,,,,0,0,0,0,0,2,2,2,,,,,,,,,,,,,,,,,,448.40620916699845,448.87182911700074,None,1,448.40620916699845,None,,,,,,,,,,,,,,,,,,,,,,,,,,,,,,,,,,,,,,,,,,,,,,,,,,,,,,,,,,,,,facundo,001,b,2019_Oct_10_1431,Experimento,3.1.5,60.092216795342516,
8,14,14,999,0.5,0:10,3,Yellow,None,0,0,1,20:50,./completed_changuitos/montage_tnjtg_125.19_108.99.jpg,left,0,0,0,0,,,,,0,8,8,8,,,,,,,,,0,0,0,0,0,3,3,3,,,,,,,,,,,,,,,,,,450.39404808499967,450.8727255449994,None,1,450.39404808499967,None,,,,,,,,,,,,,,,,,,,,,,,,,,,,,,,,,,,,,,,,,,,,,,,,,,,,,,,,,,,,,facundo,001,b,2019_Oct_10_1431,Experimento,3.1.5,60.092216795342516,
8,14,14,999,0.5,0:10,3,Cyan,None,0,0,1,20:50,./completed_changuitos/montage_tnjtg_125.19_108.99.jpg,left,0,0,0,0,,,,,0,8,8,8,,,,,,,,,0,0,0,0,0,4,4,4,,,,,,,,,,,,,,,,,,452.39110373100266,452.87388335500145,['return'],0,452.39110373100266,None,[0.4813988970054197],,,,,,,,,,,,,,,,,,,,,,,,,,,,,,,,,,,,,,,,,,,,,,,,,,,,,,,,,,,,facundo,001,b,2019_Oct_10_1431,Experimento,3.1.5,60.092216795342516,
8,14,14,999,0.5,0:10,3,Blue,None,0,0,1,20:50,./completed_changuitos/montage_tnjtg_125.19_108.99.jpg,left,0,0,0,0,,,,,0,8,8,8,,,,,,,,,0,0,0,0,0,5,5,5,,,,,,,,,,,,,,,,,,454.3918989110025,454.87463287800347,None,1,454.3918989110025,None,,,,,,,,,,,,,,,,,,,,,,,,,,,,,,,,,,,,,,,,,,,,,,,,,,,,,,,,,,,,,facundo,001,b,2019_Oct_10_1431,Experimento,3.1.5,60.092216795342516,
8,14,14,999,0.5,0:10,3,Cyan,['space'],0,0,1,20:50,./completed_changuitos/montage_tnjtg_125.19_108.99.jpg,left,0,0,0,0,,,,,0,8,8,8,,,,,,,,,0,0,0,0,0,6,6,6,,,,,,,,,,,,,,,,,,456.39301238700136,456.8755484630019,['return'],0,456.39301238700136,None,[0.39116982399718836],,,,,,,,,,,,,,,,,,,,,,,,,,,,,,,,,,,,,,,,,,,,,,,,,,,,,,,,,,,,facundo,001,b,2019_Oct_10_1431,Experimento,3.1.5,60.092216795342516,
8,14,14,999,0.5,0:10,3,Magenta,None,0,0,1,20:50,./completed_changuitos/montage_tnjtg_125.19_108.99.jpg,left,0,0,0,0,,,,,0,8,8,8,,,,,,,,,0,0,0,0,0,7,7,7,,,,,,,,,,,,,,,,,,None,None,None,1,None,None,,,,,,,,,,,,,,,,,,,,,,,,,,,,,,,,,,,,,,,,,,,,,,,,,,,,,,,,,,,,,facundo,001,b,2019_Oct_10_1431,Experimento,3.1.5,60.092216795342516,
8,14,14,999,0.5,0:10,3,Red,None,0,0,1,20:50,./completed_changuitos/montage_tnjtg_125.19_108.99.jpg,left,0,0,0,0,,,,,0,8,8,8,,,,,,,,,0,0,0,0,0,8,8,8,,,,,,,,,,,,,,,,,,None,None,None,1,None,None,,,,,,,,,,,,,,,,,,,,,,,,,,,,,,,,,,,,,,,,,,,,,,,,,,,,,,,,,,,,,facundo,001,b,2019_Oct_10_1431,Experimento,3.1.5,60.092216795342516,
8,14,14,999,0.5,0:10,3,Magenta,['space'],0,0,1,20:50,./completed_changuitos/montage_tnjtg_125.19_108.99.jpg,left,0,0,0,0,,,,,0,8,8,8,,,,,,,,,0,0,0,0,0,9,9,9,,,,,,,,,,,,,,,,,,None,None,None,0,None,None,,,,,,,,,,,,,,,,,,,,,,,,,,,,,,,,,,,,,,,,,,,,,,,,,,,,,,,,,,,,,facundo,001,b,2019_Oct_10_1431,Experimento,3.1.5,60.092216795342516,
8,14,14,999,0.5,0:10,3,Green,None,0,0,1,20:50,./completed_changuitos/montage_tnjtg_125.19_108.99.jpg,left,0,0,0,0,,,,,0,8,8,8,,,,,,,,,0,0,0,0,0,10,10,10,,,,,,,,,,,,,,,,,,None,None,None,1,None,None,,,,,,,,,,,,,,,,,,,,,,,,,,,,,,,,,,,,,,,,,,,,,,,,,,,,,,,,,,,,,facundo,001,b,2019_Oct_10_1431,Experimento,3.1.5,60.092216795342516,
8,14,14,999,0.5,0:10,3,Yellow,['space'],0,0,1,20:50,./completed_changuitos/montage_tnjtg_125.19_108.99.jpg,left,0,0,0,0,,,,,0,8,8,8,,,,,,,,,0,0,0,0,0,11,11,11,,,,,,,,,,,,,,,,,,None,None,None,0,None,None,,,,,,,,,,,,,,,,,,,,,,,,,,,,,,,,,,,,,,,,,,,,,,,,,,,,,,,,,,,,,facundo,001,b,2019_Oct_10_1431,Experimento,3.1.5,60.092216795342516,
8,14,14,999,0.5,0:10,3,Blue,None,0,0,1,20:50,./completed_changuitos/montage_tnjtg_125.19_108.99.jpg,left,0,0,0,0,,,,,0,8,8,8,,,,,,,,,0,0,0,0,0,12,12,12,,,,,,,,,,,,,,,,,,None,None,None,1,None,None,,,,,,,,,,,,,,,,,,,,,,,,,,,,,,,,,,,,,,,,,,,,,,,,,,,,,,,,,,,,,facundo,001,b,2019_Oct_10_1431,Experimento,3.1.5,60.092216795342516,
8,14,14,999,0.5,0:10,3,Cyan,None,0,0,1,20:50,./completed_changuitos/montage_tnjtg_125.19_108.99.jpg,left,0,0,0,0,,,,,0,8,8,8,,,,,,,,,0,0,0,0,0,13,13,13,,,,,,,,,,,,,,,,,,None,None,None,1,None,None,,,,,,,,,,,,,,,,,,,,,,,,,,,,,,,,,,,,,,,,,,,,,,,,,,,,,,,,,,,,,facundo,001,b,2019_Oct_10_1431,Experimento,3.1.5,60.092216795342516,
8,14,14,999,0.5,0:10,3,Blue,['space'],0,0,1,20:50,./completed_changuitos/montage_tnjtg_125.19_108.99.jpg,left,0,0,0,0,,,,,0,8,8,8,,,,,,,,,0,0,0,0,0,14,14,14,,,,,,,,,,,,,,,,,,None,None,None,0,None,None,,,,,,,,,,,,,,,,,,,,,,,,,,,,,,,,,,,,,,,,,,,,,,,,,,,,,,,,,,,,,facundo,001,b,2019_Oct_10_1431,Experimento,3.1.5,60.092216795342516,
8,14,14,999,0.5,0:10,3,Yellow,None,0,0,1,20:50,./completed_changuitos/montage_tnjtg_125.19_108.99.jpg,left,0,0,0,0,,,,,0,8,8,8,,,,,,,,,0,0,0,0,0,15,15,15,,,,,,,,,,,,,,,,,,None,None,None,1,None,None,,,,,,,,,,,,,,,,,,,,,,,,,,,,,,,,,,,,,,,,,,,,,,,,,,,,,,,,,,,,,facundo,001,b,2019_Oct_10_1431,Experimento,3.1.5,60.092216795342516,
8,14,14,999,0.5,0:10,3,Cyan,None,0,0,1,20:50,./completed_changuitos/montage_tnjtg_125.19_108.99.jpg,left,0,0,0,0,,,,,0,8,8,8,,,,,,,,,0,0,0,0,0,16,16,16,,,,,,,,,,,,,,,,,,None,None,None,1,None,None,,,,,,,,,,,,,,,,,,,,,,,,,,,,,,,,,,,,,,,,,,,,,,,,,,,,,,,,,,,,,facundo,001,b,2019_Oct_10_1431,Experimento,3.1.5,60.092216795342516,
8,14,14,999,0.5,0:10,3,Yellow,['space'],0,0,1,20:50,./completed_changuitos/montage_tnjtg_125.19_108.99.jpg,left,0,0,0,0,,,,,0,8,8,8,,,,,,,,,0,0,0,0,0,17,17,17,,,,,,,,,,,,,,,,,,None,None,None,0,None,None,,,,,,,,,,,,,,,,,,,,,,,,,,,,,,,,,,,,,,,,,,,,,,,,,,,,,,,,,,,,,facundo,001,b,2019_Oct_10_1431,Experimento,3.1.5,60.092216795342516,
8,14,14,999,0.5,0:10,3,Magenta,None,0,0,1,20:50,./completed_changuitos/montage_tnjtg_125.19_108.99.jpg,left,0,0,0,0,,,,,0,8,8,8,,,,,,,,,0,0,0,0,0,18,18,18,,,,,,,,,,,,,,,,,,None,None,None,1,None,None,,,,,,,,,,,,,,,,,,,,,,,,,,,,,,,,,,,,,,,,,,,,,,,,,,,,,,,,,,,,,facundo,001,b,2019_Oct_10_1431,Experimento,3.1.5,60.092216795342516,
8,14,14,999,0.5,0:10,3,Red,None,0,0,1,20:50,./completed_changuitos/montage_tnjtg_125.19_108.99.jpg,left,0,0,0,0,,,,,0,8,8,8,,,,,,,,,0,0,0,0,0,19,19,19,,,,,,,,,,,,,,,,,,None,None,None,1,None,None,,,,,,,,,,,,,,,,,,,,,,,,,,,,,,,,,,,,,,,,,,,,,,,,,,,,,,,,,,,,,facundo,001,b,2019_Oct_10_1431,Experimento,3.1.5,60.092216795342516,
8,14,14,999,0.5,0:10,3,Magenta,['space'],0,0,1,20:50,./completed_changuitos/montage_tnjtg_125.19_108.99.jpg,left,0,0,0,0,,,,,0,8,8,8,,,,,,,,,0,0,0,0,0,20,20,20,,,,,,,,,,,,,,,,,,None,None,None,0,None,None,,,,,,,,,,,,,,,,,,,,,,,,,,,,,,,,,,,,,,,,,,,,,,,,,,,,,,,,,,,,,facundo,001,b,2019_Oct_10_1431,Experimento,3.1.5,60.092216795342516,
8,14,14,999,0.5,0:10,3,Red,['space'],0,0,1,20:50,./completed_changuitos/montage_tnjtg_125.19_108.99.jpg,left,0,0,0,0,,,,,0,8,8,8,,,,,,,,,0,0,0,0,0,21,21,21,,,,,,,,,,,,,,,,,,None,None,None,0,None,None,,,,,,,,,,,,,,,,,,,,,,,,,,,,,,,,,,,,,,,,,,,,,,,,,,,,,,,,,,,,,facundo,001,b,2019_Oct_10_1431,Experimento,3.1.5,60.092216795342516,
8,14,14,999,0.5,0:10,3,Yellow,None,0,0,1,20:50,./completed_changuitos/montage_tnjtg_125.19_108.99.jpg,left,0,0,0,0,,,,,0,8,8,8,,,,,,,,,0,0,0,0,0,22,22,22,,,,,,,,,,,,,,,,,,None,None,None,1,None,None,,,,,,,,,,,,,,,,,,,,,,,,,,,,,,,,,,,,,,,,,,,,,,,,,,,,,,,,,,,,,facundo,001,b,2019_Oct_10_1431,Experimento,3.1.5,60.092216795342516,
8,14,14,999,0.5,0:10,3,Cyan,None,0,0,1,20:50,./completed_changuitos/montage_tnjtg_125.19_108.99.jpg,left,0,0,0,0,,,,,0,8,8,8,,,,,,,,,0,0,0,0,0,23,23,23,,,,,,,,,,,,,,,,,,None,None,None,1,None,None,,,,,,,,,,,,,,,,,,,,,,,,,,,,,,,,,,,,,,,,,,,,,,,,,,,,,,,,,,,,,facundo,001,b,2019_Oct_10_1431,Experimento,3.1.5,60.092216795342516,
8,14,14,999,0.5,0:10,3,Green,None,0,0,1,20:50,./completed_changuitos/montage_tnjtg_125.19_108.99.jpg,left,0,0,0,0,,,,,0,8,8,8,,,,,,,,,0,0,0,0,0,24,24,24,,,,,,,,,,,,,,,,,,None,None,None,1,None,None,,,,,,,,,,,,,,,,,,,,,,,,,,,,,,,,,,,,,,,,,,,,,,,,,,,,,,,,,,,,,facundo,001,b,2019_Oct_10_1431,Experimento,3.1.5,60.092216795342516,
8,14,14,999,0.5,0:10,3,White,None,0,0,1,20:50,./completed_changuitos/montage_tnjtg_125.19_108.99.jpg,left,0,0,0,0,,,,,0,8,8,8,,,,,,,,,0,0,0,0,0,25,25,25,,,,,,,,,,,,,,,,,,None,None,None,1,None,None,,,,,,,,,,,,,,,,,,,,,,,,,,,,,,,,,,,,,,,,,,,,,,,,,,,,,,,,,,,,,facundo,001,b,2019_Oct_10_1431,Experimento,3.1.5,60.092216795342516,
8,14,14,999,0.5,0:10,3,Green,['space'],0,0,1,20:50,./completed_changuitos/montage_tnjtg_125.19_108.99.jpg,left,0,0,0,0,,,,,0,8,8,8,,,,,,,,,0,0,0,0,0,26,26,26,,,,,,,,,,,,,,,,,,None,None,None,0,None,None,,,,,,,,,,,,,,,,,,,,,,,,,,,,,,,,,,,,,,,,,,,,,,,,,,,,,,,,,,,,,facundo,001,b,2019_Oct_10_1431,Experimento,3.1.5,60.092216795342516,
8,14,14,999,0.5,0:10,3,Red,None,0,0,1,20:50,./completed_changuitos/montage_tnjtg_125.19_108.99.jpg,left,0,0,0,0,,,,,0,8,8,8,,,,,,,,,0,0,0,0,0,27,27,27,,,,,,,,,,,,,,,,,,None,None,None,1,None,None,,,,,,,,,,,,,,,,,,,,,,,,,,,,,,,,,,,,,,,,,,,,,,,,,,,,,,,,,,,,,facundo,001,b,2019_Oct_10_1431,Experimento,3.1.5,60.092216795342516,
8,14,14,999,0.5,0:10,3,Blue,None,0,0,1,20:50,./completed_changuitos/montage_tnjtg_125.19_108.99.jpg,left,0,0,0,0,,,,,0,8,8,8,,,,,,,,,0,0,0,0,0,28,28,28,,,,,,,,,,,,,,,,,,None,None,None,1,None,None,,,,,,,,,,,,,,,,,,,,,,,,,,,,,,,,,,,,,,,,,,,,,,,,,,,,,,,,,,,,,facundo,001,b,2019_Oct_10_1431,Experimento,3.1.5,60.092216795342516,
8,14,14,999,0.5,0:10,3,Green,None,0,0,1,20:50,./completed_changuitos/montage_tnjtg_125.19_108.99.jpg,left,0,0,0,0,,,,,0,8,8,8,,,,,,,,,0,0,0,0,0,29,29,29,,,,,,,,,,,,,,,,,,None,None,None,1,None,None,,,,,,,,,,,,,,,,,,,,,,,,,,,,,,,,,,,,,,,,,,,,,,,,,,,,,,,,,,,,,facundo,001,b,2019_Oct_10_1431,Experimento,3.1.5,60.092216795342516,
8,14,14,999,0.5,0:10,3,,,0,0,1,20:50,./completed_changuitos/montage_tnjtg_125.19_108.99.jpg,left,0,0,0,0,,,,,0,8,8,8,,,,,,,,,0,0,0,0,,,,,,,,,,,,,,,,,,,,,,,,,,,,,458.87759872800234,None,left,1,0.7940628939977614,458.87759872800234,None,458.87759872800234,None,,,,,,,,,,,,,,,,,,,,,,,,,,,,,,,,,,,,,,,,,,,,,,,,,,,facundo,001,b,2019_Oct_10_1431,Experimento,3.1.5,60.092216795342516,
8,14,14,999,0.5,0:10,3,,,0,0,1,20:50,,,0,0,0,0,,,,,0,8,8,8,,,,,,,,,,,,,,,,,,,,,,,,,,,,,,,,,,,,,,,,,,,,,,,,,,,,,,,,,,,,,,,,,,,,,,,,,,,,,,,,,,,,,,,,,,,,,,,,,,,,facundo,001,b,2019_Oct_10_1431,Experimento,3.1.5,60.092216795342516,
8,14,14,999,0.5,0:10,3,,,0,1,0,25:50,./completed_changuitos/montage_fzbgz_115.55_99.49.jpg,left,0,0,0,0,,,,,0,9,9,9,,,,,0,0,0,0,,,,,,,,,,,,,,,,,,,,,,,,,,,,,,,,,,,,,,,,,,459.9455811689986,460.9442439859995,460.9442439859995,468.9474790899985,468.9474790899985,482.95461089900346,left,1,0.5440551389983739,482.95461089900346,None,482.95461089900346,None,482.95461089900346,None,,,,,,,,,,,,,,,,,,,,,,,,,,,,,,,,,,,,facundo,001,b,2019_Oct_10_1431,Experimento,3.1.5,60.092216795342516,
8,14,14,999,0.5,0:10,3,,,0,1,0,25:50,,,0,0,0,0,,,,,0,9,9,9,,,,,,,,,,,,,,,,,,,,,,,,,,,,,,,,,,,,,,,,,,,,,,,,,,,,,,,,,,,,,,,,,,,,,,,,,,,,,,,,,,,,,,,,,,,,,,,,,,,,facundo,001,b,2019_Oct_10_1431,Experimento,3.1.5,60.092216795342516,
8,14,14,999,0.5,0:10,3,Red,None,0,0,1,28:50,./completed_changuitos/montage_wvkjh_51.35_44.39.jpg,left,0,0,0,0,,,,,0,10,10,10,,,,,,,,,0,0,0,0,0,0,0,0,,,,,,,,,,,,,,483.7392044790031,484.6901188960037,484.6901188960037,None,492.72748033099924,493.209425578003,None,1,492.72748033099924,None,,,,,,,,,,,,,,,,,,,,,,,,,,,,,,,,,,,,,,,,,,,,,,,,,,,,,,,,,,,,,facundo,001,b,2019_Oct_10_1431,Experimento,3.1.5,60.092216795342516,
8,14,14,999,0.5,0:10,3,Magenta,['space'],0,0,1,28:50,./completed_changuitos/montage_wvkjh_51.35_44.39.jpg,left,0,0,0,0,,,,,0,10,10,10,,,,,,,,,0,0,0,0,0,1,1,1,,,,,,,,,,,,,,,,,,494.72912556300435,495.2101945250033,None,0,494.72912556300435,None,,,,,,,,,,,,,,,,,,,,,,,,,,,,,,,,,,,,,,,,,,,,,,,,,,,,,,,,,,,,,facundo,001,b,2019_Oct_10_1431,Experimento,3.1.5,60.092216795342516,
8,14,14,999,0.5,0:10,3,Green,None,0,0,1,28:50,./completed_changuitos/montage_wvkjh_51.35_44.39.jpg,left,0,0,0,0,,,,,0,10,10,10,,,,,,,,,0,0,0,0,0,2,2,2,,,,,,,,,,,,,,,,,,496.7280096030008,497.21132821599895,None,1,496.7280096030008,None,,,,,,,,,,,,,,,,,,,,,,,,,,,,,,,,,,,,,,,,,,,,,,,,,,,,,,,,,,,,,facundo,001,b,2019_Oct_10_1431,Experimento,3.1.5,60.092216795342516,
8,14,14,999,0.5,0:10,3,Yellow,['space'],0,0,1,28:50,./completed_changuitos/montage_wvkjh_51.35_44.39.jpg,left,0,0,0,0,,,,,0,10,10,10,,,,,,,,,0,0,0,0,0,3,3,3,,,,,,,,,,,,,,,,,,498.7292401790037,499.21229536199826,None,0,498.7292401790037,None,,,,,,,,,,,,,,,,,,,,,,,,,,,,,,,,,,,,,,,,,,,,,,,,,,,,,,,,,,,,,facundo,001,b,2019_Oct_10_1431,Experimento,3.1.5,60.092216795342516,
8,14,14,999,0.5,0:10,3,Blue,None,0,0,1,28:50,./completed_changuitos/montage_wvkjh_51.35_44.39.jpg,left,0,0,0,0,,,,,0,10,10,10,,,,,,,,,0,0,0,0,0,4,4,4,,,,,,,,,,,,,,,,,,500.7320549130018,501.21288575400104,None,1,500.7320549130018,None,,,,,,,,,,,,,,,,,,,,,,,,,,,,,,,,,,,,,,,,,,,,,,,,,,,,,,,,,,,,,facundo,001,b,2019_Oct_10_1431,Experimento,3.1.5,60.092216795342516,
8,14,14,999,0.5,0:10,3,Cyan,None,0,0,1,28:50,./completed_changuitos/montage_wvkjh_51.35_44.39.jpg,left,0,0,0,0,,,,,0,10,10,10,,,,,,,,,0,0,0,0,0,5,5,5,,,,,,,,,,,,,,,,,,502.7326873970014,503.21421701700456,None,1,502.7326873970014,None,,,,,,,,,,,,,,,,,,,,,,,,,,,,,,,,,,,,,,,,,,,,,,,,,,,,,,,,,,,,,facundo,001,b,2019_Oct_10_1431,Experimento,3.1.5,60.092216795342516,
8,14,14,999,0.5,0:10,3,Blue,['space'],0,0,1,28:50,./completed_changuitos/montage_wvkjh_51.35_44.39.jpg,left,0,0,0,0,,,,,0,10,10,10,,,,,,,,,0,0,0,0,0,6,6,6,,,,,,,,,,,,,,,,,,504.7339178820039,505.2151478790038,['return'],0,504.7339178820039,None,[0.754060118997586],,,,,,,,,,,,,,,,,,,,,,,,,,,,,,,,,,,,,,,,,,,,,,,,,,,,,,,,,,,,facundo,001,b,2019_Oct_10_1431,Experimento,3.1.5,60.092216795342516,
8,14,14,999,0.5,0:10,3,Yellow,None,0,0,1,28:50,./completed_changuitos/montage_wvkjh_51.35_44.39.jpg,left,0,0,0,0,,,,,0,10,10,10,,,,,,,,,0,0,0,0,0,7,7,7,,,,,,,,,,,,,,,,,,None,None,None,1,None,None,,,,,,,,,,,,,,,,,,,,,,,,,,,,,,,,,,,,,,,,,,,,,,,,,,,,,,,,,,,,,facundo,001,b,2019_Oct_10_1431,Experimento,3.1.5,60.092216795342516,
8,14,14,999,0.5,0:10,3,Cyan,None,0,0,1,28:50,./completed_changuitos/montage_wvkjh_51.35_44.39.jpg,left,0,0,0,0,,,,,0,10,10,10,,,,,,,,,0,0,0,0,0,8,8,8,,,,,,,,,,,,,,,,,,None,None,None,1,None,None,,,,,,,,,,,,,,,,,,,,,,,,,,,,,,,,,,,,,,,,,,,,,,,,,,,,,,,,,,,,,facundo,001,b,2019_Oct_10_1431,Experimento,3.1.5,60.092216795342516,
8,14,14,999,0.5,0:10,3,Yellow,['space'],0,0,1,28:50,./completed_changuitos/montage_wvkjh_51.35_44.39.jpg,left,0,0,0,0,,,,,0,10,10,10,,,,,,,,,0,0,0,0,0,9,9,9,,,,,,,,,,,,,,,,,,None,None,None,0,None,None,,,,,,,,,,,,,,,,,,,,,,,,,,,,,,,,,,,,,,,,,,,,,,,,,,,,,,,,,,,,,facundo,001,b,2019_Oct_10_1431,Experimento,3.1.5,60.092216795342516,
8,14,14,999,0.5,0:10,3,Magenta,None,0,0,1,28:50,./completed_changuitos/montage_wvkjh_51.35_44.39.jpg,left,0,0,0,0,,,,,0,10,10,10,,,,,,,,,0,0,0,0,0,10,10,10,,,,,,,,,,,,,,,,,,None,None,None,1,None,None,,,,,,,,,,,,,,,,,,,,,,,,,,,,,,,,,,,,,,,,,,,,,,,,,,,,,,,,,,,,,facundo,001,b,2019_Oct_10_1431,Experimento,3.1.5,60.092216795342516,
8,14,14,999,0.5,0:10,3,Red,None,0,0,1,28:50,./completed_changuitos/montage_wvkjh_51.35_44.39.jpg,left,0,0,0,0,,,,,0,10,10,10,,,,,,,,,0,0,0,0,0,11,11,11,,,,,,,,,,,,,,,,,,None,None,None,1,None,None,,,,,,,,,,,,,,,,,,,,,,,,,,,,,,,,,,,,,,,,,,,,,,,,,,,,,,,,,,,,,facundo,001,b,2019_Oct_10_1431,Experimento,3.1.5,60.092216795342516,
8,14,14,999,0.5,0:10,3,Magenta,['space'],0,0,1,28:50,./completed_changuitos/montage_wvkjh_51.35_44.39.jpg,left,0,0,0,0,,,,,0,10,10,10,,,,,,,,,0,0,0,0,0,12,12,12,,,,,,,,,,,,,,,,,,None,None,None,0,None,None,,,,,,,,,,,,,,,,,,,,,,,,,,,,,,,,,,,,,,,,,,,,,,,,,,,,,,,,,,,,,facundo,001,b,2019_Oct_10_1431,Experimento,3.1.5,60.092216795342516,
8,14,14,999,0.5,0:10,3,Red,['space'],0,0,1,28:50,./completed_changuitos/montage_wvkjh_51.35_44.39.jpg,left,0,0,0,0,,,,,0,10,10,10,,,,,,,,,0,0,0,0,0,13,13,13,,,,,,,,,,,,,,,,,,None,None,None,0,None,None,,,,,,,,,,,,,,,,,,,,,,,,,,,,,,,,,,,,,,,,,,,,,,,,,,,,,,,,,,,,,facundo,001,b,2019_Oct_10_1431,Experimento,3.1.5,60.092216795342516,
8,14,14,999,0.5,0:10,3,Yellow,None,0,0,1,28:50,./completed_changuitos/montage_wvkjh_51.35_44.39.jpg,left,0,0,0,0,,,,,0,10,10,10,,,,,,,,,0,0,0,0,0,14,14,14,,,,,,,,,,,,,,,,,,None,None,None,1,None,None,,,,,,,,,,,,,,,,,,,,,,,,,,,,,,,,,,,,,,,,,,,,,,,,,,,,,,,,,,,,,facundo,001,b,2019_Oct_10_1431,Experimento,3.1.5,60.092216795342516,
8,14,14,999,0.5,0:10,3,Cyan,None,0,0,1,28:50,./completed_changuitos/montage_wvkjh_51.35_44.39.jpg,left,0,0,0,0,,,,,0,10,10,10,,,,,,,,,0,0,0,0,0,15,15,15,,,,,,,,,,,,,,,,,,None,None,None,1,None,None,,,,,,,,,,,,,,,,,,,,,,,,,,,,,,,,,,,,,,,,,,,,,,,,,,,,,,,,,,,,,facundo,001,b,2019_Oct_10_1431,Experimento,3.1.5,60.092216795342516,
8,14,14,999,0.5,0:10,3,Green,None,0,0,1,28:50,./completed_changuitos/montage_wvkjh_51.35_44.39.jpg,left,0,0,0,0,,,,,0,10,10,10,,,,,,,,,0,0,0,0,0,16,16,16,,,,,,,,,,,,,,,,,,None,None,None,1,None,None,,,,,,,,,,,,,,,,,,,,,,,,,,,,,,,,,,,,,,,,,,,,,,,,,,,,,,,,,,,,,facundo,001,b,2019_Oct_10_1431,Experimento,3.1.5,60.092216795342516,
8,14,14,999,0.5,0:10,3,White,None,0,0,1,28:50,./completed_changuitos/montage_wvkjh_51.35_44.39.jpg,left,0,0,0,0,,,,,0,10,10,10,,,,,,,,,0,0,0,0,0,17,17,17,,,,,,,,,,,,,,,,,,None,None,None,1,None,None,,,,,,,,,,,,,,,,,,,,,,,,,,,,,,,,,,,,,,,,,,,,,,,,,,,,,,,,,,,,,facundo,001,b,2019_Oct_10_1431,Experimento,3.1.5,60.092216795342516,
8,14,14,999,0.5,0:10,3,Green,['space'],0,0,1,28:50,./completed_changuitos/montage_wvkjh_51.35_44.39.jpg,left,0,0,0,0,,,,,0,10,10,10,,,,,,,,,0,0,0,0,0,18,18,18,,,,,,,,,,,,,,,,,,None,None,None,0,None,None,,,,,,,,,,,,,,,,,,,,,,,,,,,,,,,,,,,,,,,,,,,,,,,,,,,,,,,,,,,,,facundo,001,b,2019_Oct_10_1431,Experimento,3.1.5,60.092216795342516,
8,14,14,999,0.5,0:10,3,Red,None,0,0,1,28:50,./completed_changuitos/montage_wvkjh_51.35_44.39.jpg,left,0,0,0,0,,,,,0,10,10,10,,,,,,,,,0,0,0,0,0,19,19,19,,,,,,,,,,,,,,,,,,None,None,None,1,None,None,,,,,,,,,,,,,,,,,,,,,,,,,,,,,,,,,,,,,,,,,,,,,,,,,,,,,,,,,,,,,facundo,001,b,2019_Oct_10_1431,Experimento,3.1.5,60.092216795342516,
8,14,14,999,0.5,0:10,3,Blue,None,0,0,1,28:50,./completed_changuitos/montage_wvkjh_51.35_44.39.jpg,left,0,0,0,0,,,,,0,10,10,10,,,,,,,,,0,0,0,0,0,20,20,20,,,,,,,,,,,,,,,,,,None,None,None,1,None,None,,,,,,,,,,,,,,,,,,,,,,,,,,,,,,,,,,,,,,,,,,,,,,,,,,,,,,,,,,,,,facundo,001,b,2019_Oct_10_1431,Experimento,3.1.5,60.092216795342516,
8,14,14,999,0.5,0:10,3,Green,None,0,0,1,28:50,./completed_changuitos/montage_wvkjh_51.35_44.39.jpg,left,0,0,0,0,,,,,0,10,10,10,,,,,,,,,0,0,0,0,0,21,21,21,,,,,,,,,,,,,,,,,,None,None,None,1,None,None,,,,,,,,,,,,,,,,,,,,,,,,,,,,,,,,,,,,,,,,,,,,,,,,,,,,,,,,,,,,,facundo,001,b,2019_Oct_10_1431,Experimento,3.1.5,60.092216795342516,
8,14,14,999,0.5,0:10,3,,,0,0,1,28:50,./completed_changuitos/montage_wvkjh_51.35_44.39.jpg,left,0,0,0,0,,,,,0,10,10,10,,,,,,,,,0,0,0,0,,,,,,,,,,,,,,,,,,,,,,,,,,,,,507.0833840039995,None,left,1,0.5782242339992081,507.0833840039995,None,507.0833840039995,None,,,,,,,,,,,,,,,,,,,,,,,,,,,,,,,,,,,,,,,,,,,,,,,,,,,facundo,001,b,2019_Oct_10_1431,Experimento,3.1.5,60.092216795342516,
8,14,14,999,0.5,0:10,3,,,0,0,1,28:50,,,0,0,0,0,,,,,0,10,10,10,,,,,,,,,,,,,,,,,,,,,,,,,,,,,,,,,,,,,,,,,,,,,,,,,,,,,,,,,,,,,,,,,,,,,,,,,,,,,,,,,,,,,,,,,,,,,,,,,,,,facundo,001,b,2019_Oct_10_1431,Experimento,3.1.5,60.092216795342516,
8,14,14,999,0.5,0:10,3,,,0,1,0,10:50,./completed_changuitos/montage_zrasw_89.0_103.79.jpg,right,0,0,0,0,,,,,0,11,11,11,,,,,0,0,0,0,,,,,,,,,,,,,,,,,,,,,,,,,,,,,,,,,,,,,,,,,,507.95049648400163,508.9853596739995,508.9853596739995,516.9867650419983,516.9867650419983,530.9943376779993,left,0,0.5272848650056403,530.9943376779993,None,530.9943376779993,None,530.9943376779993,None,,,,,,,,,,,,,,,,,,,,,,,,,,,,,,,,,,,,facundo,001,b,2019_Oct_10_1431,Experimento,3.1.5,60.092216795342516,
8,14,14,999,0.5,0:10,3,,,0,1,0,10:50,,,0,0,0,0,,,,,0,11,11,11,,,,,,,,,,,,,,,,,,,,,,,,,,,,,,,,,,,,,,,,,,,,,,,,,,,,,,,,,,,,,,,,,,,,,,,,,,,,,,,,,,,,,,,,,,,,,,,,,,,,facundo,001,b,2019_Oct_10_1431,Experimento,3.1.5,60.092216795342516,
8,14,14,999,0.5,0:10,3,,,1,0,0,30:50,./completed_changuitos/montage_awuhb_67.3_75.99.jpg,right,0,0,0,0,,,,,0,12,12,12,0,0,0,0,,,,,,,,,,,,,,,,,,,,,,,,,,,,,,,,,,,,,,,,,,,,,,,,,,,,,,,,,,,,,532.1112001920046,533.3968627520007,533.3968627520007,541.3984164400026,right,1,0.6350626499988721,541.3984164400026,None,541.3984164400026,None,541.3984164400026,None,,,,,,,,,,,,,,,,,,,,,,,facundo,001,b,2019_Oct_10_1431,Experimento,3.1.5,60.092216795342516,
8,14,14,999,0.5,0:10,3,,,1,0,0,30:50,,,0,0,0,0,,,,,0,12,12,12,,,,,,,,,,,,,,,,,,,,,,,,,,,,,,,,,,,,,,,,,,,,,,,,,,,,,,,,,,,,,,,,,,,,,,,,,,,,,,,,,,,,,,,,,,,,,,,,,,,,facundo,001,b,2019_Oct_10_1431,Experimento,3.1.5,60.092216795342516,
8,14,14,999,0.5,0:10,3,,,1,0,0,32:50,./completed_changuitos/montage_njdps_233.79_262.15.jpg,right,0,0,0,0,,,,,0,13,13,13,0,0,0,0,,,,,,,,,,,,,,,,,,,,,,,,,,,,,,,,,,,,,,,,,,,,,,,,,,,,,,,,,,,,,542.6492481009991,543.8178539490036,543.8178539490036,551.8200996919986,left,0,0.8180506099961349,551.8200996919986,None,551.8200996919986,None,551.8200996919986,None,,,,,,,,,,,,,,,,,,,,,,,facundo,001,b,2019_Oct_10_1431,Experimento,3.1.5,60.092216795342516,
8,14,14,999,0.5,0:10,3,,,1,0,0,32:50,,,0,0,0,0,,,,,0,13,13,13,,,,,,,,,,,,,,,,,,,,,,,,,,,,,,,,,,,,,,,,,,,,,,,,,,,,,,,,,,,,,,,,,,,,,,,,,,,,,,,,,,,,,,,,,,,,,,,,,,,,facundo,001,b,2019_Oct_10_1431,Experimento,3.1.5,60.092216795342516,
8,14,14,999,0.5,0:10,3,,,1,0,0,34:50,./completed_changuitos/montage_clmit_199.9_232.19.jpg,right,0,0,0,0,,,,,0,14,14,14,0,0,0,0,,,,,,,,,,,,,,,,,,,,,,,,,,,,,,,,,,,,,,,,,,,,,,,,,,,,,,,,,,,,,553.2545602669998,554.4065639820037,554.4065639820037,562.4083781410009,left,0,0.6667557510008919,562.4083781410009,None,562.4083781410009,None,562.4083781410009,None,,,,,,,,,,,,,,,,,,,,,,,facundo,001,b,2019_Oct_10_1431,Experimento,3.1.5,60.092216795342516,
8,14,14,999,0.5,0:10,3,,,1,0,0,34:50,,,0,0,0,0,,,,,0,14,14,14,,,,,,,,,,,,,,,,,,,,,,,,,,,,,,,,,,,,,,,,,,,,,,,,,,,,,,,,,,,,,,,,,,,,,,,,,,,,,,,,,,,,,,,,,,,,,,,,,,,,facundo,001,b,2019_Oct_10_1431,Experimento,3.1.5,60.092216795342516,
8,14,14,999,0.5,0:10,3,,,1,0,0,30:50,./completed_changuitos/montage_bccbx_48.15_54.6.jpg,right,0,0,0,0,,,,,0,15,15,15,0,0,0,0,,,,,,,,,,,,,,,,,,,,,,,,,,,,,,,,,,,,,,,,,,,,,,,,,,,,,,,,,,,,,563.6761956449991,564.5269655410011,564.5269655410011,572.529824848003,right,1,0.7513930820059613,572.529824848003,None,572.529824848003,None,572.529824848003,None,,,,,,,,,,,,,,,,,,,,,,,facundo,001,b,2019_Oct_10_1431,Experimento,3.1.5,60.092216795342516,
8,14,14,999,0.5,0:10,3,,,1,0,0,30:50,,,0,0,0,0,,,,,0,15,15,15,,,,,,,,,,,,,,,,,,,,,,,,,,,,,,,,,,,,,,,,,,,,,,,,,,,,,,,,,,,,,,,,,,,,,,,,,,,,,,,,,,,,,,,,,,,,,,,,,,,,facundo,001,b,2019_Oct_10_1431,Experimento,3.1.5,60.092216795342516,
8,14,14,999,0.5,0:10,3,,,1,0,0,32:50,./completed_changuitos/montage_ldidu_102.75_119.85.jpg,right,0,0,0,0,,,,,0,16,16,16,0,0,0,0,,,,,,,,,,,,,,,,,,,,,,,,,,,,,,,,,,,,,,,,,,,,,,,,,,,,,,,,,,,,,573.8973917850017,577.8847212680048,577.8847212680048,585.8861678210014,left,0,0.7181418760010274,585.8861678210014,None,585.8861678210014,None,585.8861678210014,None,,,,,,,,,,,,,,,,,,,,,,,facundo,001,b,2019_Oct_10_1431,Experimento,3.1.5,60.092216795342516,
8,14,14,999,0.5,0:10,3,,,1,0,0,32:50,,,0,0,0,0,,,,,0,16,16,16,,,,,,,,,,,,,,,,,,,,,,,,,,,,,,,,,,,,,,,,,,,,,,,,,,,,,,,,,,,,,,,,,,,,,,,,,,,,,,,,,,,,,,,,,,,,,,,,,,,,facundo,001,b,2019_Oct_10_1431,Experimento,3.1.5,60.092216795342516,
8,14,14,999,0.5,0:10,3,,,1,0,0,34:50,./completed_changuitos/montage_msdlx_197.95_175.49.jpg,left,0,0,0,0,,,,,0,17,17,17,0,0,0,0,,,,,,,,,,,,,,,,,,,,,,,,,,,,,,,,,,,,,,,,,,,,,,,,,,,,,,,,,,,,,587.220703705003,587.9719948620041,587.9719948620041,595.9743522040008,left,1,0.5563471600034973,595.9743522040008,None,595.9743522040008,None,595.9743522040008,None,,,,,,,,,,,,,,,,,,,,,,,facundo,001,b,2019_Oct_10_1431,Experimento,3.1.5,60.092216795342516,
8,14,14,999,0.5,0:10,3,,,1,0,0,34:50,,,0,0,0,0,,,,,0,17,17,17,,,,,,,,,,,,,,,,,,,,,,,,,,,,,,,,,,,,,,,,,,,,,,,,,,,,,,,,,,,,,,,,,,,,,,,,,,,,,,,,,,,,,,,,,,,,,,,,,,,,facundo,001,b,2019_Oct_10_1431,Experimento,3.1.5,60.092216795342516,
8,14,14,999,0.5,0:10,3,,,,,,,,,0,0,0,0,,,,,,,,,,,,,,,,,,,,,,,,,,,,,,,,,,,,,,,,,,,,,,,,,,,,,,,,,,,,,,,,,,,,,,,,,,,,,,,,,,,,,,596.6430240240006,598.9775229180013,2,4.678286679998564,598.9775229180013,None,598.9775229180013,None,c,6.7479556309990585,603.7005696920023,None,603.7005696920023,None,603.7005696920023,None,610.4989584200011,None,6,5.119259602004604,610.4989584200011,None,facundo,001,b,2019_Oct_10_1431,Experimento,3.1.5,60.092216795342516,
