changuito_time_to_show,time_to_think,time_to_play,total_items,nback_stimulus_time,nback_training,time_to_show_tiny_stimulus,colourtest,corresp,inmediato,consciente,inconsciente,nback_slice,imagen,correcta,trials_5.thisRepN,trials_5.thisTrialN,trials_5.thisN,trials_5.thisIndex,nback_train.thisRepN,nback_train.thisTrialN,nback_train.thisN,nback_train.thisIndex,treatment_order.thisRepN,treatment_order.thisTrialN,treatment_order.thisN,treatment_order.thisIndex,trials.thisRepN,trials.thisTrialN,trials.thisN,trials.thisIndex,trials_2.thisRepN,trials_2.thisTrialN,trials_2.thisN,trials_2.thisIndex,trials_3.thisRepN,trials_3.thisTrialN,trials_3.thisN,trials_3.thisIndex,trials_4.thisRepN,trials_4.thisTrialN,trials_4.thisN,trials_4.thisIndex,Presentacion.started,Presentacion.stopped,Juego.started,Juego.stopped,image_6.started,image_6.stopped,polygon.started,polygon.stopped,nback_train_resp.keys,nback_train_resp.corr,nback_train_resp.started,nback_train_resp.stopped,nback_train_resp.rt,hola.started,hola.stopped,image_2.started,image_2.stopped,tiempo_para_pensar.started,tiempo_para_pensar.stopped,respuesta_consciente.keys,respuesta_consciente.corr,respuesta_consciente.rt,respuesta_consciente.started,respuesta_consciente.stopped,cual_es_la_mas_barata.started,cual_es_la_mas_barata.stopped,image_4.started,image_4.stopped,holi.started,holi.stopped,image_3.started,image_3.stopped,polygon_2.started,polygon_2.stopped,nback_train_resp_2.keys,nback_train_resp_2.corr,nback_train_resp_2.started,nback_train_resp_2.stopped,nback_train_resp_2.rt,text_2.started,text_2.stopped,key_resp.keys,key_resp.corr,key_resp.rt,key_resp.started,key_resp.stopped,image_5.started,image_5.stopped,text.started,text.stopped,image.started,image.stopped,respuesta_inmediato.keys,respuesta_inmediato.corr,respuesta_inmediato.rt,respuesta_inmediato.started,respuesta_inmediato.stopped,pregunta_cual_es_el_mas_barato.started,pregunta_cual_es_el_mas_barato.stopped,short_stim1.started,short_stim1.stopped,gracias.started,gracias.stopped,respuesta1.keys,respuesta1.rt,respuesta1.started,respuesta1.stopped,pregunta1.started,pregunta1.stopped,respuesta3bis_3.keys,respuesta3bis_3.rt,respuesta3bis_3.started,respuesta3bis_3.stopped,pregunta3_3.started,pregunta3_3.stopped,productoCon3RANGOSabc_3.started,productoCon3RANGOSabc_3.stopped,text_3.started,text_3.stopped,key_resp_2.keys,key_resp_2.rt,key_resp_2.started,key_resp_2.stopped,participant,session,group,date,expName,psychopyVersion,frameRate,
8,14,14,999,0.5,0:10,3,White,None,,,,,,,0,0,0,0,0,0,0,0,,,,,,,,,,,,,,,,,,,,,21.91219516919591,None,66.17335992015796,None,66.17335992015796,None,106.64191811464843,107.14193761502247,None,1,106.64191811464843,None,,,,,,,,,,,,,,,,,,,,,,,,,,,,,,,,,,,,,,,,,,,,,,,,,,,,,,,,,,,,,,,,,,,,,,,,FedeG,001,a,2019_Nov_01_1724,Experimento,3.2.3,60.01911907656978,
8,14,14,999,0.5,0:10,3,Red,None,,,,,,,0,0,0,0,0,1,1,1,,,,,,,,,,,,,,,,,,,,,,,,,,,108.64141607810234,109.14129109246278,None,1,108.64141607810234,108.64141607810234,,,,,,,,,,,,,,,,,,,,,,,,,,,,,,,,,,,,,,,,,,,,,,,,,,,,,,,,,,,,,,,,,,,,,,,,FedeG,001,a,2019_Nov_01_1724,Experimento,3.2.3,60.01911907656978,
8,14,14,999,0.5,0:10,3,Magenta,None,,,,,,,0,0,0,0,0,2,2,2,,,,,,,,,,,,,,,,,,,,,,,,,,,110.64069469503374,111.14046239188974,None,1,110.64069469503374,110.64069469503374,,,,,,,,,,,,,,,,,,,,,,,,,,,,,,,,,,,,,,,,,,,,,,,,,,,,,,,,,,,,,,,,,,,,,,,,FedeG,001,a,2019_Nov_01_1724,Experimento,3.2.3,60.01911907656978,
8,14,14,999,0.5,0:10,3,Cyan,None,,,,,,,0,0,0,0,0,3,3,3,,,,,,,,,,,,,,,,,,,,,,,,,,,112.63993902271613,113.13975304932319,None,1,112.63993902271613,112.63993902271613,,,,,,,,,,,,,,,,,,,,,,,,,,,,,,,,,,,,,,,,,,,,,,,,,,,,,,,,,,,,,,,,,,,,,,,,FedeG,001,a,2019_Nov_01_1724,Experimento,3.2.3,60.01911907656978,
8,14,14,999,0.5,0:10,3,Magenta,['space'],,,,,,,0,0,0,0,0,4,4,4,,,,,,,,,,,,,,,,,,,,,,,,,,,114.63922470690159,115.1390369012588,['return'],0,114.63922470690159,114.63922470690159,[0.8890899710750091],,,,,,,,,,,,,,,,,,,,,,,,,,,,,,,,,,,,,,,,,,,,,,,,,,,,,,,,,,,,,,,,,,,,,,,FedeG,001,a,2019_Nov_01_1724,Experimento,3.2.3,60.01911907656978,
8,14,14,999,0.5,0:10,3,Green,None,,,,,,,0,0,0,0,0,5,5,5,,,,,,,,,,,,,,,,,,,,,,,,,,,116.63855541208977,117.13830373944074,None,1,116.63855541208977,116.63855541208977,,,,,,,,,,,,,,,,,,,,,,,,,,,,,,,,,,,,,,,,,,,,,,,,,,,,,,,,,,,,,,,,,,,,,,,,FedeG,001,a,2019_Nov_01_1724,Experimento,3.2.3,60.01911907656978,
8,14,14,999,0.5,0:10,3,White,None,,,,,,,0,0,0,0,0,6,6,6,,,,,,,,,,,,,,,,,,,,,,,,,,,118.6378096862718,119.13753785887093,None,1,118.6378096862718,118.6378096862718,,,,,,,,,,,,,,,,,,,,,,,,,,,,,,,,,,,,,,,,,,,,,,,,,,,,,,,,,,,,,,,,,,,,,,,,FedeG,001,a,2019_Nov_01_1724,Experimento,3.2.3,60.01911907656978,
8,14,14,999,0.5,0:10,3,Green,['space'],,,,,,,0,0,0,0,0,7,7,7,,,,,,,,,,,,,,,,,,,,,,,,,,,120.63710584045475,121.13687720181042,['return'],0,120.63710584045475,120.63710584045475,[0.5631122496670287],,,,,,,,,,,,,,,,,,,,,,,,,,,,,,,,,,,,,,,,,,,,,,,,,,,,,,,,,,,,,,,,,,,,,,,FedeG,001,a,2019_Nov_01_1724,Experimento,3.2.3,60.01911907656978,
8,14,14,999,0.5,0:10,3,Blue,None,,,,,,,0,0,0,0,0,8,8,8,,,,,,,,,,,,,,,,,,,,,,,,,,,122.63636927588959,123.13613959024224,None,1,122.63636927588959,122.63636927588959,,,,,,,,,,,,,,,,,,,,,,,,,,,,,,,,,,,,,,,,,,,,,,,,,,,,,,,,,,,,,,,,,,,,,,,,FedeG,001,a,2019_Nov_01_1724,Experimento,3.2.3,60.01911907656978,
8,14,14,999,0.5,0:10,3,Green,['space'],,,,,,,0,0,0,0,0,9,9,9,,,,,,,,,,,,,,,,,,,,,,,,,,,124.63550393030891,125.1353412526696,None,0,124.63550393030891,124.63550393030891,,,,,,,,,,,,,,,,,,,,,,,,,,,,,,,,,,,,,,,,,,,,,,,,,,,,,,,,,,,,,,,,,,,,,,,,FedeG,001,a,2019_Nov_01_1724,Experimento,3.2.3,60.01911907656978,
8,14,14,999,0.5,0:10,3,,,0,1,0,10:50,./completed_changuitos/montage_faxbc_73.85_85.59.jpg,right,0,0,0,0,,,,,0,0,0,0,,,,,0,0,0,0,,,,,,,,,,,,,,,,,,,,,,126.8732158791172,141.47959488425477,141.47959488425477,149.49334408951472,149.49334408951472,163.50482444556837,right,1,2.269966357271187,163.50482444556837,None,163.50482444556837,None,163.50482444556837,None,,,,,,,,,,,,,,,,,,,,,,,,,,,,,,,,,,,,,,,,,,,,,,,,,,,,,,,,FedeG,001,a,2019_Nov_01_1724,Experimento,3.2.3,60.01911907656978,
8,14,14,999,0.5,0:10,3,,,0,1,0,10:50,,,0,0,0,0,,,,,0,0,0,0,,,,,,,,,,,,,,,,,,,,,,,,,,,,,,,,,,,,,,,,,,,,,,,,,,,,,,,,,,,,,,,,,,,,,,,,,,,,,,,,,,,,,,,,,,,,,,,,,,,,FedeG,001,a,2019_Nov_01_1724,Experimento,3.2.3,60.01911907656978,
8,14,14,999,0.5,0:10,3,Yellow,None,0,0,1,15:50,./completed_changuitos/montage_cjztk_64.19_74.89.jpg,right,0,0,0,0,,,,,0,1,1,1,,,,,,,,,0,0,0,0,0,0,0,0,,,,,,,,,,,,,,,,,,,,,,,,,,,,,165.97339284831105,170.6023428197659,170.6023428197659,None,178.6660614133616,179.16583198946682,None,1,178.6660614133616,None,,,,,,,,,,,,,,,,,,,,,,,,,,,,,,,,,,,,,,,,,,,,,,FedeG,001,a,2019_Nov_01_1724,Experimento,3.2.3,60.01911907656978,
8,14,14,999,0.5,0:10,3,White,['space'],0,0,1,15:50,./completed_changuitos/montage_cjztk_64.19_74.89.jpg,right,0,0,0,0,,,,,0,1,1,1,,,,,,,,,0,0,0,0,0,1,1,1,,,,,,,,,,,,,,,,,,,,,,,,,,,,,,,,,180.66537719879852,181.16511322389852,None,0,180.66537719879852,180.66537719879852,,,,,,,,,,,,,,,,,,,,,,,,,,,,,,,,,,,,,,,,,,,,,,FedeG,001,a,2019_Nov_01_1724,Experimento,3.2.3,60.01911907656978,
8,14,14,999,0.5,0:10,3,Magenta,None,0,0,1,15:50,./completed_changuitos/montage_cjztk_64.19_74.89.jpg,right,0,0,0,0,,,,,0,1,1,1,,,,,,,,,0,0,0,0,0,2,2,2,,,,,,,,,,,,,,,,,,,,,,,,,,,,,,,,,182.66452232322263,183.16430598682564,None,1,182.66452232322263,182.66452232322263,,,,,,,,,,,,,,,,,,,,,,,,,,,,,,,,,,,,,,,,,,,,,,FedeG,001,a,2019_Nov_01_1724,Experimento,3.2.3,60.01911907656978,
8,14,14,999,0.5,0:10,3,Cyan,None,0,0,1,15:50,./completed_changuitos/montage_cjztk_64.19_74.89.jpg,right,0,0,0,0,,,,,0,1,1,1,,,,,,,,,0,0,0,0,0,3,3,3,,,,,,,,,,,,,,,,,,,,,,,,,,,,,,,,,184.6638286856578,185.16365265876448,None,1,184.6638286856578,184.6638286856578,,,,,,,,,,,,,,,,,,,,,,,,,,,,,,,,,,,,,,,,,,,,,,FedeG,001,a,2019_Nov_01_1724,Experimento,3.2.3,60.01911907656978,
8,14,14,999,0.5,0:10,3,Blue,None,0,0,1,15:50,./completed_changuitos/montage_cjztk_64.19_74.89.jpg,right,0,0,0,0,,,,,0,1,1,1,,,,,,,,,0,0,0,0,0,4,4,4,,,,,,,,,,,,,,,,,,,,,,,,,,,,,,,,,186.66312196059152,187.1629985454565,None,1,186.66312196059152,186.66312196059152,,,,,,,,,,,,,,,,,,,,,,,,,,,,,,,,,,,,,,,,,,,,,,FedeG,001,a,2019_Nov_01_1724,Experimento,3.2.3,60.01911907656978,
8,14,14,999,0.5,0:10,3,Magenta,None,0,0,1,15:50,./completed_changuitos/montage_cjztk_64.19_74.89.jpg,right,0,0,0,0,,,,,0,1,1,1,,,,,,,,,0,0,0,0,0,5,5,5,,,,,,,,,,,,,,,,,,,,,,,,,,,,,,,,,188.6625071097842,189.16216670387803,None,1,188.6625071097842,188.6625071097842,,,,,,,,,,,,,,,,,,,,,,,,,,,,,,,,,,,,,,,,,,,,,,FedeG,001,a,2019_Nov_01_1724,Experimento,3.2.3,60.01911907656978,
8,14,14,999,0.5,0:10,3,Blue,['space'],0,0,1,15:50,./completed_changuitos/montage_cjztk_64.19_74.89.jpg,right,0,0,0,0,,,,,0,1,1,1,,,,,,,,,0,0,0,0,0,6,6,6,,,,,,,,,,,,,,,,,,,,,,,,,,,,,,,,,190.6617179334644,191.16163456608047,['return'],0,190.6617179334644,190.6617179334644,[0.8721437510212127],,,,,,,,,,,,,,,,,,,,,,,,,,,,,,,,,,,,,,,,,,,,,FedeG,001,a,2019_Nov_01_1724,Experimento,3.2.3,60.01911907656978,
8,14,14,999,0.5,0:10,3,Cyan,None,0,0,1,15:50,./completed_changuitos/montage_cjztk_64.19_74.89.jpg,right,0,0,0,0,,,,,0,1,1,1,,,,,,,,,0,0,0,0,0,7,7,7,,,,,,,,,,,,,,,,,,,,,,,,,,,,,,,,,192.62765721426368,None,None,1,192.62765721426368,None,,,,,,,,,,,,,,,,,,,,,,,,,,,,,,,,,,,,,,,,,,,,,,FedeG,001,a,2019_Nov_01_1724,Experimento,3.2.3,60.01911907656978,
8,14,14,999,0.5,0:10,3,Yellow,None,0,0,1,15:50,./completed_changuitos/montage_cjztk_64.19_74.89.jpg,right,0,0,0,0,,,,,0,1,1,1,,,,,,,,,0,0,0,0,0,8,8,8,,,,,,,,,,,,,,,,,,,,,,,,,,,,,,,,,192.62765721426368,None,None,1,192.62765721426368,None,,,,,,,,,,,,,,,,,,,,,,,,,,,,,,,,,,,,,,,,,,,,,,FedeG,001,a,2019_Nov_01_1724,Experimento,3.2.3,60.01911907656978,
8,14,14,999,0.5,0:10,3,Cyan,None,0,0,1,15:50,./completed_changuitos/montage_cjztk_64.19_74.89.jpg,right,0,0,0,0,,,,,0,1,1,1,,,,,,,,,0,0,0,0,0,9,9,9,,,,,,,,,,,,,,,,,,,,,,,,,,,,,,,,,192.64431684421726,None,None,1,192.64431684421726,None,,,,,,,,,,,,,,,,,,,,,,,,,,,,,,,,,,,,,,,,,,,,,,FedeG,001,a,2019_Nov_01_1724,Experimento,3.2.3,60.01911907656978,
8,14,14,999,0.5,0:10,3,Blue,None,0,0,1,15:50,./completed_changuitos/montage_cjztk_64.19_74.89.jpg,right,0,0,0,0,,,,,0,1,1,1,,,,,,,,,0,0,0,0,0,10,10,10,,,,,,,,,,,,,,,,,,,,,,,,,,,,,,,,,192.64431684421726,None,None,1,192.64431684421726,None,,,,,,,,,,,,,,,,,,,,,,,,,,,,,,,,,,,,,,,,,,,,,,FedeG,001,a,2019_Nov_01_1724,Experimento,3.2.3,60.01911907656978,
8,14,14,999,0.5,0:10,3,Cyan,['space'],0,0,1,15:50,./completed_changuitos/montage_cjztk_64.19_74.89.jpg,right,0,0,0,0,,,,,0,1,1,1,,,,,,,,,0,0,0,0,0,11,11,11,,,,,,,,,,,,,,,,,,,,,,,,,,,,,,,,,192.64431684421726,None,None,0,192.64431684421726,None,,,,,,,,,,,,,,,,,,,,,,,,,,,,,,,,,,,,,,,,,,,,,,FedeG,001,a,2019_Nov_01_1724,Experimento,3.2.3,60.01911907656978,
8,14,14,999,0.5,0:10,3,Magenta,None,0,0,1,15:50,./completed_changuitos/montage_cjztk_64.19_74.89.jpg,right,0,0,0,0,,,,,0,1,1,1,,,,,,,,,0,0,0,0,0,12,12,12,,,,,,,,,,,,,,,,,,,,,,,,,,,,,,,,,192.64431684421726,None,None,1,192.64431684421726,None,,,,,,,,,,,,,,,,,,,,,,,,,,,,,,,,,,,,,,,,,,,,,,FedeG,001,a,2019_Nov_01_1724,Experimento,3.2.3,60.01911907656978,
8,14,14,999,0.5,0:10,3,Red,None,0,0,1,15:50,./completed_changuitos/montage_cjztk_64.19_74.89.jpg,right,0,0,0,0,,,,,0,1,1,1,,,,,,,,,0,0,0,0,0,13,13,13,,,,,,,,,,,,,,,,,,,,,,,,,,,,,,,,,192.66097647417084,None,None,1,192.66097647417084,None,,,,,,,,,,,,,,,,,,,,,,,,,,,,,,,,,,,,,,,,,,,,,,FedeG,001,a,2019_Nov_01_1724,Experimento,3.2.3,60.01911907656978,
8,14,14,999,0.5,0:10,3,Magenta,['space'],0,0,1,15:50,./completed_changuitos/montage_cjztk_64.19_74.89.jpg,right,0,0,0,0,,,,,0,1,1,1,,,,,,,,,0,0,0,0,0,14,14,14,,,,,,,,,,,,,,,,,,,,,,,,,,,,,,,,,192.66097647417084,None,None,0,192.66097647417084,None,,,,,,,,,,,,,,,,,,,,,,,,,,,,,,,,,,,,,,,,,,,,,,FedeG,001,a,2019_Nov_01_1724,Experimento,3.2.3,60.01911907656978,
8,14,14,999,0.5,0:10,3,Green,None,0,0,1,15:50,./completed_changuitos/montage_cjztk_64.19_74.89.jpg,right,0,0,0,0,,,,,0,1,1,1,,,,,,,,,0,0,0,0,0,15,15,15,,,,,,,,,,,,,,,,,,,,,,,,,,,,,,,,,192.66097647417084,None,None,1,192.66097647417084,None,,,,,,,,,,,,,,,,,,,,,,,,,,,,,,,,,,,,,,,,,,,,,,FedeG,001,a,2019_Nov_01_1724,Experimento,3.2.3,60.01911907656978,
8,14,14,999,0.5,0:10,3,Yellow,['space'],0,0,1,15:50,./completed_changuitos/montage_cjztk_64.19_74.89.jpg,right,0,0,0,0,,,,,0,1,1,1,,,,,,,,,0,0,0,0,0,16,16,16,,,,,,,,,,,,,,,,,,,,,,,,,,,,,,,,,192.6776361041244,None,None,0,192.6776361041244,None,,,,,,,,,,,,,,,,,,,,,,,,,,,,,,,,,,,,,,,,,,,,,,FedeG,001,a,2019_Nov_01_1724,Experimento,3.2.3,60.01911907656978,
8,14,14,999,0.5,0:10,3,Blue,None,0,0,1,15:50,./completed_changuitos/montage_cjztk_64.19_74.89.jpg,right,0,0,0,0,,,,,0,1,1,1,,,,,,,,,0,0,0,0,0,17,17,17,,,,,,,,,,,,,,,,,,,,,,,,,,,,,,,,,192.6776361041244,None,None,1,192.6776361041244,None,,,,,,,,,,,,,,,,,,,,,,,,,,,,,,,,,,,,,,,,,,,,,,FedeG,001,a,2019_Nov_01_1724,Experimento,3.2.3,60.01911907656978,
8,14,14,999,0.5,0:10,3,Cyan,None,0,0,1,15:50,./completed_changuitos/montage_cjztk_64.19_74.89.jpg,right,0,0,0,0,,,,,0,1,1,1,,,,,,,,,0,0,0,0,0,18,18,18,,,,,,,,,,,,,,,,,,,,,,,,,,,,,,,,,192.6776361041244,None,None,1,192.6776361041244,None,,,,,,,,,,,,,,,,,,,,,,,,,,,,,,,,,,,,,,,,,,,,,,FedeG,001,a,2019_Nov_01_1724,Experimento,3.2.3,60.01911907656978,
8,14,14,999,0.5,0:10,3,Blue,['space'],0,0,1,15:50,./completed_changuitos/montage_cjztk_64.19_74.89.jpg,right,0,0,0,0,,,,,0,1,1,1,,,,,,,,,0,0,0,0,0,19,19,19,,,,,,,,,,,,,,,,,,,,,,,,,,,,,,,,,192.6776361041244,None,None,0,192.6776361041244,None,,,,,,,,,,,,,,,,,,,,,,,,,,,,,,,,,,,,,,,,,,,,,,FedeG,001,a,2019_Nov_01_1724,Experimento,3.2.3,60.01911907656978,
8,14,14,999,0.5,0:10,3,Yellow,None,0,0,1,15:50,./completed_changuitos/montage_cjztk_64.19_74.89.jpg,right,0,0,0,0,,,,,0,1,1,1,,,,,,,,,0,0,0,0,0,20,20,20,,,,,,,,,,,,,,,,,,,,,,,,,,,,,,,,,192.6776361041244,None,None,1,192.6776361041244,None,,,,,,,,,,,,,,,,,,,,,,,,,,,,,,,,,,,,,,,,,,,,,,FedeG,001,a,2019_Nov_01_1724,Experimento,3.2.3,60.01911907656978,
8,14,14,999,0.5,0:10,3,Cyan,None,0,0,1,15:50,./completed_changuitos/montage_cjztk_64.19_74.89.jpg,right,0,0,0,0,,,,,0,1,1,1,,,,,,,,,0,0,0,0,0,21,21,21,,,,,,,,,,,,,,,,,,,,,,,,,,,,,,,,,192.6776361041244,None,None,1,192.6776361041244,None,,,,,,,,,,,,,,,,,,,,,,,,,,,,,,,,,,,,,,,,,,,,,,FedeG,001,a,2019_Nov_01_1724,Experimento,3.2.3,60.01911907656978,
8,14,14,999,0.5,0:10,3,Yellow,['space'],0,0,1,15:50,./completed_changuitos/montage_cjztk_64.19_74.89.jpg,right,0,0,0,0,,,,,0,1,1,1,,,,,,,,,0,0,0,0,0,22,22,22,,,,,,,,,,,,,,,,,,,,,,,,,,,,,,,,,192.69429573407797,None,None,0,192.69429573407797,None,,,,,,,,,,,,,,,,,,,,,,,,,,,,,,,,,,,,,,,,,,,,,,FedeG,001,a,2019_Nov_01_1724,Experimento,3.2.3,60.01911907656978,
8,14,14,999,0.5,0:10,3,Magenta,None,0,0,1,15:50,./completed_changuitos/montage_cjztk_64.19_74.89.jpg,right,0,0,0,0,,,,,0,1,1,1,,,,,,,,,0,0,0,0,0,23,23,23,,,,,,,,,,,,,,,,,,,,,,,,,,,,,,,,,192.69429573407797,None,None,1,192.69429573407797,None,,,,,,,,,,,,,,,,,,,,,,,,,,,,,,,,,,,,,,,,,,,,,,FedeG,001,a,2019_Nov_01_1724,Experimento,3.2.3,60.01911907656978,
8,14,14,999,0.5,0:10,3,Red,None,0,0,1,15:50,./completed_changuitos/montage_cjztk_64.19_74.89.jpg,right,0,0,0,0,,,,,0,1,1,1,,,,,,,,,0,0,0,0,0,24,24,24,,,,,,,,,,,,,,,,,,,,,,,,,,,,,,,,,192.69429573407797,None,None,1,192.69429573407797,None,,,,,,,,,,,,,,,,,,,,,,,,,,,,,,,,,,,,,,,,,,,,,,FedeG,001,a,2019_Nov_01_1724,Experimento,3.2.3,60.01911907656978,
8,14,14,999,0.5,0:10,3,Magenta,['space'],0,0,1,15:50,./completed_changuitos/montage_cjztk_64.19_74.89.jpg,right,0,0,0,0,,,,,0,1,1,1,,,,,,,,,0,0,0,0,0,25,25,25,,,,,,,,,,,,,,,,,,,,,,,,,,,,,,,,,192.69429573407797,None,None,0,192.69429573407797,None,,,,,,,,,,,,,,,,,,,,,,,,,,,,,,,,,,,,,,,,,,,,,,FedeG,001,a,2019_Nov_01_1724,Experimento,3.2.3,60.01911907656978,
8,14,14,999,0.5,0:10,3,Red,['space'],0,0,1,15:50,./completed_changuitos/montage_cjztk_64.19_74.89.jpg,right,0,0,0,0,,,,,0,1,1,1,,,,,,,,,0,0,0,0,0,26,26,26,,,,,,,,,,,,,,,,,,,,,,,,,,,,,,,,,192.69429573407797,None,None,0,192.69429573407797,None,,,,,,,,,,,,,,,,,,,,,,,,,,,,,,,,,,,,,,,,,,,,,,FedeG,001,a,2019_Nov_01_1724,Experimento,3.2.3,60.01911907656978,
8,14,14,999,0.5,0:10,3,Yellow,None,0,0,1,15:50,./completed_changuitos/montage_cjztk_64.19_74.89.jpg,right,0,0,0,0,,,,,0,1,1,1,,,,,,,,,0,0,0,0,0,27,27,27,,,,,,,,,,,,,,,,,,,,,,,,,,,,,,,,,192.69429573407797,None,None,1,192.69429573407797,None,,,,,,,,,,,,,,,,,,,,,,,,,,,,,,,,,,,,,,,,,,,,,,FedeG,001,a,2019_Nov_01_1724,Experimento,3.2.3,60.01911907656978,
8,14,14,999,0.5,0:10,3,Cyan,None,0,0,1,15:50,./completed_changuitos/montage_cjztk_64.19_74.89.jpg,right,0,0,0,0,,,,,0,1,1,1,,,,,,,,,0,0,0,0,0,28,28,28,,,,,,,,,,,,,,,,,,,,,,,,,,,,,,,,,192.71095536403155,None,None,1,192.71095536403155,None,,,,,,,,,,,,,,,,,,,,,,,,,,,,,,,,,,,,,,,,,,,,,,FedeG,001,a,2019_Nov_01_1724,Experimento,3.2.3,60.01911907656978,
8,14,14,999,0.5,0:10,3,Green,None,0,0,1,15:50,./completed_changuitos/montage_cjztk_64.19_74.89.jpg,right,0,0,0,0,,,,,0,1,1,1,,,,,,,,,0,0,0,0,0,29,29,29,,,,,,,,,,,,,,,,,,,,,,,,,,,,,,,,,192.71095536403155,None,None,1,192.71095536403155,None,,,,,,,,,,,,,,,,,,,,,,,,,,,,,,,,,,,,,,,,,,,,,,FedeG,001,a,2019_Nov_01_1724,Experimento,3.2.3,60.01911907656978,
8,14,14,999,0.5,0:10,3,White,None,0,0,1,15:50,./completed_changuitos/montage_cjztk_64.19_74.89.jpg,right,0,0,0,0,,,,,0,1,1,1,,,,,,,,,0,0,0,0,0,30,30,30,,,,,,,,,,,,,,,,,,,,,,,,,,,,,,,,,192.71095536403155,None,None,1,192.71095536403155,None,,,,,,,,,,,,,,,,,,,,,,,,,,,,,,,,,,,,,,,,,,,,,,FedeG,001,a,2019_Nov_01_1724,Experimento,3.2.3,60.01911907656978,
8,14,14,999,0.5,0:10,3,Green,['space'],0,0,1,15:50,./completed_changuitos/montage_cjztk_64.19_74.89.jpg,right,0,0,0,0,,,,,0,1,1,1,,,,,,,,,0,0,0,0,0,31,31,31,,,,,,,,,,,,,,,,,,,,,,,,,,,,,,,,,192.71095536403155,None,None,0,192.71095536403155,None,,,,,,,,,,,,,,,,,,,,,,,,,,,,,,,,,,,,,,,,,,,,,,FedeG,001,a,2019_Nov_01_1724,Experimento,3.2.3,60.01911907656978,
8,14,14,999,0.5,0:10,3,Red,None,0,0,1,15:50,./completed_changuitos/montage_cjztk_64.19_74.89.jpg,right,0,0,0,0,,,,,0,1,1,1,,,,,,,,,0,0,0,0,0,32,32,32,,,,,,,,,,,,,,,,,,,,,,,,,,,,,,,,,192.71095536403155,None,None,1,192.71095536403155,None,,,,,,,,,,,,,,,,,,,,,,,,,,,,,,,,,,,,,,,,,,,,,,FedeG,001,a,2019_Nov_01_1724,Experimento,3.2.3,60.01911907656978,
8,14,14,999,0.5,0:10,3,Blue,None,0,0,1,15:50,./completed_changuitos/montage_cjztk_64.19_74.89.jpg,right,0,0,0,0,,,,,0,1,1,1,,,,,,,,,0,0,0,0,0,33,33,33,,,,,,,,,,,,,,,,,,,,,,,,,,,,,,,,,192.72761499398513,None,None,1,192.72761499398513,None,,,,,,,,,,,,,,,,,,,,,,,,,,,,,,,,,,,,,,,,,,,,,,FedeG,001,a,2019_Nov_01_1724,Experimento,3.2.3,60.01911907656978,
8,14,14,999,0.5,0:10,3,Green,None,0,0,1,15:50,./completed_changuitos/montage_cjztk_64.19_74.89.jpg,right,0,0,0,0,,,,,0,1,1,1,,,,,,,,,0,0,0,0,0,34,34,34,,,,,,,,,,,,,,,,,,,,,,,,,,,,,,,,,192.72761499398513,None,None,1,192.72761499398513,None,,,,,,,,,,,,,,,,,,,,,,,,,,,,,,,,,,,,,,,,,,,,,,FedeG,001,a,2019_Nov_01_1724,Experimento,3.2.3,60.01911907656978,
8,14,14,999,0.5,0:10,3,,,0,0,1,15:50,./completed_changuitos/montage_cjztk_64.19_74.89.jpg,right,0,0,0,0,,,,,0,1,1,1,,,,,,,,,0,0,0,0,,,,,,,,,,,,,,,,,,,,,,,,,,,,,,,,,,,,,,,,,,,,192.8228216704956,None,right,1,3.483371937101765,192.8228216704956,None,192.8228216704956,195.82661416659175,,,,,,,,,,,,,,,,,,,,,,,,,,,,,,,,,,,,FedeG,001,a,2019_Nov_01_1724,Experimento,3.2.3,60.01911907656978,
8,14,14,999,0.5,0:10,3,,,0,0,1,15:50,,,0,0,0,0,,,,,0,1,1,1,,,,,,,,,,,,,,,,,,,,,,,,,,,,,,,,,,,,,,,,,,,,,,,,,,,,,,,,,,,,,,,,,,,,,,,,,,,,,,,,,,,,,,,,,,,,,,,,,,,,FedeG,001,a,2019_Nov_01_1724,Experimento,3.2.3,60.01911907656978,
8,14,14,999,0.5,0:10,3,,,0,1,0,19:50,./completed_changuitos/montage_tbawu_156.79_179.75.jpg,right,0,0,0,0,,,,,0,2,2,2,,,,,0,0,0,0,,,,,,,,,,,,,,,,,,,,,,196.5276828134156,199.141907513771,199.141907513771,207.15579832579533,207.15579832579533,221.16743651711295,right,1,1.6134315977797087,221.16743651711295,None,221.16743651711295,None,221.16743651711295,None,,,,,,,,,,,,,,,,,,,,,,,,,,,,,,,,,,,,,,,,,,,,,,,,,,,,,,,,FedeG,001,a,2019_Nov_01_1724,Experimento,3.2.3,60.01911907656978,
8,14,14,999,0.5,0:10,3,,,0,1,0,19:50,,,0,0,0,0,,,,,0,2,2,2,,,,,,,,,,,,,,,,,,,,,,,,,,,,,,,,,,,,,,,,,,,,,,,,,,,,,,,,,,,,,,,,,,,,,,,,,,,,,,,,,,,,,,,,,,,,,,,,,,,,FedeG,001,a,2019_Nov_01_1724,Experimento,3.2.3,60.01911907656978,
8,14,14,999,0.5,0:10,3,Magenta,None,0,0,1,20:50,./completed_changuitos/montage_zvnmy_101.65_88.8.jpg,left,0,0,0,0,,,,,0,3,3,3,,,,,,,,,0,0,0,0,0,0,0,0,,,,,,,,,,,,,,,,,,,,,,,,,,,,,222.9693755089429,226.76528561246596,226.76528561246596,None,234.8127387978202,235.3123583441593,None,1,234.8127387978202,None,,,,,,,,,,,,,,,,,,,,,,,,,,,,,,,,,,,,,,,,,,,,,,FedeG,001,a,2019_Nov_01_1724,Experimento,3.2.3,60.01911907656978,
8,14,14,999,0.5,0:10,3,Blue,['space'],0,0,1,20:50,./completed_changuitos/montage_zvnmy_101.65_88.8.jpg,left,0,0,0,0,,,,,0,3,3,3,,,,,,,,,0,0,0,0,0,1,1,1,,,,,,,,,,,,,,,,,,,,,,,,,,,,,,,,,236.82836553600282,237.32819186486086,None,0,236.82836553600282,236.82836553600282,,,,,,,,,,,,,,,,,,,,,,,,,,,,,,,,,,,,,,,,,,,,,,FedeG,001,a,2019_Nov_01_1724,Experimento,3.2.3,60.01911907656978,
8,14,14,999,0.5,0:10,3,Cyan,None,0,0,1,20:50,./completed_changuitos/montage_zvnmy_101.65_88.8.jpg,left,0,0,0,0,,,,,0,3,3,3,,,,,,,,,0,0,0,0,0,2,2,2,,,,,,,,,,,,,,,,,,,,,,,,,,,,,,,,,238.82766352243925,239.32771809732003,None,1,238.82766352243925,238.82766352243925,,,,,,,,,,,,,,,,,,,,,,,,,,,,,,,,,,,,,,,,,,,,,,FedeG,001,a,2019_Nov_01_1724,Experimento,3.2.3,60.01911907656978,
8,14,14,999,0.5,0:10,3,Yellow,None,0,0,1,20:50,./completed_changuitos/montage_zvnmy_101.65_88.8.jpg,left,0,0,0,0,,,,,0,3,3,3,,,,,,,,,0,0,0,0,0,3,3,3,,,,,,,,,,,,,,,,,,,,,,,,,,,,,,,,,240.82698323412842,241.32674438722825,None,1,240.82698323412842,240.82698323412842,,,,,,,,,,,,,,,,,,,,,,,,,,,,,,,,,,,,,,,,,,,,,,FedeG,001,a,2019_Nov_01_1724,Experimento,3.2.3,60.01911907656978,
8,14,14,999,0.5,0:10,3,Cyan,None,0,0,1,20:50,./completed_changuitos/montage_zvnmy_101.65_88.8.jpg,left,0,0,0,0,,,,,0,3,3,3,,,,,,,,,0,0,0,0,0,4,4,4,,,,,,,,,,,,,,,,,,,,,,,,,,,,,,,,,242.82627153581052,243.3260478704142,['return'],0,242.82627153581052,242.82627153581052,[0.3939277658937499],,,,,,,,,,,,,,,,,,,,,,,,,,,,,,,,,,,,,,,,,,,,,FedeG,001,a,2019_Nov_01_1724,Experimento,3.2.3,60.01911907656978,
8,14,14,999,0.5,0:10,3,Blue,None,0,0,1,20:50,./completed_changuitos/montage_zvnmy_101.65_88.8.jpg,left,0,0,0,0,,,,,0,3,3,3,,,,,,,,,0,0,0,0,0,5,5,5,,,,,,,,,,,,,,,,,,,,,,,,,,,,,,,,,244.8255535554963,245.3252605263442,None,1,244.8255535554963,244.8255535554963,,,,,,,,,,,,,,,,,,,,,,,,,,,,,,,,,,,,,,,,,,,,,,FedeG,001,a,2019_Nov_01_1724,Experimento,3.2.3,60.01911907656978,
8,14,14,999,0.5,0:10,3,Cyan,['space'],0,0,1,20:50,./completed_changuitos/montage_zvnmy_101.65_88.8.jpg,left,0,0,0,0,,,,,0,3,3,3,,,,,,,,,0,0,0,0,0,6,6,6,,,,,,,,,,,,,,,,,,,,,,,,,,,,,,,,,246.82480625917742,247.32453757277835,None,0,246.82480625917742,246.82480625917742,,,,,,,,,,,,,,,,,,,,,,,,,,,,,,,,,,,,,,,,,,,,,,FedeG,001,a,2019_Nov_01_1724,Experimento,3.2.3,60.01911907656978,
8,14,14,999,0.5,0:10,3,Magenta,None,0,0,1,20:50,./completed_changuitos/montage_zvnmy_101.65_88.8.jpg,left,0,0,0,0,,,,,0,3,3,3,,,,,,,,,0,0,0,0,0,7,7,7,,,,,,,,,,,,,,,,,,,,,,,,,,,,,,,,,248.79060969171442,None,None,1,248.79060969171442,None,,,,,,,,,,,,,,,,,,,,,,,,,,,,,,,,,,,,,,,,,,,,,,FedeG,001,a,2019_Nov_01_1724,Experimento,3.2.3,60.01911907656978,
8,14,14,999,0.5,0:10,3,Red,None,0,0,1,20:50,./completed_changuitos/montage_zvnmy_101.65_88.8.jpg,left,0,0,0,0,,,,,0,3,3,3,,,,,,,,,0,0,0,0,0,8,8,8,,,,,,,,,,,,,,,,,,,,,,,,,,,,,,,,,248.79060969171442,None,None,1,248.79060969171442,None,,,,,,,,,,,,,,,,,,,,,,,,,,,,,,,,,,,,,,,,,,,,,,FedeG,001,a,2019_Nov_01_1724,Experimento,3.2.3,60.01911907656978,
8,14,14,999,0.5,0:10,3,Magenta,['space'],0,0,1,20:50,./completed_changuitos/montage_zvnmy_101.65_88.8.jpg,left,0,0,0,0,,,,,0,3,3,3,,,,,,,,,0,0,0,0,0,9,9,9,,,,,,,,,,,,,,,,,,,,,,,,,,,,,,,,,248.79060969171442,None,None,0,248.79060969171442,None,,,,,,,,,,,,,,,,,,,,,,,,,,,,,,,,,,,,,,,,,,,,,,FedeG,001,a,2019_Nov_01_1724,Experimento,3.2.3,60.01911907656978,
8,14,14,999,0.5,0:10,3,Green,None,0,0,1,20:50,./completed_changuitos/montage_zvnmy_101.65_88.8.jpg,left,0,0,0,0,,,,,0,3,3,3,,,,,,,,,0,0,0,0,0,10,10,10,,,,,,,,,,,,,,,,,,,,,,,,,,,,,,,,,248.807269321668,None,None,1,248.807269321668,None,,,,,,,,,,,,,,,,,,,,,,,,,,,,,,,,,,,,,,,,,,,,,,FedeG,001,a,2019_Nov_01_1724,Experimento,3.2.3,60.01911907656978,
8,14,14,999,0.5,0:10,3,Yellow,['space'],0,0,1,20:50,./completed_changuitos/montage_zvnmy_101.65_88.8.jpg,left,0,0,0,0,,,,,0,3,3,3,,,,,,,,,0,0,0,0,0,11,11,11,,,,,,,,,,,,,,,,,,,,,,,,,,,,,,,,,248.807269321668,None,None,0,248.807269321668,None,,,,,,,,,,,,,,,,,,,,,,,,,,,,,,,,,,,,,,,,,,,,,,FedeG,001,a,2019_Nov_01_1724,Experimento,3.2.3,60.01911907656978,
8,14,14,999,0.5,0:10,3,Blue,None,0,0,1,20:50,./completed_changuitos/montage_zvnmy_101.65_88.8.jpg,left,0,0,0,0,,,,,0,3,3,3,,,,,,,,,0,0,0,0,0,12,12,12,,,,,,,,,,,,,,,,,,,,,,,,,,,,,,,,,248.807269321668,None,None,1,248.807269321668,None,,,,,,,,,,,,,,,,,,,,,,,,,,,,,,,,,,,,,,,,,,,,,,FedeG,001,a,2019_Nov_01_1724,Experimento,3.2.3,60.01911907656978,
8,14,14,999,0.5,0:10,3,Cyan,None,0,0,1,20:50,./completed_changuitos/montage_zvnmy_101.65_88.8.jpg,left,0,0,0,0,,,,,0,3,3,3,,,,,,,,,0,0,0,0,0,13,13,13,,,,,,,,,,,,,,,,,,,,,,,,,,,,,,,,,248.82392895162158,None,None,1,248.82392895162158,None,,,,,,,,,,,,,,,,,,,,,,,,,,,,,,,,,,,,,,,,,,,,,,FedeG,001,a,2019_Nov_01_1724,Experimento,3.2.3,60.01911907656978,
8,14,14,999,0.5,0:10,3,Blue,['space'],0,0,1,20:50,./completed_changuitos/montage_zvnmy_101.65_88.8.jpg,left,0,0,0,0,,,,,0,3,3,3,,,,,,,,,0,0,0,0,0,14,14,14,,,,,,,,,,,,,,,,,,,,,,,,,,,,,,,,,248.82392895162158,None,None,0,248.82392895162158,None,,,,,,,,,,,,,,,,,,,,,,,,,,,,,,,,,,,,,,,,,,,,,,FedeG,001,a,2019_Nov_01_1724,Experimento,3.2.3,60.01911907656978,
8,14,14,999,0.5,0:10,3,Yellow,None,0,0,1,20:50,./completed_changuitos/montage_zvnmy_101.65_88.8.jpg,left,0,0,0,0,,,,,0,3,3,3,,,,,,,,,0,0,0,0,0,15,15,15,,,,,,,,,,,,,,,,,,,,,,,,,,,,,,,,,248.82392895162158,None,None,1,248.82392895162158,None,,,,,,,,,,,,,,,,,,,,,,,,,,,,,,,,,,,,,,,,,,,,,,FedeG,001,a,2019_Nov_01_1724,Experimento,3.2.3,60.01911907656978,
8,14,14,999,0.5,0:10,3,Cyan,None,0,0,1,20:50,./completed_changuitos/montage_zvnmy_101.65_88.8.jpg,left,0,0,0,0,,,,,0,3,3,3,,,,,,,,,0,0,0,0,0,16,16,16,,,,,,,,,,,,,,,,,,,,,,,,,,,,,,,,,248.82392895162158,None,None,1,248.82392895162158,None,,,,,,,,,,,,,,,,,,,,,,,,,,,,,,,,,,,,,,,,,,,,,,FedeG,001,a,2019_Nov_01_1724,Experimento,3.2.3,60.01911907656978,
8,14,14,999,0.5,0:10,3,Yellow,['space'],0,0,1,20:50,./completed_changuitos/montage_zvnmy_101.65_88.8.jpg,left,0,0,0,0,,,,,0,3,3,3,,,,,,,,,0,0,0,0,0,17,17,17,,,,,,,,,,,,,,,,,,,,,,,,,,,,,,,,,248.84058858157513,None,None,0,248.84058858157513,None,,,,,,,,,,,,,,,,,,,,,,,,,,,,,,,,,,,,,,,,,,,,,,FedeG,001,a,2019_Nov_01_1724,Experimento,3.2.3,60.01911907656978,
8,14,14,999,0.5,0:10,3,Magenta,None,0,0,1,20:50,./completed_changuitos/montage_zvnmy_101.65_88.8.jpg,left,0,0,0,0,,,,,0,3,3,3,,,,,,,,,0,0,0,0,0,18,18,18,,,,,,,,,,,,,,,,,,,,,,,,,,,,,,,,,248.84058858157513,None,None,1,248.84058858157513,None,,,,,,,,,,,,,,,,,,,,,,,,,,,,,,,,,,,,,,,,,,,,,,FedeG,001,a,2019_Nov_01_1724,Experimento,3.2.3,60.01911907656978,
8,14,14,999,0.5,0:10,3,Red,None,0,0,1,20:50,./completed_changuitos/montage_zvnmy_101.65_88.8.jpg,left,0,0,0,0,,,,,0,3,3,3,,,,,,,,,0,0,0,0,0,19,19,19,,,,,,,,,,,,,,,,,,,,,,,,,,,,,,,,,248.84058858157513,None,None,1,248.84058858157513,None,,,,,,,,,,,,,,,,,,,,,,,,,,,,,,,,,,,,,,,,,,,,,,FedeG,001,a,2019_Nov_01_1724,Experimento,3.2.3,60.01911907656978,
8,14,14,999,0.5,0:10,3,Magenta,['space'],0,0,1,20:50,./completed_changuitos/montage_zvnmy_101.65_88.8.jpg,left,0,0,0,0,,,,,0,3,3,3,,,,,,,,,0,0,0,0,0,20,20,20,,,,,,,,,,,,,,,,,,,,,,,,,,,,,,,,,248.84058858157513,None,None,0,248.84058858157513,None,,,,,,,,,,,,,,,,,,,,,,,,,,,,,,,,,,,,,,,,,,,,,,FedeG,001,a,2019_Nov_01_1724,Experimento,3.2.3,60.01911907656978,
8,14,14,999,0.5,0:10,3,Red,['space'],0,0,1,20:50,./completed_changuitos/montage_zvnmy_101.65_88.8.jpg,left,0,0,0,0,,,,,0,3,3,3,,,,,,,,,0,0,0,0,0,21,21,21,,,,,,,,,,,,,,,,,,,,,,,,,,,,,,,,,248.84058858157513,None,None,0,248.84058858157513,None,,,,,,,,,,,,,,,,,,,,,,,,,,,,,,,,,,,,,,,,,,,,,,FedeG,001,a,2019_Nov_01_1724,Experimento,3.2.3,60.01911907656978,
8,14,14,999,0.5,0:10,3,Yellow,None,0,0,1,20:50,./completed_changuitos/montage_zvnmy_101.65_88.8.jpg,left,0,0,0,0,,,,,0,3,3,3,,,,,,,,,0,0,0,0,0,22,22,22,,,,,,,,,,,,,,,,,,,,,,,,,,,,,,,,,248.8572482115287,None,None,1,248.8572482115287,None,,,,,,,,,,,,,,,,,,,,,,,,,,,,,,,,,,,,,,,,,,,,,,FedeG,001,a,2019_Nov_01_1724,Experimento,3.2.3,60.01911907656978,
8,14,14,999,0.5,0:10,3,Cyan,None,0,0,1,20:50,./completed_changuitos/montage_zvnmy_101.65_88.8.jpg,left,0,0,0,0,,,,,0,3,3,3,,,,,,,,,0,0,0,0,0,23,23,23,,,,,,,,,,,,,,,,,,,,,,,,,,,,,,,,,248.8572482115287,None,None,1,248.8572482115287,None,,,,,,,,,,,,,,,,,,,,,,,,,,,,,,,,,,,,,,,,,,,,,,FedeG,001,a,2019_Nov_01_1724,Experimento,3.2.3,60.01911907656978,
8,14,14,999,0.5,0:10,3,Green,None,0,0,1,20:50,./completed_changuitos/montage_zvnmy_101.65_88.8.jpg,left,0,0,0,0,,,,,0,3,3,3,,,,,,,,,0,0,0,0,0,24,24,24,,,,,,,,,,,,,,,,,,,,,,,,,,,,,,,,,248.8572482115287,None,None,1,248.8572482115287,None,,,,,,,,,,,,,,,,,,,,,,,,,,,,,,,,,,,,,,,,,,,,,,FedeG,001,a,2019_Nov_01_1724,Experimento,3.2.3,60.01911907656978,
8,14,14,999,0.5,0:10,3,White,None,0,0,1,20:50,./completed_changuitos/montage_zvnmy_101.65_88.8.jpg,left,0,0,0,0,,,,,0,3,3,3,,,,,,,,,0,0,0,0,0,25,25,25,,,,,,,,,,,,,,,,,,,,,,,,,,,,,,,,,248.8572482115287,None,None,1,248.8572482115287,None,,,,,,,,,,,,,,,,,,,,,,,,,,,,,,,,,,,,,,,,,,,,,,FedeG,001,a,2019_Nov_01_1724,Experimento,3.2.3,60.01911907656978,
8,14,14,999,0.5,0:10,3,Green,['space'],0,0,1,20:50,./completed_changuitos/montage_zvnmy_101.65_88.8.jpg,left,0,0,0,0,,,,,0,3,3,3,,,,,,,,,0,0,0,0,0,26,26,26,,,,,,,,,,,,,,,,,,,,,,,,,,,,,,,,,248.8572482115287,None,None,0,248.8572482115287,None,,,,,,,,,,,,,,,,,,,,,,,,,,,,,,,,,,,,,,,,,,,,,,FedeG,001,a,2019_Nov_01_1724,Experimento,3.2.3,60.01911907656978,
8,14,14,999,0.5,0:10,3,Red,None,0,0,1,20:50,./completed_changuitos/montage_zvnmy_101.65_88.8.jpg,left,0,0,0,0,,,,,0,3,3,3,,,,,,,,,0,0,0,0,0,27,27,27,,,,,,,,,,,,,,,,,,,,,,,,,,,,,,,,,248.8572482115287,None,None,1,248.8572482115287,None,,,,,,,,,,,,,,,,,,,,,,,,,,,,,,,,,,,,,,,,,,,,,,FedeG,001,a,2019_Nov_01_1724,Experimento,3.2.3,60.01911907656978,
8,14,14,999,0.5,0:10,3,Blue,None,0,0,1,20:50,./completed_changuitos/montage_zvnmy_101.65_88.8.jpg,left,0,0,0,0,,,,,0,3,3,3,,,,,,,,,0,0,0,0,0,28,28,28,,,,,,,,,,,,,,,,,,,,,,,,,,,,,,,,,248.8572482115287,None,None,1,248.8572482115287,None,,,,,,,,,,,,,,,,,,,,,,,,,,,,,,,,,,,,,,,,,,,,,,FedeG,001,a,2019_Nov_01_1724,Experimento,3.2.3,60.01911907656978,
8,14,14,999,0.5,0:10,3,Green,None,0,0,1,20:50,./completed_changuitos/montage_zvnmy_101.65_88.8.jpg,left,0,0,0,0,,,,,0,3,3,3,,,,,,,,,0,0,0,0,0,29,29,29,,,,,,,,,,,,,,,,,,,,,,,,,,,,,,,,,248.8572482115287,None,None,1,248.8572482115287,None,,,,,,,,,,,,,,,,,,,,,,,,,,,,,,,,,,,,,,,,,,,,,,FedeG,001,a,2019_Nov_01_1724,Experimento,3.2.3,60.01911907656978,
8,14,14,999,0.5,0:10,3,,,0,0,1,20:50,./completed_changuitos/montage_zvnmy_101.65_88.8.jpg,left,0,0,0,0,,,,,0,3,3,3,,,,,,,,,0,0,0,0,,,,,,,,,,,,,,,,,,,,,,,,,,,,,,,,,,,,,,,,,,,,248.94038459978037,None,left,1,2.3044676279350824,248.94038459978037,None,248.94038459978037,None,,,,,,,,,,,,,,,,,,,,,,,,,,,,,,,,,,,,FedeG,001,a,2019_Nov_01_1724,Experimento,3.2.3,60.01911907656978,
8,14,14,999,0.5,0:10,3,,,0,0,1,20:50,,,0,0,0,0,,,,,0,3,3,3,,,,,,,,,,,,,,,,,,,,,,,,,,,,,,,,,,,,,,,,,,,,,,,,,,,,,,,,,,,,,,,,,,,,,,,,,,,,,,,,,,,,,,,,,,,,,,,,,,,,FedeG,001,a,2019_Nov_01_1724,Experimento,3.2.3,60.01911907656978,
8,14,14,999,0.5,0:10,3,,,0,1,0,25:50,./completed_changuitos/montage_yqsji_21.95_25.9.jpg,right,0,0,0,0,,,,,0,4,4,4,,,,,0,0,0,0,,,,,,,,,,,,,,,,,,,,,,251.47285455938618,256.27128243639163,256.27128243639163,264.28521355791963,264.28521355791963,278.2968114397336,right,1,1.3301615337913972,278.2968114397336,None,278.2968114397336,None,278.2968114397336,None,,,,,,,,,,,,,,,,,,,,,,,,,,,,,,,,,,,,,,,,,,,,,,,,,,,,,,,,FedeG,001,a,2019_Nov_01_1724,Experimento,3.2.3,60.01911907656978,
8,14,14,999,0.5,0:10,3,,,0,1,0,25:50,,,0,0,0,0,,,,,0,4,4,4,,,,,,,,,,,,,,,,,,,,,,,,,,,,,,,,,,,,,,,,,,,,,,,,,,,,,,,,,,,,,,,,,,,,,,,,,,,,,,,,,,,,,,,,,,,,,,,,,,,,FedeG,001,a,2019_Nov_01_1724,Experimento,3.2.3,60.01911907656978,
8,14,14,999,0.5,0:10,3,Red,None,0,0,1,28:50,./completed_changuitos/montage_oimtq_399.0_341.35.jpg,left,0,0,0,0,,,,,0,5,5,5,,,,,,,,,0,0,0,0,0,0,0,0,,,,,,,,,,,,,,,,,,,,,,,,,,,,,279.7965487735855,281.96209938177344,281.96209938177344,None,290.0257077786082,290.5256984864827,None,1,290.0257077786082,None,,,,,,,,,,,,,,,,,,,,,,,,,,,,,,,,,,,,,,,,,,,,,,FedeG,001,a,2019_Nov_01_1724,Experimento,3.2.3,60.01911907656978,
8,14,14,999,0.5,0:10,3,Magenta,['space'],0,0,1,28:50,./completed_changuitos/montage_oimtq_399.0_341.35.jpg,left,0,0,0,0,,,,,0,5,5,5,,,,,,,,,0,0,0,0,0,1,1,1,,,,,,,,,,,,,,,,,,,,,,,,,,,,,,,,,292.02508769280394,292.52486873890666,None,0,292.02508769280394,292.02508769280394,,,,,,,,,,,,,,,,,,,,,,,,,,,,,,,,,,,,,,,,,,,,,,FedeG,001,a,2019_Nov_01_1724,Experimento,3.2.3,60.01911907656978,
8,14,14,999,0.5,0:10,3,Green,None,0,0,1,28:50,./completed_changuitos/montage_oimtq_399.0_341.35.jpg,left,0,0,0,0,,,,,0,5,5,5,,,,,,,,,0,0,0,0,0,2,2,2,,,,,,,,,,,,,,,,,,,,,,,,,,,,,,,,,294.0243584572345,294.524264881602,None,1,294.0243584572345,294.0243584572345,,,,,,,,,,,,,,,,,,,,,,,,,,,,,,,,,,,,,,,,,,,,,,FedeG,001,a,2019_Nov_01_1724,Experimento,3.2.3,60.01911907656978,
8,14,14,999,0.5,0:10,3,Yellow,['space'],0,0,1,28:50,./completed_changuitos/montage_oimtq_399.0_341.35.jpg,left,0,0,0,0,,,,,0,5,5,5,,,,,,,,,0,0,0,0,0,3,3,3,,,,,,,,,,,,,,,,,,,,,,,,,,,,,,,,,296.0235554081628,296.5233406422667,None,0,296.0235554081628,296.0235554081628,,,,,,,,,,,,,,,,,,,,,,,,,,,,,,,,,,,,,,,,,,,,,,FedeG,001,a,2019_Nov_01_1724,Experimento,3.2.3,60.01911907656978,
8,14,14,999,0.5,0:10,3,Blue,None,0,0,1,28:50,./completed_changuitos/montage_oimtq_399.0_341.35.jpg,left,0,0,0,0,,,,,0,5,5,5,,,,,,,,,0,0,0,0,0,4,4,4,,,,,,,,,,,,,,,,,,,,,,,,,,,,,,,,,298.0228447568479,298.52268652895873,None,1,298.0228447568479,298.0228447568479,,,,,,,,,,,,,,,,,,,,,,,,,,,,,,,,,,,,,,,,,,,,,,FedeG,001,a,2019_Nov_01_1724,Experimento,3.2.3,60.01911907656978,
8,14,14,999,0.5,0:10,3,Cyan,None,0,0,1,28:50,./completed_changuitos/montage_oimtq_399.0_341.35.jpg,left,0,0,0,0,,,,,0,5,5,5,,,,,,,,,0,0,0,0,0,5,5,5,,,,,,,,,,,,,,,,,,,,,,,,,,,,,,,,,300.0221890730354,300.5220884301525,None,1,300.0221890730354,300.0221890730354,,,,,,,,,,,,,,,,,,,,,,,,,,,,,,,,,,,,,,,,,,,,,,FedeG,001,a,2019_Nov_01_1724,Experimento,3.2.3,60.01911907656978,
8,14,14,999,0.5,0:10,3,Blue,['space'],0,0,1,28:50,./completed_changuitos/montage_oimtq_399.0_341.35.jpg,left,0,0,0,0,,,,,0,5,5,5,,,,,,,,,0,0,0,0,0,6,6,6,,,,,,,,,,,,,,,,,,,,,,,,,,,,,,,,,302.0213677014617,302.52131600583016,['return'],0,302.0213677014617,302.0213677014617,[0.7408617177243286],,,,,,,,,,,,,,,,,,,,,,,,,,,,,,,,,,,,,,,,,,,,,FedeG,001,a,2019_Nov_01_1724,Experimento,3.2.3,60.01911907656978,
8,14,14,999,0.5,0:10,3,Yellow,None,0,0,1,28:50,./completed_changuitos/montage_oimtq_399.0_341.35.jpg,left,0,0,0,0,,,,,0,5,5,5,,,,,,,,,0,0,0,0,0,7,7,7,,,,,,,,,,,,,,,,,,,,,,,,,,,,,,,,,303.9874716230264,None,None,1,303.9874716230264,None,,,,,,,,,,,,,,,,,,,,,,,,,,,,,,,,,,,,,,,,,,,,,,FedeG,001,a,2019_Nov_01_1724,Experimento,3.2.3,60.01911907656978,
8,14,14,999,0.5,0:10,3,Cyan,None,0,0,1,28:50,./completed_changuitos/montage_oimtq_399.0_341.35.jpg,left,0,0,0,0,,,,,0,5,5,5,,,,,,,,,0,0,0,0,0,8,8,8,,,,,,,,,,,,,,,,,,,,,,,,,,,,,,,,,303.9874716230264,None,None,1,303.9874716230264,None,,,,,,,,,,,,,,,,,,,,,,,,,,,,,,,,,,,,,,,,,,,,,,FedeG,001,a,2019_Nov_01_1724,Experimento,3.2.3,60.01911907656978,
8,14,14,999,0.5,0:10,3,Yellow,['space'],0,0,1,28:50,./completed_changuitos/montage_oimtq_399.0_341.35.jpg,left,0,0,0,0,,,,,0,5,5,5,,,,,,,,,0,0,0,0,0,9,9,9,,,,,,,,,,,,,,,,,,,,,,,,,,,,,,,,,304.00413125297996,None,None,0,304.00413125297996,None,,,,,,,,,,,,,,,,,,,,,,,,,,,,,,,,,,,,,,,,,,,,,,FedeG,001,a,2019_Nov_01_1724,Experimento,3.2.3,60.01911907656978,
8,14,14,999,0.5,0:10,3,Magenta,None,0,0,1,28:50,./completed_changuitos/montage_oimtq_399.0_341.35.jpg,left,0,0,0,0,,,,,0,5,5,5,,,,,,,,,0,0,0,0,0,10,10,10,,,,,,,,,,,,,,,,,,,,,,,,,,,,,,,,,304.00413125297996,None,None,1,304.00413125297996,None,,,,,,,,,,,,,,,,,,,,,,,,,,,,,,,,,,,,,,,,,,,,,,FedeG,001,a,2019_Nov_01_1724,Experimento,3.2.3,60.01911907656978,
8,14,14,999,0.5,0:10,3,Red,None,0,0,1,28:50,./completed_changuitos/montage_oimtq_399.0_341.35.jpg,left,0,0,0,0,,,,,0,5,5,5,,,,,,,,,0,0,0,0,0,11,11,11,,,,,,,,,,,,,,,,,,,,,,,,,,,,,,,,,304.00413125297996,None,None,1,304.00413125297996,None,,,,,,,,,,,,,,,,,,,,,,,,,,,,,,,,,,,,,,,,,,,,,,FedeG,001,a,2019_Nov_01_1724,Experimento,3.2.3,60.01911907656978,
8,14,14,999,0.5,0:10,3,Magenta,['space'],0,0,1,28:50,./completed_changuitos/montage_oimtq_399.0_341.35.jpg,left,0,0,0,0,,,,,0,5,5,5,,,,,,,,,0,0,0,0,0,12,12,12,,,,,,,,,,,,,,,,,,,,,,,,,,,,,,,,,304.00413125297996,None,None,0,304.00413125297996,None,,,,,,,,,,,,,,,,,,,,,,,,,,,,,,,,,,,,,,,,,,,,,,FedeG,001,a,2019_Nov_01_1724,Experimento,3.2.3,60.01911907656978,
8,14,14,999,0.5,0:10,3,Red,['space'],0,0,1,28:50,./completed_changuitos/montage_oimtq_399.0_341.35.jpg,left,0,0,0,0,,,,,0,5,5,5,,,,,,,,,0,0,0,0,0,13,13,13,,,,,,,,,,,,,,,,,,,,,,,,,,,,,,,,,304.02079088293357,None,None,0,304.02079088293357,None,,,,,,,,,,,,,,,,,,,,,,,,,,,,,,,,,,,,,,,,,,,,,,FedeG,001,a,2019_Nov_01_1724,Experimento,3.2.3,60.01911907656978,
8,14,14,999,0.5,0:10,3,Yellow,None,0,0,1,28:50,./completed_changuitos/montage_oimtq_399.0_341.35.jpg,left,0,0,0,0,,,,,0,5,5,5,,,,,,,,,0,0,0,0,0,14,14,14,,,,,,,,,,,,,,,,,,,,,,,,,,,,,,,,,304.02079088293357,None,None,1,304.02079088293357,None,,,,,,,,,,,,,,,,,,,,,,,,,,,,,,,,,,,,,,,,,,,,,,FedeG,001,a,2019_Nov_01_1724,Experimento,3.2.3,60.01911907656978,
8,14,14,999,0.5,0:10,3,Cyan,None,0,0,1,28:50,./completed_changuitos/montage_oimtq_399.0_341.35.jpg,left,0,0,0,0,,,,,0,5,5,5,,,,,,,,,0,0,0,0,0,15,15,15,,,,,,,,,,,,,,,,,,,,,,,,,,,,,,,,,304.02079088293357,None,None,1,304.02079088293357,None,,,,,,,,,,,,,,,,,,,,,,,,,,,,,,,,,,,,,,,,,,,,,,FedeG,001,a,2019_Nov_01_1724,Experimento,3.2.3,60.01911907656978,
8,14,14,999,0.5,0:10,3,Green,None,0,0,1,28:50,./completed_changuitos/montage_oimtq_399.0_341.35.jpg,left,0,0,0,0,,,,,0,5,5,5,,,,,,,,,0,0,0,0,0,16,16,16,,,,,,,,,,,,,,,,,,,,,,,,,,,,,,,,,304.02079088293357,None,None,1,304.02079088293357,None,,,,,,,,,,,,,,,,,,,,,,,,,,,,,,,,,,,,,,,,,,,,,,FedeG,001,a,2019_Nov_01_1724,Experimento,3.2.3,60.01911907656978,
8,14,14,999,0.5,0:10,3,White,None,0,0,1,28:50,./completed_changuitos/montage_oimtq_399.0_341.35.jpg,left,0,0,0,0,,,,,0,5,5,5,,,,,,,,,0,0,0,0,0,17,17,17,,,,,,,,,,,,,,,,,,,,,,,,,,,,,,,,,304.0374505128871,None,None,1,304.0374505128871,None,,,,,,,,,,,,,,,,,,,,,,,,,,,,,,,,,,,,,,,,,,,,,,FedeG,001,a,2019_Nov_01_1724,Experimento,3.2.3,60.01911907656978,
8,14,14,999,0.5,0:10,3,Green,['space'],0,0,1,28:50,./completed_changuitos/montage_oimtq_399.0_341.35.jpg,left,0,0,0,0,,,,,0,5,5,5,,,,,,,,,0,0,0,0,0,18,18,18,,,,,,,,,,,,,,,,,,,,,,,,,,,,,,,,,304.0374505128871,None,None,0,304.0374505128871,None,,,,,,,,,,,,,,,,,,,,,,,,,,,,,,,,,,,,,,,,,,,,,,FedeG,001,a,2019_Nov_01_1724,Experimento,3.2.3,60.01911907656978,
8,14,14,999,0.5,0:10,3,Red,None,0,0,1,28:50,./completed_changuitos/montage_oimtq_399.0_341.35.jpg,left,0,0,0,0,,,,,0,5,5,5,,,,,,,,,0,0,0,0,0,19,19,19,,,,,,,,,,,,,,,,,,,,,,,,,,,,,,,,,304.0374505128871,None,None,1,304.0374505128871,None,,,,,,,,,,,,,,,,,,,,,,,,,,,,,,,,,,,,,,,,,,,,,,FedeG,001,a,2019_Nov_01_1724,Experimento,3.2.3,60.01911907656978,
8,14,14,999,0.5,0:10,3,Blue,None,0,0,1,28:50,./completed_changuitos/montage_oimtq_399.0_341.35.jpg,left,0,0,0,0,,,,,0,5,5,5,,,,,,,,,0,0,0,0,0,20,20,20,,,,,,,,,,,,,,,,,,,,,,,,,,,,,,,,,304.0374505128871,None,None,1,304.0374505128871,None,,,,,,,,,,,,,,,,,,,,,,,,,,,,,,,,,,,,,,,,,,,,,,FedeG,001,a,2019_Nov_01_1724,Experimento,3.2.3,60.01911907656978,
8,14,14,999,0.5,0:10,3,Green,None,0,0,1,28:50,./completed_changuitos/montage_oimtq_399.0_341.35.jpg,left,0,0,0,0,,,,,0,5,5,5,,,,,,,,,0,0,0,0,0,21,21,21,,,,,,,,,,,,,,,,,,,,,,,,,,,,,,,,,304.0374505128871,None,None,1,304.0374505128871,None,,,,,,,,,,,,,,,,,,,,,,,,,,,,,,,,,,,,,,,,,,,,,,FedeG,001,a,2019_Nov_01_1724,Experimento,3.2.3,60.01911907656978,
8,14,14,999,0.5,0:10,3,,,0,0,1,28:50,./completed_changuitos/montage_oimtq_399.0_341.35.jpg,left,0,0,0,0,,,,,0,5,5,5,,,,,,,,,0,0,0,0,,,,,,,,,,,,,,,,,,,,,,,,,,,,,,,,,,,,,,,,,,,,304.12054373856154,None,left,1,3.6593195179921167,304.12054373856154,None,304.12054373856154,307.11961531122506,,,,,,,,,,,,,,,,,,,,,,,,,,,,,,,,,,,,FedeG,001,a,2019_Nov_01_1724,Experimento,3.2.3,60.01911907656978,
8,14,14,999,0.5,0:10,3,,,0,0,1,28:50,,,0,0,0,0,,,,,0,5,5,5,,,,,,,,,,,,,,,,,,,,,,,,,,,,,,,,,,,,,,,,,,,,,,,,,,,,,,,,,,,,,,,,,,,,,,,,,,,,,,,,,,,,,,,,,,,,,,,,,,,,FedeG,001,a,2019_Nov_01_1724,Experimento,3.2.3,60.01911907656978,
8,14,14,999,0.5,0:10,3,,,0,1,0,10:50,./completed_changuitos/montage_dzomj_112.25_131.6.jpg,right,0,0,0,0,,,,,0,6,6,6,,,,,0,0,0,0,,,,,,,,,,,,,,,,,,,,,,308.039101789087,310.36841315880156,310.36841315880156,318.3822236135711,318.3822236135711,332.39378170937925,left,0,2.2393580947100418,332.39378170937925,None,332.39378170937925,None,332.39378170937925,None,,,,,,,,,,,,,,,,,,,,,,,,,,,,,,,,,,,,,,,,,,,,,,,,,,,,,,,,FedeG,001,a,2019_Nov_01_1724,Experimento,3.2.3,60.01911907656978,
8,14,14,999,0.5,0:10,3,,,0,1,0,10:50,,,0,0,0,0,,,,,0,6,6,6,,,,,,,,,,,,,,,,,,,,,,,,,,,,,,,,,,,,,,,,,,,,,,,,,,,,,,,,,,,,,,,,,,,,,,,,,,,,,,,,,,,,,,,,,,,,,,,,,,,,FedeG,001,a,2019_Nov_01_1724,Experimento,3.2.3,60.01911907656978,
8,14,14,999,0.5,0:10,3,Yellow,None,0,0,1,15:50,./completed_changuitos/montage_iwvjp_246.09_283.55.jpg,right,0,0,0,0,,,,,0,7,7,7,,,,,,,,,0,0,0,0,0,0,0,0,,,,,,,,,,,,,,,,,,,,,,,,,,,,,334.82604250454096,337.4254037297833,337.4254037297833,None,345.4723472878395,345.9719877741809,None,1,345.4723472878395,None,,,,,,,,,,,,,,,,,,,,,,,,,,,,,,,,,,,,,,,,,,,,,,FedeG,001,a,2019_Nov_01_1724,Experimento,3.2.3,60.01911907656978,
8,14,14,999,0.5,0:10,3,White,['space'],0,0,1,15:50,./completed_changuitos/montage_iwvjp_246.09_283.55.jpg,right,0,0,0,0,,,,,0,7,7,7,,,,,,,,,0,0,0,0,0,1,1,1,,,,,,,,,,,,,,,,,,,,,,,,,,,,,,,,,347.4717583502861,347.9715595511407,None,0,347.4717583502861,347.4717583502861,,,,,,,,,,,,,,,,,,,,,,,,,,,,,,,,,,,,,,,,,,,,,,FedeG,001,a,2019_Nov_01_1724,Experimento,3.2.3,60.01911907656978,
8,14,14,999,0.5,0:10,3,Magenta,None,0,0,1,15:50,./completed_changuitos/montage_iwvjp_246.09_283.55.jpg,right,0,0,0,0,,,,,0,7,7,7,,,,,,,,,0,0,0,0,0,2,2,2,,,,,,,,,,,,,,,,,,,,,,,,,,,,,,,,,349.4710228327167,349.97077246881963,None,1,349.4710228327167,349.4710228327167,,,,,,,,,,,,,,,,,,,,,,,,,,,,,,,,,,,,,,,,,,,,,,FedeG,001,a,2019_Nov_01_1724,Experimento,3.2.3,60.01911907656978,
8,14,14,999,0.5,0:10,3,Cyan,None,0,0,1,15:50,./completed_changuitos/montage_iwvjp_246.09_283.55.jpg,right,0,0,0,0,,,,,0,7,7,7,,,,,,,,,0,0,0,0,0,3,3,3,,,,,,,,,,,,,,,,,,,,,,,,,,,,,,,,,351.47034411490677,351.9700976772583,None,1,351.47034411490677,351.47034411490677,,,,,,,,,,,,,,,,,,,,,,,,,,,,,,,,,,,,,,,,,,,,,,FedeG,001,a,2019_Nov_01_1724,Experimento,3.2.3,60.01911907656978,
8,14,14,999,0.5,0:10,3,Blue,None,0,0,1,15:50,./completed_changuitos/montage_iwvjp_246.09_283.55.jpg,right,0,0,0,0,,,,,0,7,7,7,,,,,,,,,0,0,0,0,0,4,4,4,,,,,,,,,,,,,,,,,,,,,,,,,,,,,,,,,353.4694342718212,353.9693087626838,None,1,353.4694342718212,353.4694342718212,,,,,,,,,,,,,,,,,,,,,,,,,,,,,,,,,,,,,,,,,,,,,,FedeG,001,a,2019_Nov_01_1724,Experimento,3.2.3,60.01911907656978,
8,14,14,999,0.5,0:10,3,Magenta,None,0,0,1,15:50,./completed_changuitos/montage_iwvjp_246.09_283.55.jpg,right,0,0,0,0,,,,,0,7,7,7,,,,,,,,,0,0,0,0,0,5,5,5,,,,,,,,,,,,,,,,,,,,,,,,,,,,,,,,,355.46891548327403,355.96863266237415,None,1,355.46891548327403,355.46891548327403,,,,,,,,,,,,,,,,,,,,,,,,,,,,,,,,,,,,,,,,,,,,,,FedeG,001,a,2019_Nov_01_1724,Experimento,3.2.3,60.01911907656978,
8,14,14,999,0.5,0:10,3,Blue,['space'],0,0,1,15:50,./completed_changuitos/montage_iwvjp_246.09_283.55.jpg,right,0,0,0,0,,,,,0,7,7,7,,,,,,,,,0,0,0,0,0,6,6,6,,,,,,,,,,,,,,,,,,,,,,,,,,,,,,,,,357.4681111254504,357.9679966098156,['return'],0,357.4681111254504,357.4681111254504,[0.4122510528250132],,,,,,,,,,,,,,,,,,,,,,,,,,,,,,,,,,,,,,,,,,,,,FedeG,001,a,2019_Nov_01_1724,Experimento,3.2.3,60.01911907656978,
8,14,14,999,0.5,0:10,3,Cyan,None,0,0,1,15:50,./completed_changuitos/montage_iwvjp_246.09_283.55.jpg,right,0,0,0,0,,,,,0,7,7,7,,,,,,,,,0,0,0,0,0,7,7,7,,,,,,,,,,,,,,,,,,,,,,,,,,,,,,,,,359.450632793771,None,None,1,359.450632793771,None,,,,,,,,,,,,,,,,,,,,,,,,,,,,,,,,,,,,,,,,,,,,,,FedeG,001,a,2019_Nov_01_1724,Experimento,3.2.3,60.01911907656978,
8,14,14,999,0.5,0:10,3,Yellow,None,0,0,1,15:50,./completed_changuitos/montage_iwvjp_246.09_283.55.jpg,right,0,0,0,0,,,,,0,7,7,7,,,,,,,,,0,0,0,0,0,8,8,8,,,,,,,,,,,,,,,,,,,,,,,,,,,,,,,,,359.450632793771,None,None,1,359.450632793771,None,,,,,,,,,,,,,,,,,,,,,,,,,,,,,,,,,,,,,,,,,,,,,,FedeG,001,a,2019_Nov_01_1724,Experimento,3.2.3,60.01911907656978,
8,14,14,999,0.5,0:10,3,Cyan,None,0,0,1,15:50,./completed_changuitos/montage_iwvjp_246.09_283.55.jpg,right,0,0,0,0,,,,,0,7,7,7,,,,,,,,,0,0,0,0,0,9,9,9,,,,,,,,,,,,,,,,,,,,,,,,,,,,,,,,,359.46729242372453,None,None,1,359.46729242372453,None,,,,,,,,,,,,,,,,,,,,,,,,,,,,,,,,,,,,,,,,,,,,,,FedeG,001,a,2019_Nov_01_1724,Experimento,3.2.3,60.01911907656978,
8,14,14,999,0.5,0:10,3,Blue,None,0,0,1,15:50,./completed_changuitos/montage_iwvjp_246.09_283.55.jpg,right,0,0,0,0,,,,,0,7,7,7,,,,,,,,,0,0,0,0,0,10,10,10,,,,,,,,,,,,,,,,,,,,,,,,,,,,,,,,,359.46729242372453,None,None,1,359.46729242372453,None,,,,,,,,,,,,,,,,,,,,,,,,,,,,,,,,,,,,,,,,,,,,,,FedeG,001,a,2019_Nov_01_1724,Experimento,3.2.3,60.01911907656978,
8,14,14,999,0.5,0:10,3,Cyan,['space'],0,0,1,15:50,./completed_changuitos/montage_iwvjp_246.09_283.55.jpg,right,0,0,0,0,,,,,0,7,7,7,,,,,,,,,0,0,0,0,0,11,11,11,,,,,,,,,,,,,,,,,,,,,,,,,,,,,,,,,359.46729242372453,None,None,0,359.46729242372453,None,,,,,,,,,,,,,,,,,,,,,,,,,,,,,,,,,,,,,,,,,,,,,,FedeG,001,a,2019_Nov_01_1724,Experimento,3.2.3,60.01911907656978,
8,14,14,999,0.5,0:10,3,Magenta,None,0,0,1,15:50,./completed_changuitos/montage_iwvjp_246.09_283.55.jpg,right,0,0,0,0,,,,,0,7,7,7,,,,,,,,,0,0,0,0,0,12,12,12,,,,,,,,,,,,,,,,,,,,,,,,,,,,,,,,,359.46729242372453,None,None,1,359.46729242372453,None,,,,,,,,,,,,,,,,,,,,,,,,,,,,,,,,,,,,,,,,,,,,,,FedeG,001,a,2019_Nov_01_1724,Experimento,3.2.3,60.01911907656978,
8,14,14,999,0.5,0:10,3,Red,None,0,0,1,15:50,./completed_changuitos/montage_iwvjp_246.09_283.55.jpg,right,0,0,0,0,,,,,0,7,7,7,,,,,,,,,0,0,0,0,0,13,13,13,,,,,,,,,,,,,,,,,,,,,,,,,,,,,,,,,359.48395205367814,None,None,1,359.48395205367814,None,,,,,,,,,,,,,,,,,,,,,,,,,,,,,,,,,,,,,,,,,,,,,,FedeG,001,a,2019_Nov_01_1724,Experimento,3.2.3,60.01911907656978,
8,14,14,999,0.5,0:10,3,Magenta,['space'],0,0,1,15:50,./completed_changuitos/montage_iwvjp_246.09_283.55.jpg,right,0,0,0,0,,,,,0,7,7,7,,,,,,,,,0,0,0,0,0,14,14,14,,,,,,,,,,,,,,,,,,,,,,,,,,,,,,,,,359.48395205367814,None,None,0,359.48395205367814,None,,,,,,,,,,,,,,,,,,,,,,,,,,,,,,,,,,,,,,,,,,,,,,FedeG,001,a,2019_Nov_01_1724,Experimento,3.2.3,60.01911907656978,
8,14,14,999,0.5,0:10,3,Green,None,0,0,1,15:50,./completed_changuitos/montage_iwvjp_246.09_283.55.jpg,right,0,0,0,0,,,,,0,7,7,7,,,,,,,,,0,0,0,0,0,15,15,15,,,,,,,,,,,,,,,,,,,,,,,,,,,,,,,,,359.48395205367814,None,None,1,359.48395205367814,None,,,,,,,,,,,,,,,,,,,,,,,,,,,,,,,,,,,,,,,,,,,,,,FedeG,001,a,2019_Nov_01_1724,Experimento,3.2.3,60.01911907656978,
8,14,14,999,0.5,0:10,3,Yellow,['space'],0,0,1,15:50,./completed_changuitos/montage_iwvjp_246.09_283.55.jpg,right,0,0,0,0,,,,,0,7,7,7,,,,,,,,,0,0,0,0,0,16,16,16,,,,,,,,,,,,,,,,,,,,,,,,,,,,,,,,,359.5006116836317,None,None,0,359.5006116836317,None,,,,,,,,,,,,,,,,,,,,,,,,,,,,,,,,,,,,,,,,,,,,,,FedeG,001,a,2019_Nov_01_1724,Experimento,3.2.3,60.01911907656978,
8,14,14,999,0.5,0:10,3,Blue,None,0,0,1,15:50,./completed_changuitos/montage_iwvjp_246.09_283.55.jpg,right,0,0,0,0,,,,,0,7,7,7,,,,,,,,,0,0,0,0,0,17,17,17,,,,,,,,,,,,,,,,,,,,,,,,,,,,,,,,,359.5006116836317,None,None,1,359.5006116836317,None,,,,,,,,,,,,,,,,,,,,,,,,,,,,,,,,,,,,,,,,,,,,,,FedeG,001,a,2019_Nov_01_1724,Experimento,3.2.3,60.01911907656978,
8,14,14,999,0.5,0:10,3,Cyan,None,0,0,1,15:50,./completed_changuitos/montage_iwvjp_246.09_283.55.jpg,right,0,0,0,0,,,,,0,7,7,7,,,,,,,,,0,0,0,0,0,18,18,18,,,,,,,,,,,,,,,,,,,,,,,,,,,,,,,,,359.5006116836317,None,None,1,359.5006116836317,None,,,,,,,,,,,,,,,,,,,,,,,,,,,,,,,,,,,,,,,,,,,,,,FedeG,001,a,2019_Nov_01_1724,Experimento,3.2.3,60.01911907656978,
8,14,14,999,0.5,0:10,3,Blue,['space'],0,0,1,15:50,./completed_changuitos/montage_iwvjp_246.09_283.55.jpg,right,0,0,0,0,,,,,0,7,7,7,,,,,,,,,0,0,0,0,0,19,19,19,,,,,,,,,,,,,,,,,,,,,,,,,,,,,,,,,359.5172713135853,None,None,0,359.5172713135853,None,,,,,,,,,,,,,,,,,,,,,,,,,,,,,,,,,,,,,,,,,,,,,,FedeG,001,a,2019_Nov_01_1724,Experimento,3.2.3,60.01911907656978,
8,14,14,999,0.5,0:10,3,Yellow,None,0,0,1,15:50,./completed_changuitos/montage_iwvjp_246.09_283.55.jpg,right,0,0,0,0,,,,,0,7,7,7,,,,,,,,,0,0,0,0,0,20,20,20,,,,,,,,,,,,,,,,,,,,,,,,,,,,,,,,,359.5172713135853,None,None,1,359.5172713135853,None,,,,,,,,,,,,,,,,,,,,,,,,,,,,,,,,,,,,,,,,,,,,,,FedeG,001,a,2019_Nov_01_1724,Experimento,3.2.3,60.01911907656978,
8,14,14,999,0.5,0:10,3,Cyan,None,0,0,1,15:50,./completed_changuitos/montage_iwvjp_246.09_283.55.jpg,right,0,0,0,0,,,,,0,7,7,7,,,,,,,,,0,0,0,0,0,21,21,21,,,,,,,,,,,,,,,,,,,,,,,,,,,,,,,,,359.5172713135853,None,None,1,359.5172713135853,None,,,,,,,,,,,,,,,,,,,,,,,,,,,,,,,,,,,,,,,,,,,,,,FedeG,001,a,2019_Nov_01_1724,Experimento,3.2.3,60.01911907656978,
8,14,14,999,0.5,0:10,3,Yellow,['space'],0,0,1,15:50,./completed_changuitos/montage_iwvjp_246.09_283.55.jpg,right,0,0,0,0,,,,,0,7,7,7,,,,,,,,,0,0,0,0,0,22,22,22,,,,,,,,,,,,,,,,,,,,,,,,,,,,,,,,,359.5172713135853,None,None,0,359.5172713135853,None,,,,,,,,,,,,,,,,,,,,,,,,,,,,,,,,,,,,,,,,,,,,,,FedeG,001,a,2019_Nov_01_1724,Experimento,3.2.3,60.01911907656978,
8,14,14,999,0.5,0:10,3,Magenta,None,0,0,1,15:50,./completed_changuitos/montage_iwvjp_246.09_283.55.jpg,right,0,0,0,0,,,,,0,7,7,7,,,,,,,,,0,0,0,0,0,23,23,23,,,,,,,,,,,,,,,,,,,,,,,,,,,,,,,,,359.53393094353885,None,None,1,359.53393094353885,None,,,,,,,,,,,,,,,,,,,,,,,,,,,,,,,,,,,,,,,,,,,,,,FedeG,001,a,2019_Nov_01_1724,Experimento,3.2.3,60.01911907656978,
8,14,14,999,0.5,0:10,3,Red,None,0,0,1,15:50,./completed_changuitos/montage_iwvjp_246.09_283.55.jpg,right,0,0,0,0,,,,,0,7,7,7,,,,,,,,,0,0,0,0,0,24,24,24,,,,,,,,,,,,,,,,,,,,,,,,,,,,,,,,,359.53393094353885,None,None,1,359.53393094353885,None,,,,,,,,,,,,,,,,,,,,,,,,,,,,,,,,,,,,,,,,,,,,,,FedeG,001,a,2019_Nov_01_1724,Experimento,3.2.3,60.01911907656978,
8,14,14,999,0.5,0:10,3,Magenta,['space'],0,0,1,15:50,./completed_changuitos/montage_iwvjp_246.09_283.55.jpg,right,0,0,0,0,,,,,0,7,7,7,,,,,,,,,0,0,0,0,0,25,25,25,,,,,,,,,,,,,,,,,,,,,,,,,,,,,,,,,359.53393094353885,None,None,0,359.53393094353885,None,,,,,,,,,,,,,,,,,,,,,,,,,,,,,,,,,,,,,,,,,,,,,,FedeG,001,a,2019_Nov_01_1724,Experimento,3.2.3,60.01911907656978,
8,14,14,999,0.5,0:10,3,Red,['space'],0,0,1,15:50,./completed_changuitos/montage_iwvjp_246.09_283.55.jpg,right,0,0,0,0,,,,,0,7,7,7,,,,,,,,,0,0,0,0,0,26,26,26,,,,,,,,,,,,,,,,,,,,,,,,,,,,,,,,,359.53393094353885,None,None,0,359.53393094353885,None,,,,,,,,,,,,,,,,,,,,,,,,,,,,,,,,,,,,,,,,,,,,,,FedeG,001,a,2019_Nov_01_1724,Experimento,3.2.3,60.01911907656978,
8,14,14,999,0.5,0:10,3,Yellow,None,0,0,1,15:50,./completed_changuitos/montage_iwvjp_246.09_283.55.jpg,right,0,0,0,0,,,,,0,7,7,7,,,,,,,,,0,0,0,0,0,27,27,27,,,,,,,,,,,,,,,,,,,,,,,,,,,,,,,,,359.53393094353885,None,None,1,359.53393094353885,None,,,,,,,,,,,,,,,,,,,,,,,,,,,,,,,,,,,,,,,,,,,,,,FedeG,001,a,2019_Nov_01_1724,Experimento,3.2.3,60.01911907656978,
8,14,14,999,0.5,0:10,3,Cyan,None,0,0,1,15:50,./completed_changuitos/montage_iwvjp_246.09_283.55.jpg,right,0,0,0,0,,,,,0,7,7,7,,,,,,,,,0,0,0,0,0,28,28,28,,,,,,,,,,,,,,,,,,,,,,,,,,,,,,,,,359.53393094353885,None,None,1,359.53393094353885,None,,,,,,,,,,,,,,,,,,,,,,,,,,,,,,,,,,,,,,,,,,,,,,FedeG,001,a,2019_Nov_01_1724,Experimento,3.2.3,60.01911907656978,
8,14,14,999,0.5,0:10,3,Green,None,0,0,1,15:50,./completed_changuitos/montage_iwvjp_246.09_283.55.jpg,right,0,0,0,0,,,,,0,7,7,7,,,,,,,,,0,0,0,0,0,29,29,29,,,,,,,,,,,,,,,,,,,,,,,,,,,,,,,,,359.5505905734924,None,None,1,359.5505905734924,None,,,,,,,,,,,,,,,,,,,,,,,,,,,,,,,,,,,,,,,,,,,,,,FedeG,001,a,2019_Nov_01_1724,Experimento,3.2.3,60.01911907656978,
8,14,14,999,0.5,0:10,3,White,None,0,0,1,15:50,./completed_changuitos/montage_iwvjp_246.09_283.55.jpg,right,0,0,0,0,,,,,0,7,7,7,,,,,,,,,0,0,0,0,0,30,30,30,,,,,,,,,,,,,,,,,,,,,,,,,,,,,,,,,359.5505905734924,None,None,1,359.5505905734924,None,,,,,,,,,,,,,,,,,,,,,,,,,,,,,,,,,,,,,,,,,,,,,,FedeG,001,a,2019_Nov_01_1724,Experimento,3.2.3,60.01911907656978,
8,14,14,999,0.5,0:10,3,Green,['space'],0,0,1,15:50,./completed_changuitos/montage_iwvjp_246.09_283.55.jpg,right,0,0,0,0,,,,,0,7,7,7,,,,,,,,,0,0,0,0,0,31,31,31,,,,,,,,,,,,,,,,,,,,,,,,,,,,,,,,,359.5505905734924,None,None,0,359.5505905734924,None,,,,,,,,,,,,,,,,,,,,,,,,,,,,,,,,,,,,,,,,,,,,,,FedeG,001,a,2019_Nov_01_1724,Experimento,3.2.3,60.01911907656978,
8,14,14,999,0.5,0:10,3,Red,None,0,0,1,15:50,./completed_changuitos/montage_iwvjp_246.09_283.55.jpg,right,0,0,0,0,,,,,0,7,7,7,,,,,,,,,0,0,0,0,0,32,32,32,,,,,,,,,,,,,,,,,,,,,,,,,,,,,,,,,359.5505905734924,None,None,1,359.5505905734924,None,,,,,,,,,,,,,,,,,,,,,,,,,,,,,,,,,,,,,,,,,,,,,,FedeG,001,a,2019_Nov_01_1724,Experimento,3.2.3,60.01911907656978,
8,14,14,999,0.5,0:10,3,Blue,None,0,0,1,15:50,./completed_changuitos/montage_iwvjp_246.09_283.55.jpg,right,0,0,0,0,,,,,0,7,7,7,,,,,,,,,0,0,0,0,0,33,33,33,,,,,,,,,,,,,,,,,,,,,,,,,,,,,,,,,359.5505905734924,None,None,1,359.5505905734924,None,,,,,,,,,,,,,,,,,,,,,,,,,,,,,,,,,,,,,,,,,,,,,,FedeG,001,a,2019_Nov_01_1724,Experimento,3.2.3,60.01911907656978,
8,14,14,999,0.5,0:10,3,Green,None,0,0,1,15:50,./completed_changuitos/montage_iwvjp_246.09_283.55.jpg,right,0,0,0,0,,,,,0,7,7,7,,,,,,,,,0,0,0,0,0,34,34,34,,,,,,,,,,,,,,,,,,,,,,,,,,,,,,,,,359.5505905734924,None,None,1,359.5505905734924,None,,,,,,,,,,,,,,,,,,,,,,,,,,,,,,,,,,,,,,,,,,,,,,FedeG,001,a,2019_Nov_01_1724,Experimento,3.2.3,60.01911907656978,
8,14,14,999,0.5,0:10,3,,,0,0,1,15:50,./completed_changuitos/montage_iwvjp_246.09_283.55.jpg,right,0,0,0,0,,,,,0,7,7,7,,,,,,,,,0,0,0,0,,,,,,,,,,,,,,,,,,,,,,,,,,,,,,,,,,,,,,,,,,,,359.62116971374417,None,left,0,2.223426941251091,359.62116971374417,None,359.62116971374417,None,,,,,,,,,,,,,,,,,,,,,,,,,,,,,,,,,,,,FedeG,001,a,2019_Nov_01_1724,Experimento,3.2.3,60.01911907656978,
8,14,14,999,0.5,0:10,3,,,0,0,1,15:50,,,0,0,0,0,,,,,0,7,7,7,,,,,,,,,,,,,,,,,,,,,,,,,,,,,,,,,,,,,,,,,,,,,,,,,,,,,,,,,,,,,,,,,,,,,,,,,,,,,,,,,,,,,,,,,,,,,,,,,,,,FedeG,001,a,2019_Nov_01_1724,Experimento,3.2.3,60.01911907656978,
8,14,14,999,0.5,0:10,3,,,0,1,0,19:50,./completed_changuitos/montage_wwvee_284.65_249.3.jpg,left,0,0,0,0,,,,,0,8,8,8,,,,,0,0,0,0,,,,,,,,,,,,,,,,,,,,,,362.08290879660854,363.4659111164983,363.4659111164983,371.47982286852493,371.47982286852493,385.49127181457516,left,1,1.188501635544526,385.49127181457516,None,385.49127181457516,None,385.49127181457516,None,,,,,,,,,,,,,,,,,,,,,,,,,,,,,,,,,,,,,,,,,,,,,,,,,,,,,,,,FedeG,001,a,2019_Nov_01_1724,Experimento,3.2.3,60.01911907656978,
8,14,14,999,0.5,0:10,3,,,0,1,0,19:50,,,0,0,0,0,,,,,0,8,8,8,,,,,,,,,,,,,,,,,,,,,,,,,,,,,,,,,,,,,,,,,,,,,,,,,,,,,,,,,,,,,,,,,,,,,,,,,,,,,,,,,,,,,,,,,,,,,,,,,,,,FedeG,001,a,2019_Nov_01_1724,Experimento,3.2.3,60.01911907656978,
8,14,14,999,0.5,0:10,3,Magenta,None,0,0,1,20:50,./completed_changuitos/montage_nynjt_31.67_35.95.jpg,right,0,0,0,0,,,,,0,9,9,9,,,,,,,,,0,0,0,0,0,0,0,0,,,,,,,,,,,,,,,,,,,,,,,,,,,,,386.8740173576916,389.0400207934217,389.0400207934217,None,397.08706460173926,397.58689380985015,None,1,397.08706460173926,None,,,,,,,,,,,,,,,,,,,,,,,,,,,,,,,,,,,,,,,,,,,,,,FedeG,001,a,2019_Nov_01_1724,Experimento,3.2.3,60.01911907656978,
8,14,14,999,0.5,0:10,3,Blue,['space'],0,0,1,20:50,./completed_changuitos/montage_nynjt_31.67_35.95.jpg,right,0,0,0,0,,,,,0,9,9,9,,,,,,,,,0,0,0,0,0,1,1,1,,,,,,,,,,,,,,,,,,,,,,,,,,,,,,,,,399.08637331992577,399.58616850053295,None,0,399.08637331992577,399.08637331992577,,,,,,,,,,,,,,,,,,,,,,,,,,,,,,,,,,,,,,,,,,,,,,FedeG,001,a,2019_Nov_01_1724,Experimento,3.2.3,60.01911907656978,
8,14,14,999,0.5,0:10,3,Cyan,None,0,0,1,20:50,./completed_changuitos/montage_nynjt_31.67_35.95.jpg,right,0,0,0,0,,,,,0,9,9,9,,,,,,,,,0,0,0,0,0,2,2,2,,,,,,,,,,,,,,,,,,,,,,,,,,,,,,,,,401.0857063808653,401.5854439764662,None,1,401.0857063808653,401.0857063808653,,,,,,,,,,,,,,,,,,,,,,,,,,,,,,,,,,,,,,,,,,,,,,FedeG,001,a,2019_Nov_01_1724,Experimento,3.2.3,60.01911907656978,
8,14,14,999,0.5,0:10,3,Yellow,None,0,0,1,20:50,./completed_changuitos/montage_nynjt_31.67_35.95.jpg,right,0,0,0,0,,,,,0,9,9,9,,,,,,,,,0,0,0,0,0,3,3,3,,,,,,,,,,,,,,,,,,,,,,,,,,,,,,,,,403.0849261040421,403.58476002365205,None,1,403.0849261040421,403.0849261040421,,,,,,,,,,,,,,,,,,,,,,,,,,,,,,,,,,,,,,,,,,,,,,FedeG,001,a,2019_Nov_01_1724,Experimento,3.2.3,60.01911907656978,
8,14,14,999,0.5,0:10,3,Cyan,None,0,0,1,20:50,./completed_changuitos/montage_nynjt_31.67_35.95.jpg,right,0,0,0,0,,,,,0,9,9,9,,,,,,,,,0,0,0,0,0,4,4,4,,,,,,,,,,,,,,,,,,,,,,,,,,,,,,,,,405.08419948597657,405.5840080158341,['return'],0,405.08419948597657,405.08419948597657,[0.7144493080486427],,,,,,,,,,,,,,,,,,,,,,,,,,,,,,,,,,,,,,,,,,,,,FedeG,001,a,2019_Nov_01_1724,Experimento,3.2.3,60.01911907656978,
8,14,14,999,0.5,0:10,3,Blue,None,0,0,1,20:50,./completed_changuitos/montage_nynjt_31.67_35.95.jpg,right,0,0,0,0,,,,,0,9,9,9,,,,,,,,,0,0,0,0,0,5,5,5,,,,,,,,,,,,,,,,,,,,,,,,,,,,,,,,,407.0834466929082,407.58327066601487,None,1,407.0834466929082,407.0834466929082,,,,,,,,,,,,,,,,,,,,,,,,,,,,,,,,,,,,,,,,,,,,,,FedeG,001,a,2019_Nov_01_1724,Experimento,3.2.3,60.01911907656978,
8,14,14,999,0.5,0:10,3,Cyan,['space'],0,0,1,20:50,./completed_changuitos/montage_nynjt_31.67_35.95.jpg,right,0,0,0,0,,,,,0,9,9,9,,,,,,,,,0,0,0,0,0,6,6,6,,,,,,,,,,,,,,,,,,,,,,,,,,,,,,,,,409.08283995635065,409.58267309071016,['return'],0,409.08283995635065,409.08283995635065,[0.6997007411955565],,,,,,,,,,,,,,,,,,,,,,,,,,,,,,,,,,,,,,,,,,,,,FedeG,001,a,2019_Nov_01_1724,Experimento,3.2.3,60.01911907656978,
8,14,14,999,0.5,0:10,3,Magenta,None,0,0,1,20:50,./completed_changuitos/montage_nynjt_31.67_35.95.jpg,right,0,0,0,0,,,,,0,9,9,9,,,,,,,,,0,0,0,0,0,7,7,7,,,,,,,,,,,,,,,,,,,,,,,,,,,,,,,,,411.0654948554369,None,None,1,411.0654948554369,None,,,,,,,,,,,,,,,,,,,,,,,,,,,,,,,,,,,,,,,,,,,,,,FedeG,001,a,2019_Nov_01_1724,Experimento,3.2.3,60.01911907656978,
8,14,14,999,0.5,0:10,3,Red,None,0,0,1,20:50,./completed_changuitos/montage_nynjt_31.67_35.95.jpg,right,0,0,0,0,,,,,0,9,9,9,,,,,,,,,0,0,0,0,0,8,8,8,,,,,,,,,,,,,,,,,,,,,,,,,,,,,,,,,411.0654948554369,None,None,1,411.0654948554369,None,,,,,,,,,,,,,,,,,,,,,,,,,,,,,,,,,,,,,,,,,,,,,,FedeG,001,a,2019_Nov_01_1724,Experimento,3.2.3,60.01911907656978,
8,14,14,999,0.5,0:10,3,Magenta,['space'],0,0,1,20:50,./completed_changuitos/montage_nynjt_31.67_35.95.jpg,right,0,0,0,0,,,,,0,9,9,9,,,,,,,,,0,0,0,0,0,9,9,9,,,,,,,,,,,,,,,,,,,,,,,,,,,,,,,,,411.0654948554369,None,None,0,411.0654948554369,None,,,,,,,,,,,,,,,,,,,,,,,,,,,,,,,,,,,,,,,,,,,,,,FedeG,001,a,2019_Nov_01_1724,Experimento,3.2.3,60.01911907656978,
8,14,14,999,0.5,0:10,3,Green,None,0,0,1,20:50,./completed_changuitos/montage_nynjt_31.67_35.95.jpg,right,0,0,0,0,,,,,0,9,9,9,,,,,,,,,0,0,0,0,0,10,10,10,,,,,,,,,,,,,,,,,,,,,,,,,,,,,,,,,411.08215448539045,None,None,1,411.08215448539045,None,,,,,,,,,,,,,,,,,,,,,,,,,,,,,,,,,,,,,,,,,,,,,,FedeG,001,a,2019_Nov_01_1724,Experimento,3.2.3,60.01911907656978,
8,14,14,999,0.5,0:10,3,Yellow,['space'],0,0,1,20:50,./completed_changuitos/montage_nynjt_31.67_35.95.jpg,right,0,0,0,0,,,,,0,9,9,9,,,,,,,,,0,0,0,0,0,11,11,11,,,,,,,,,,,,,,,,,,,,,,,,,,,,,,,,,411.08215448539045,None,None,0,411.08215448539045,None,,,,,,,,,,,,,,,,,,,,,,,,,,,,,,,,,,,,,,,,,,,,,,FedeG,001,a,2019_Nov_01_1724,Experimento,3.2.3,60.01911907656978,
8,14,14,999,0.5,0:10,3,Blue,None,0,0,1,20:50,./completed_changuitos/montage_nynjt_31.67_35.95.jpg,right,0,0,0,0,,,,,0,9,9,9,,,,,,,,,0,0,0,0,0,12,12,12,,,,,,,,,,,,,,,,,,,,,,,,,,,,,,,,,411.08215448539045,None,None,1,411.08215448539045,None,,,,,,,,,,,,,,,,,,,,,,,,,,,,,,,,,,,,,,,,,,,,,,FedeG,001,a,2019_Nov_01_1724,Experimento,3.2.3,60.01911907656978,
8,14,14,999,0.5,0:10,3,Cyan,None,0,0,1,20:50,./completed_changuitos/montage_nynjt_31.67_35.95.jpg,right,0,0,0,0,,,,,0,9,9,9,,,,,,,,,0,0,0,0,0,13,13,13,,,,,,,,,,,,,,,,,,,,,,,,,,,,,,,,,411.09881411534406,None,None,1,411.09881411534406,None,,,,,,,,,,,,,,,,,,,,,,,,,,,,,,,,,,,,,,,,,,,,,,FedeG,001,a,2019_Nov_01_1724,Experimento,3.2.3,60.01911907656978,
8,14,14,999,0.5,0:10,3,Blue,['space'],0,0,1,20:50,./completed_changuitos/montage_nynjt_31.67_35.95.jpg,right,0,0,0,0,,,,,0,9,9,9,,,,,,,,,0,0,0,0,0,14,14,14,,,,,,,,,,,,,,,,,,,,,,,,,,,,,,,,,411.09881411534406,None,None,0,411.09881411534406,None,,,,,,,,,,,,,,,,,,,,,,,,,,,,,,,,,,,,,,,,,,,,,,FedeG,001,a,2019_Nov_01_1724,Experimento,3.2.3,60.01911907656978,
8,14,14,999,0.5,0:10,3,Yellow,None,0,0,1,20:50,./completed_changuitos/montage_nynjt_31.67_35.95.jpg,right,0,0,0,0,,,,,0,9,9,9,,,,,,,,,0,0,0,0,0,15,15,15,,,,,,,,,,,,,,,,,,,,,,,,,,,,,,,,,411.09881411534406,None,None,1,411.09881411534406,None,,,,,,,,,,,,,,,,,,,,,,,,,,,,,,,,,,,,,,,,,,,,,,FedeG,001,a,2019_Nov_01_1724,Experimento,3.2.3,60.01911907656978,
8,14,14,999,0.5,0:10,3,Cyan,None,0,0,1,20:50,./completed_changuitos/montage_nynjt_31.67_35.95.jpg,right,0,0,0,0,,,,,0,9,9,9,,,,,,,,,0,0,0,0,0,16,16,16,,,,,,,,,,,,,,,,,,,,,,,,,,,,,,,,,411.09881411534406,None,None,1,411.09881411534406,None,,,,,,,,,,,,,,,,,,,,,,,,,,,,,,,,,,,,,,,,,,,,,,FedeG,001,a,2019_Nov_01_1724,Experimento,3.2.3,60.01911907656978,
8,14,14,999,0.5,0:10,3,Yellow,['space'],0,0,1,20:50,./completed_changuitos/montage_nynjt_31.67_35.95.jpg,right,0,0,0,0,,,,,0,9,9,9,,,,,,,,,0,0,0,0,0,17,17,17,,,,,,,,,,,,,,,,,,,,,,,,,,,,,,,,,411.09881411534406,None,None,0,411.09881411534406,None,,,,,,,,,,,,,,,,,,,,,,,,,,,,,,,,,,,,,,,,,,,,,,FedeG,001,a,2019_Nov_01_1724,Experimento,3.2.3,60.01911907656978,
8,14,14,999,0.5,0:10,3,Magenta,None,0,0,1,20:50,./completed_changuitos/montage_nynjt_31.67_35.95.jpg,right,0,0,0,0,,,,,0,9,9,9,,,,,,,,,0,0,0,0,0,18,18,18,,,,,,,,,,,,,,,,,,,,,,,,,,,,,,,,,411.09881411534406,None,None,1,411.09881411534406,None,,,,,,,,,,,,,,,,,,,,,,,,,,,,,,,,,,,,,,,,,,,,,,FedeG,001,a,2019_Nov_01_1724,Experimento,3.2.3,60.01911907656978,
8,14,14,999,0.5,0:10,3,Red,None,0,0,1,20:50,./completed_changuitos/montage_nynjt_31.67_35.95.jpg,right,0,0,0,0,,,,,0,9,9,9,,,,,,,,,0,0,0,0,0,19,19,19,,,,,,,,,,,,,,,,,,,,,,,,,,,,,,,,,411.1154737452976,None,None,1,411.1154737452976,None,,,,,,,,,,,,,,,,,,,,,,,,,,,,,,,,,,,,,,,,,,,,,,FedeG,001,a,2019_Nov_01_1724,Experimento,3.2.3,60.01911907656978,
8,14,14,999,0.5,0:10,3,Magenta,['space'],0,0,1,20:50,./completed_changuitos/montage_nynjt_31.67_35.95.jpg,right,0,0,0,0,,,,,0,9,9,9,,,,,,,,,0,0,0,0,0,20,20,20,,,,,,,,,,,,,,,,,,,,,,,,,,,,,,,,,411.1154737452976,None,None,0,411.1154737452976,None,,,,,,,,,,,,,,,,,,,,,,,,,,,,,,,,,,,,,,,,,,,,,,FedeG,001,a,2019_Nov_01_1724,Experimento,3.2.3,60.01911907656978,
8,14,14,999,0.5,0:10,3,Red,['space'],0,0,1,20:50,./completed_changuitos/montage_nynjt_31.67_35.95.jpg,right,0,0,0,0,,,,,0,9,9,9,,,,,,,,,0,0,0,0,0,21,21,21,,,,,,,,,,,,,,,,,,,,,,,,,,,,,,,,,411.1154737452976,None,None,0,411.1154737452976,None,,,,,,,,,,,,,,,,,,,,,,,,,,,,,,,,,,,,,,,,,,,,,,FedeG,001,a,2019_Nov_01_1724,Experimento,3.2.3,60.01911907656978,
8,14,14,999,0.5,0:10,3,Yellow,None,0,0,1,20:50,./completed_changuitos/montage_nynjt_31.67_35.95.jpg,right,0,0,0,0,,,,,0,9,9,9,,,,,,,,,0,0,0,0,0,22,22,22,,,,,,,,,,,,,,,,,,,,,,,,,,,,,,,,,411.1154737452976,None,None,1,411.1154737452976,None,,,,,,,,,,,,,,,,,,,,,,,,,,,,,,,,,,,,,,,,,,,,,,FedeG,001,a,2019_Nov_01_1724,Experimento,3.2.3,60.01911907656978,
8,14,14,999,0.5,0:10,3,Cyan,None,0,0,1,20:50,./completed_changuitos/montage_nynjt_31.67_35.95.jpg,right,0,0,0,0,,,,,0,9,9,9,,,,,,,,,0,0,0,0,0,23,23,23,,,,,,,,,,,,,,,,,,,,,,,,,,,,,,,,,411.1154737452976,None,None,1,411.1154737452976,None,,,,,,,,,,,,,,,,,,,,,,,,,,,,,,,,,,,,,,,,,,,,,,FedeG,001,a,2019_Nov_01_1724,Experimento,3.2.3,60.01911907656978,
8,14,14,999,0.5,0:10,3,Green,None,0,0,1,20:50,./completed_changuitos/montage_nynjt_31.67_35.95.jpg,right,0,0,0,0,,,,,0,9,9,9,,,,,,,,,0,0,0,0,0,24,24,24,,,,,,,,,,,,,,,,,,,,,,,,,,,,,,,,,411.1154737452976,None,None,1,411.1154737452976,None,,,,,,,,,,,,,,,,,,,,,,,,,,,,,,,,,,,,,,,,,,,,,,FedeG,001,a,2019_Nov_01_1724,Experimento,3.2.3,60.01911907656978,
8,14,14,999,0.5,0:10,3,White,None,0,0,1,20:50,./completed_changuitos/montage_nynjt_31.67_35.95.jpg,right,0,0,0,0,,,,,0,9,9,9,,,,,,,,,0,0,0,0,0,25,25,25,,,,,,,,,,,,,,,,,,,,,,,,,,,,,,,,,411.1321333752512,None,None,1,411.1321333752512,None,,,,,,,,,,,,,,,,,,,,,,,,,,,,,,,,,,,,,,,,,,,,,,FedeG,001,a,2019_Nov_01_1724,Experimento,3.2.3,60.01911907656978,
8,14,14,999,0.5,0:10,3,Green,['space'],0,0,1,20:50,./completed_changuitos/montage_nynjt_31.67_35.95.jpg,right,0,0,0,0,,,,,0,9,9,9,,,,,,,,,0,0,0,0,0,26,26,26,,,,,,,,,,,,,,,,,,,,,,,,,,,,,,,,,411.1321333752512,None,None,0,411.1321333752512,None,,,,,,,,,,,,,,,,,,,,,,,,,,,,,,,,,,,,,,,,,,,,,,FedeG,001,a,2019_Nov_01_1724,Experimento,3.2.3,60.01911907656978,
8,14,14,999,0.5,0:10,3,Red,None,0,0,1,20:50,./completed_changuitos/montage_nynjt_31.67_35.95.jpg,right,0,0,0,0,,,,,0,9,9,9,,,,,,,,,0,0,0,0,0,27,27,27,,,,,,,,,,,,,,,,,,,,,,,,,,,,,,,,,411.1321333752512,None,None,1,411.1321333752512,None,,,,,,,,,,,,,,,,,,,,,,,,,,,,,,,,,,,,,,,,,,,,,,FedeG,001,a,2019_Nov_01_1724,Experimento,3.2.3,60.01911907656978,
8,14,14,999,0.5,0:10,3,Blue,None,0,0,1,20:50,./completed_changuitos/montage_nynjt_31.67_35.95.jpg,right,0,0,0,0,,,,,0,9,9,9,,,,,,,,,0,0,0,0,0,28,28,28,,,,,,,,,,,,,,,,,,,,,,,,,,,,,,,,,411.1321333752512,None,None,1,411.1321333752512,None,,,,,,,,,,,,,,,,,,,,,,,,,,,,,,,,,,,,,,,,,,,,,,FedeG,001,a,2019_Nov_01_1724,Experimento,3.2.3,60.01911907656978,
8,14,14,999,0.5,0:10,3,Green,None,0,0,1,20:50,./completed_changuitos/montage_nynjt_31.67_35.95.jpg,right,0,0,0,0,,,,,0,9,9,9,,,,,,,,,0,0,0,0,0,29,29,29,,,,,,,,,,,,,,,,,,,,,,,,,,,,,,,,,411.1321333752512,None,None,1,411.1321333752512,None,,,,,,,,,,,,,,,,,,,,,,,,,,,,,,,,,,,,,,,,,,,,,,FedeG,001,a,2019_Nov_01_1724,Experimento,3.2.3,60.01911907656978,
8,14,14,999,0.5,0:10,3,,,0,0,1,20:50,./completed_changuitos/montage_nynjt_31.67_35.95.jpg,right,0,0,0,0,,,,,0,9,9,9,,,,,,,,,0,0,0,0,,,,,,,,,,,,,,,,,,,,,,,,,,,,,,,,,,,,,,,,,,,,411.19851907071643,None,left,0,4.313348544499604,411.19851907071643,None,411.19851907071643,414.19769141713914,,,,,,,,,,,,,,,,,,,,,,,,,,,,,,,,,,,,FedeG,001,a,2019_Nov_01_1724,Experimento,3.2.3,60.01911907656978,
8,14,14,999,0.5,0:10,3,,,0,0,1,20:50,,,0,0,0,0,,,,,0,9,9,9,,,,,,,,,,,,,,,,,,,,,,,,,,,,,,,,,,,,,,,,,,,,,,,,,,,,,,,,,,,,,,,,,,,,,,,,,,,,,,,,,,,,,,,,,,,,,,,,,,,,FedeG,001,a,2019_Nov_01_1724,Experimento,3.2.3,60.01911907656978,
8,14,14,999,0.5,0:10,3,,,0,1,0,25:50,./completed_changuitos/montage_vykto_144.45_160.49.jpg,right,0,0,0,0,,,,,0,10,10,10,,,,,0,0,0,0,,,,,,,,,,,,,,,,,,,,,,415.7801121808261,417.11333540465057,417.11333540465057,425.12700660840346,425.12700660840346,439.138701337728,left,0,2.1389201607453288,439.138701337728,None,439.138701337728,None,439.138701337728,None,,,,,,,,,,,,,,,,,,,,,,,,,,,,,,,,,,,,,,,,,,,,,,,,,,,,,,,,FedeG,001,a,2019_Nov_01_1724,Experimento,3.2.3,60.01911907656978,
8,14,14,999,0.5,0:10,3,,,0,1,0,25:50,,,0,0,0,0,,,,,0,10,10,10,,,,,,,,,,,,,,,,,,,,,,,,,,,,,,,,,,,,,,,,,,,,,,,,,,,,,,,,,,,,,,,,,,,,,,,,,,,,,,,,,,,,,,,,,,,,,,,,,,,,FedeG,001,a,2019_Nov_01_1724,Experimento,3.2.3,60.01911907656978,
8,14,14,999,0.5,0:10,3,Red,None,0,0,1,28:50,./completed_changuitos/montage_qdlxl_174.4_151.85.jpg,left,0,0,0,0,,,,,0,11,11,11,,,,,,,,,0,0,0,0,0,0,0,0,,,,,,,,,,,,,,,,,,,,,,,,,,,,,441.45417503067074,442.57077812261923,442.57077812261923,None,450.6177148751776,451.1176202525421,None,1,450.6177148751776,None,,,,,,,,,,,,,,,,,,,,,,,,,,,,,,,,,,,,,,,,,,,,,,FedeG,001,a,2019_Nov_01_1724,Experimento,3.2.3,60.01911907656978,
8,14,14,999,0.5,0:10,3,Magenta,['space'],0,0,1,28:50,./completed_changuitos/montage_qdlxl_174.4_151.85.jpg,left,0,0,0,0,,,,,0,11,11,11,,,,,,,,,0,0,0,0,0,1,1,1,,,,,,,,,,,,,,,,,,,,,,,,,,,,,,,,,452.6170084118603,453.1169687567344,None,0,452.6170084118603,452.6170084118603,,,,,,,,,,,,,,,,,,,,,,,,,,,,,,,,,,,,,,,,,,,,,,FedeG,001,a,2019_Nov_01_1724,Experimento,3.2.3,60.01911907656978,
8,14,14,999,0.5,0:10,3,Green,None,0,0,1,28:50,./completed_changuitos/montage_qdlxl_174.4_151.85.jpg,left,0,0,0,0,,,,,0,11,11,11,,,,,,,,,0,0,0,0,0,2,2,2,,,,,,,,,,,,,,,,,,,,,,,,,,,,,,,,,454.6163720975528,455.11622852766595,None,1,454.6163720975528,454.6163720975528,,,,,,,,,,,,,,,,,,,,,,,,,,,,,,,,,,,,,,,,,,,,,,FedeG,001,a,2019_Nov_01_1724,Experimento,3.2.3,60.01911907656978,
8,14,14,999,0.5,0:10,3,Yellow,['space'],0,0,1,28:50,./completed_changuitos/montage_qdlxl_174.4_151.85.jpg,left,0,0,0,0,,,,,0,11,11,11,,,,,,,,,0,0,0,0,0,3,3,3,,,,,,,,,,,,,,,,,,,,,,,,,,,,,,,,,456.61566720474,457.1153341278332,None,0,456.61566720474,456.61566720474,,,,,,,,,,,,,,,,,,,,,,,,,,,,,,,,,,,,,,,,,,,,,,FedeG,001,a,2019_Nov_01_1724,Experimento,3.2.3,60.01911907656978,
8,14,14,999,0.5,0:10,3,Blue,None,0,0,1,28:50,./completed_changuitos/montage_qdlxl_174.4_151.85.jpg,left,0,0,0,0,,,,,0,11,11,11,,,,,,,,,0,0,0,0,0,4,4,4,,,,,,,,,,,,,,,,,,,,,,,,,,,,,,,,,458.61480081215996,459.11462478526664,None,1,458.61480081215996,458.61480081215996,,,,,,,,,,,,,,,,,,,,,,,,,,,,,,,,,,,,,,,,,,,,,,FedeG,001,a,2019_Nov_01_1724,Experimento,3.2.3,60.01911907656978,
8,14,14,999,0.5,0:10,3,Cyan,None,0,0,1,28:50,./completed_changuitos/montage_qdlxl_174.4_151.85.jpg,left,0,0,0,0,,,,,0,11,11,11,,,,,,,,,0,0,0,0,0,5,5,5,,,,,,,,,,,,,,,,,,,,,,,,,,,,,,,,,460.61415245735043,461.1141128022209,None,1,460.61415245735043,460.61415245735043,,,,,,,,,,,,,,,,,,,,,,,,,,,,,,,,,,,,,,,,,,,,,,FedeG,001,a,2019_Nov_01_1724,Experimento,3.2.3,60.01911907656978,
8,14,14,999,0.5,0:10,3,Blue,['space'],0,0,1,28:50,./completed_changuitos/montage_qdlxl_174.4_151.85.jpg,left,0,0,0,0,,,,,0,11,11,11,,,,,,,,,0,0,0,0,0,6,6,6,,,,,,,,,,,,,,,,,,,,,,,,,,,,,,,,,462.613454893537,463.1132697053945,['return'],0,462.613454893537,462.613454893537,[0.7114156252719113],,,,,,,,,,,,,,,,,,,,,,,,,,,,,,,,,,,,,,,,,,,,,FedeG,001,a,2019_Nov_01_1724,Experimento,3.2.3,60.01911907656978,
8,14,14,999,0.5,0:10,3,Yellow,None,0,0,1,28:50,./completed_changuitos/montage_qdlxl_174.4_151.85.jpg,left,0,0,0,0,,,,,0,11,11,11,,,,,,,,,0,0,0,0,0,7,7,7,,,,,,,,,,,,,,,,,,,,,,,,,,,,,,,,,464.59607288586665,None,None,1,464.59607288586665,None,,,,,,,,,,,,,,,,,,,,,,,,,,,,,,,,,,,,,,,,,,,,,,FedeG,001,a,2019_Nov_01_1724,Experimento,3.2.3,60.01911907656978,
8,14,14,999,0.5,0:10,3,Cyan,None,0,0,1,28:50,./completed_changuitos/montage_qdlxl_174.4_151.85.jpg,left,0,0,0,0,,,,,0,11,11,11,,,,,,,,,0,0,0,0,0,8,8,8,,,,,,,,,,,,,,,,,,,,,,,,,,,,,,,,,464.59607288586665,None,None,1,464.59607288586665,None,,,,,,,,,,,,,,,,,,,,,,,,,,,,,,,,,,,,,,,,,,,,,,FedeG,001,a,2019_Nov_01_1724,Experimento,3.2.3,60.01911907656978,
8,14,14,999,0.5,0:10,3,Yellow,['space'],0,0,1,28:50,./completed_changuitos/montage_qdlxl_174.4_151.85.jpg,left,0,0,0,0,,,,,0,11,11,11,,,,,,,,,0,0,0,0,0,9,9,9,,,,,,,,,,,,,,,,,,,,,,,,,,,,,,,,,464.6127325158202,None,None,0,464.6127325158202,None,,,,,,,,,,,,,,,,,,,,,,,,,,,,,,,,,,,,,,,,,,,,,,FedeG,001,a,2019_Nov_01_1724,Experimento,3.2.3,60.01911907656978,
8,14,14,999,0.5,0:10,3,Magenta,None,0,0,1,28:50,./completed_changuitos/montage_qdlxl_174.4_151.85.jpg,left,0,0,0,0,,,,,0,11,11,11,,,,,,,,,0,0,0,0,0,10,10,10,,,,,,,,,,,,,,,,,,,,,,,,,,,,,,,,,464.6127325158202,None,None,1,464.6127325158202,None,,,,,,,,,,,,,,,,,,,,,,,,,,,,,,,,,,,,,,,,,,,,,,FedeG,001,a,2019_Nov_01_1724,Experimento,3.2.3,60.01911907656978,
8,14,14,999,0.5,0:10,3,Red,None,0,0,1,28:50,./completed_changuitos/montage_qdlxl_174.4_151.85.jpg,left,0,0,0,0,,,,,0,11,11,11,,,,,,,,,0,0,0,0,0,11,11,11,,,,,,,,,,,,,,,,,,,,,,,,,,,,,,,,,464.6127325158202,None,None,1,464.6127325158202,None,,,,,,,,,,,,,,,,,,,,,,,,,,,,,,,,,,,,,,,,,,,,,,FedeG,001,a,2019_Nov_01_1724,Experimento,3.2.3,60.01911907656978,
8,14,14,999,0.5,0:10,3,Magenta,['space'],0,0,1,28:50,./completed_changuitos/montage_qdlxl_174.4_151.85.jpg,left,0,0,0,0,,,,,0,11,11,11,,,,,,,,,0,0,0,0,0,12,12,12,,,,,,,,,,,,,,,,,,,,,,,,,,,,,,,,,464.6127325158202,None,None,0,464.6127325158202,None,,,,,,,,,,,,,,,,,,,,,,,,,,,,,,,,,,,,,,,,,,,,,,FedeG,001,a,2019_Nov_01_1724,Experimento,3.2.3,60.01911907656978,
8,14,14,999,0.5,0:10,3,Red,['space'],0,0,1,28:50,./completed_changuitos/montage_qdlxl_174.4_151.85.jpg,left,0,0,0,0,,,,,0,11,11,11,,,,,,,,,0,0,0,0,0,13,13,13,,,,,,,,,,,,,,,,,,,,,,,,,,,,,,,,,464.6293921457738,None,None,0,464.6293921457738,None,,,,,,,,,,,,,,,,,,,,,,,,,,,,,,,,,,,,,,,,,,,,,,FedeG,001,a,2019_Nov_01_1724,Experimento,3.2.3,60.01911907656978,
8,14,14,999,0.5,0:10,3,Yellow,None,0,0,1,28:50,./completed_changuitos/montage_qdlxl_174.4_151.85.jpg,left,0,0,0,0,,,,,0,11,11,11,,,,,,,,,0,0,0,0,0,14,14,14,,,,,,,,,,,,,,,,,,,,,,,,,,,,,,,,,464.6293921457738,None,None,1,464.6293921457738,None,,,,,,,,,,,,,,,,,,,,,,,,,,,,,,,,,,,,,,,,,,,,,,FedeG,001,a,2019_Nov_01_1724,Experimento,3.2.3,60.01911907656978,
8,14,14,999,0.5,0:10,3,Cyan,None,0,0,1,28:50,./completed_changuitos/montage_qdlxl_174.4_151.85.jpg,left,0,0,0,0,,,,,0,11,11,11,,,,,,,,,0,0,0,0,0,15,15,15,,,,,,,,,,,,,,,,,,,,,,,,,,,,,,,,,464.6293921457738,None,None,1,464.6293921457738,None,,,,,,,,,,,,,,,,,,,,,,,,,,,,,,,,,,,,,,,,,,,,,,FedeG,001,a,2019_Nov_01_1724,Experimento,3.2.3,60.01911907656978,
8,14,14,999,0.5,0:10,3,Green,None,0,0,1,28:50,./completed_changuitos/montage_qdlxl_174.4_151.85.jpg,left,0,0,0,0,,,,,0,11,11,11,,,,,,,,,0,0,0,0,0,16,16,16,,,,,,,,,,,,,,,,,,,,,,,,,,,,,,,,,464.64605177572736,None,None,1,464.64605177572736,None,,,,,,,,,,,,,,,,,,,,,,,,,,,,,,,,,,,,,,,,,,,,,,FedeG,001,a,2019_Nov_01_1724,Experimento,3.2.3,60.01911907656978,
8,14,14,999,0.5,0:10,3,White,None,0,0,1,28:50,./completed_changuitos/montage_qdlxl_174.4_151.85.jpg,left,0,0,0,0,,,,,0,11,11,11,,,,,,,,,0,0,0,0,0,17,17,17,,,,,,,,,,,,,,,,,,,,,,,,,,,,,,,,,464.64605177572736,None,None,1,464.64605177572736,None,,,,,,,,,,,,,,,,,,,,,,,,,,,,,,,,,,,,,,,,,,,,,,FedeG,001,a,2019_Nov_01_1724,Experimento,3.2.3,60.01911907656978,
8,14,14,999,0.5,0:10,3,Green,['space'],0,0,1,28:50,./completed_changuitos/montage_qdlxl_174.4_151.85.jpg,left,0,0,0,0,,,,,0,11,11,11,,,,,,,,,0,0,0,0,0,18,18,18,,,,,,,,,,,,,,,,,,,,,,,,,,,,,,,,,464.64605177572736,None,None,0,464.64605177572736,None,,,,,,,,,,,,,,,,,,,,,,,,,,,,,,,,,,,,,,,,,,,,,,FedeG,001,a,2019_Nov_01_1724,Experimento,3.2.3,60.01911907656978,
8,14,14,999,0.5,0:10,3,Red,None,0,0,1,28:50,./completed_changuitos/montage_qdlxl_174.4_151.85.jpg,left,0,0,0,0,,,,,0,11,11,11,,,,,,,,,0,0,0,0,0,19,19,19,,,,,,,,,,,,,,,,,,,,,,,,,,,,,,,,,464.64605177572736,None,None,1,464.64605177572736,None,,,,,,,,,,,,,,,,,,,,,,,,,,,,,,,,,,,,,,,,,,,,,,FedeG,001,a,2019_Nov_01_1724,Experimento,3.2.3,60.01911907656978,
8,14,14,999,0.5,0:10,3,Blue,None,0,0,1,28:50,./completed_changuitos/montage_qdlxl_174.4_151.85.jpg,left,0,0,0,0,,,,,0,11,11,11,,,,,,,,,0,0,0,0,0,20,20,20,,,,,,,,,,,,,,,,,,,,,,,,,,,,,,,,,464.66271140568097,None,None,1,464.66271140568097,None,,,,,,,,,,,,,,,,,,,,,,,,,,,,,,,,,,,,,,,,,,,,,,FedeG,001,a,2019_Nov_01_1724,Experimento,3.2.3,60.01911907656978,
8,14,14,999,0.5,0:10,3,Green,None,0,0,1,28:50,./completed_changuitos/montage_qdlxl_174.4_151.85.jpg,left,0,0,0,0,,,,,0,11,11,11,,,,,,,,,0,0,0,0,0,21,21,21,,,,,,,,,,,,,,,,,,,,,,,,,,,,,,,,,464.66271140568097,None,None,1,464.66271140568097,None,,,,,,,,,,,,,,,,,,,,,,,,,,,,,,,,,,,,,,,,,,,,,,FedeG,001,a,2019_Nov_01_1724,Experimento,3.2.3,60.01911907656978,
8,14,14,999,0.5,0:10,3,,,0,0,1,28:50,./completed_changuitos/montage_qdlxl_174.4_151.85.jpg,left,0,0,0,0,,,,,0,11,11,11,,,,,,,,,0,0,0,0,,,,,,,,,,,,,,,,,,,,,,,,,,,,,,,,,,,,,,,,,,,,464.74934346550435,None,right,0,1.9763134550776158,464.74934346550435,None,464.74934346550435,None,,,,,,,,,,,,,,,,,,,,,,,,,,,,,,,,,,,,FedeG,001,a,2019_Nov_01_1724,Experimento,3.2.3,60.01911907656978,
8,14,14,999,0.5,0:10,3,,,0,0,1,28:50,,,0,0,0,0,,,,,0,11,11,11,,,,,,,,,,,,,,,,,,,,,,,,,,,,,,,,,,,,,,,,,,,,,,,,,,,,,,,,,,,,,,,,,,,,,,,,,,,,,,,,,,,,,,,,,,,,,,,,,,,,FedeG,001,a,2019_Nov_01_1724,Experimento,3.2.3,60.01911907656978,
8,14,14,999,0.5,0:10,3,,,1,0,0,30:50,./completed_changuitos/montage_mwoak_142.2_162.65.jpg,right,0,0,0,0,,,,,0,12,12,12,0,0,0,0,,,,,,,,,,,,,,,,,,,,,,,,,,,,,,,,,,,,,,,,,,,,,,,,,,,,,,,,,,,,,467.39509464750154,468.6612829049227,468.6612829049227,476.67506168793625,right,1,3.6814261397739756,476.67506168793625,None,476.67506168793625,None,476.67506168793625,479.6906277001144,,,,,,,,,,,,,,,,,,,,,,,FedeG,001,a,2019_Nov_01_1724,Experimento,3.2.3,60.01911907656978,
8,14,14,999,0.5,0:10,3,,,1,0,0,30:50,,,0,0,0,0,,,,,0,12,12,12,,,,,,,,,,,,,,,,,,,,,,,,,,,,,,,,,,,,,,,,,,,,,,,,,,,,,,,,,,,,,,,,,,,,,,,,,,,,,,,,,,,,,,,,,,,,,,,,,,,,FedeG,001,a,2019_Nov_01_1724,Experimento,3.2.3,60.01911907656978,
8,14,14,999,0.5,0:10,3,,,1,0,0,32:50,./completed_changuitos/montage_dzomj_112.25_131.6.jpg,right,0,0,0,0,,,,,0,13,13,13,0,0,0,0,,,,,,,,,,,,,,,,,,,,,,,,,,,,,,,,,,,,,,,,,,,,,,,,,,,,,,,,,,,,,481.07345857374094,482.15641108260024,482.15641108260024,490.170146153363,left,0,3.6737566023148247,490.170146153363,None,490.170146153363,None,490.170146153363,493.1690878980153,,,,,,,,,,,,,,,,,,,,,,,FedeG,001,a,2019_Nov_01_1724,Experimento,3.2.3,60.01911907656978,
8,14,14,999,0.5,0:10,3,,,1,0,0,32:50,,,0,0,0,0,,,,,0,13,13,13,,,,,,,,,,,,,,,,,,,,,,,,,,,,,,,,,,,,,,,,,,,,,,,,,,,,,,,,,,,,,,,,,,,,,,,,,,,,,,,,,,,,,,,,,,,,,,,,,,,,FedeG,001,a,2019_Nov_01_1724,Experimento,3.2.3,60.01911907656978,
8,14,14,999,0.5,0:10,3,,,1,0,0,34:50,./completed_changuitos/montage_bpbms_304.95_266.45.jpg,left,0,0,0,0,,,,,0,14,14,14,0,0,0,0,,,,,,,,,,,,,,,,,,,,,,,,,,,,,,,,,,,,,,,,,,,,,,,,,,,,,,,,,,,,,494.5520064578959,495.7015235683648,495.7015235683648,503.7152599478759,left,1,1.1122339605462912,503.7152599478759,None,503.7152599478759,None,503.7152599478759,None,,,,,,,,,,,,,,,,,,,,,,,FedeG,001,a,2019_Nov_01_1724,Experimento,3.2.3,60.01911907656978,
8,14,14,999,0.5,0:10,3,,,1,0,0,34:50,,,0,0,0,0,,,,,0,14,14,14,,,,,,,,,,,,,,,,,,,,,,,,,,,,,,,,,,,,,,,,,,,,,,,,,,,,,,,,,,,,,,,,,,,,,,,,,,,,,,,,,,,,,,,,,,,,,,,,,,,,FedeG,001,a,2019_Nov_01_1724,Experimento,3.2.3,60.01911907656978,
8,14,14,999,0.5,0:10,3,,,1,0,0,30:50,./completed_changuitos/montage_xaqgi_81.35_95.25.jpg,right,0,0,0,0,,,,,0,15,15,15,0,0,0,0,,,,,,,,,,,,,,,,,,,,,,,,,,,,,,,,,,,,,,,,,,,,,,,,,,,,,,,,,,,,,505.53130203099863,506.84750286550843,506.84750286550843,514.8612368892682,right,1,1.6619126754812896,514.8612368892682,None,514.8612368892682,None,514.8612368892682,None,,,,,,,,,,,,,,,,,,,,,,,FedeG,001,a,2019_Nov_01_1724,Experimento,3.2.3,60.01911907656978,
8,14,14,999,0.5,0:10,3,,,1,0,0,30:50,,,0,0,0,0,,,,,0,15,15,15,,,,,,,,,,,,,,,,,,,,,,,,,,,,,,,,,,,,,,,,,,,,,,,,,,,,,,,,,,,,,,,,,,,,,,,,,,,,,,,,,,,,,,,,,,,,,,,,,,,,FedeG,001,a,2019_Nov_01_1724,Experimento,3.2.3,60.01911907656978,
8,14,14,999,0.5,0:10,3,,,1,0,0,32:50,./completed_changuitos/montage_tuezv_44.13_51.35.jpg,right,0,0,0,0,,,,,0,16,16,16,0,0,0,0,,,,,,,,,,,,,,,,,,,,,,,,,,,,,,,,,,,,,,,,,,,,,,,,,,,,,,,,,,,,,517.2271558320936,518.4432681689213,518.4432681689213,526.4570610864357,right,1,0.8897014191279595,526.4570610864357,None,526.4570610864357,None,526.4570610864357,None,,,,,,,,,,,,,,,,,,,,,,,FedeG,001,a,2019_Nov_01_1724,Experimento,3.2.3,60.01911907656978,
8,14,14,999,0.5,0:10,3,,,1,0,0,32:50,,,0,0,0,0,,,,,0,16,16,16,,,,,,,,,,,,,,,,,,,,,,,,,,,,,,,,,,,,,,,,,,,,,,,,,,,,,,,,,,,,,,,,,,,,,,,,,,,,,,,,,,,,,,,,,,,,,,,,,,,,FedeG,001,a,2019_Nov_01_1724,Experimento,3.2.3,60.01911907656978,
8,14,14,999,0.5,0:10,3,,,1,0,0,34:50,./completed_changuitos/montage_crgac_160.49_180.85.jpg,right,0,0,0,0,,,,,0,17,17,17,0,0,0,0,,,,,,,,,,,,,,,,,,,,,,,,,,,,,,,,,,,,,,,,,,,,,,,,,,,,,,,,,,,,,528.0565183739382,529.1894185458805,529.1894185458805,537.2031295356392,right,1,1.4792601059743902,537.2031295356392,None,537.2031295356392,None,537.2031295356392,None,,,,,,,,,,,,,,,,,,,,,,,FedeG,001,a,2019_Nov_01_1724,Experimento,3.2.3,60.01911907656978,
8,14,14,999,0.5,0:10,3,,,1,0,0,34:50,,,0,0,0,0,,,,,0,17,17,17,,,,,,,,,,,,,,,,,,,,,,,,,,,,,,,,,,,,,,,,,,,,,,,,,,,,,,,,,,,,,,,,,,,,,,,,,,,,,,,,,,,,,,,,,,,,,,,,,,,,FedeG,001,a,2019_Nov_01_1724,Experimento,3.2.3,60.01911907656978,
8,14,14,999,0.5,0:10,3,,,,,,,,,0,0,0,0,,,,,,,,,,,,,,,,,,,,,,,,,,,,,,,,,,,,,,,,,,,,,,,,,,,,,,,,,,,,,,,,,,,,,,,,,,,,,,,,,,,,,,538.7857866595987,542.0347535976907,3,11.679069866055215,542.0347535976907,None,542.0347535976907,None,b,10.89519502863186,553.7304419727698,None,553.7304419727698,None,553.7304419727698,None,564.6432522545183,None,3,6.0299949822510825,564.6432522545183,None,FedeG,001,a,2019_Nov_01_1724,Experimento,3.2.3,60.01911907656978,
