changuito_time_to_show,time_to_think,time_to_play,total_items,nback_stimulus_time,nback_training,time_to_show_tiny_stimulus,colourtest,corresp,inmediato,consciente,inconsciente,nback_slice,imagen,correcta,trials_5.thisRepN,trials_5.thisTrialN,trials_5.thisN,trials_5.thisIndex,nback_train.thisRepN,nback_train.thisTrialN,nback_train.thisN,nback_train.thisIndex,treatment_order.thisRepN,treatment_order.thisTrialN,treatment_order.thisN,treatment_order.thisIndex,trials.thisRepN,trials.thisTrialN,trials.thisN,trials.thisIndex,trials_2.thisRepN,trials_2.thisTrialN,trials_2.thisN,trials_2.thisIndex,trials_3.thisRepN,trials_3.thisTrialN,trials_3.thisN,trials_3.thisIndex,trials_4.thisRepN,trials_4.thisTrialN,trials_4.thisN,trials_4.thisIndex,Presentacion.started,Presentacion.stopped,Juego.started,Juego.stopped,image_6.started,image_6.stopped,polygon.started,polygon.stopped,nback_train_resp.keys,nback_train_resp.corr,nback_train_resp.started,nback_train_resp.stopped,nback_train_resp.rt,hola.started,hola.stopped,image_2.started,image_2.stopped,tiempo_para_pensar.started,tiempo_para_pensar.stopped,respuesta_consciente.keys,respuesta_consciente.corr,respuesta_consciente.rt,respuesta_consciente.started,respuesta_consciente.stopped,cual_es_la_mas_barata.started,cual_es_la_mas_barata.stopped,image_4.started,image_4.stopped,holi.started,holi.stopped,image_3.started,image_3.stopped,polygon_2.started,polygon_2.stopped,nback_train_resp_2.keys,nback_train_resp_2.corr,nback_train_resp_2.started,nback_train_resp_2.stopped,text_2.started,text_2.stopped,key_resp.keys,key_resp.corr,key_resp.rt,key_resp.started,key_resp.stopped,image_5.started,image_5.stopped,nback_train_resp_2.rt,text.started,text.stopped,image.started,image.stopped,respuesta_inmediato.keys,respuesta_inmediato.corr,respuesta_inmediato.rt,respuesta_inmediato.started,respuesta_inmediato.stopped,pregunta_cual_es_el_mas_barato.started,pregunta_cual_es_el_mas_barato.stopped,short_stim1.started,short_stim1.stopped,gracias.started,gracias.stopped,respuesta1.keys,respuesta1.rt,respuesta1.started,respuesta1.stopped,pregunta1.started,pregunta1.stopped,respuesta3bis_3.keys,respuesta3bis_3.rt,respuesta3bis_3.started,respuesta3bis_3.stopped,pregunta3_3.started,pregunta3_3.stopped,productoCon3RANGOSabc_3.started,productoCon3RANGOSabc_3.stopped,text_3.started,text_3.stopped,key_resp_2.keys,key_resp_2.rt,key_resp_2.started,key_resp_2.stopped,participant,session,group,date,expName,psychopyVersion,frameRate,
8,14,14,999,0.5,0:10,3,White,None,,,,,,,0,0,0,0,0,0,0,0,,,,,,,,,,,,,,,,,,,,,25.03572473299573,None,39.91671946400311,None,39.91671946400311,None,58.92718976500328,59.44054179699742,None,1,58.92718976500328,None,,,,,,,,,,,,,,,,,,,,,,,,,,,,,,,,,,,,,,,,,,,,,,,,,,,,,,,,,,,,,,,,,,,,,,,,gabiO,001,a,2019_Oct_10_1226,Experimento,3.2.3,60.16179709135863,
8,14,14,999,0.5,0:10,3,Red,None,,,,,,,0,0,0,0,0,1,1,1,,,,,,,,,,,,,,,,,,,,,,,,,,,60.93988597700081,61.439928537991364,None,1,60.93988597700081,60.93988597700081,,,,,,,,,,,,,,,,,,,,,,,,,,,,,,,,,,,,,,,,,,,,,,,,,,,,,,,,,,,,,,,,,,,,,,,,gabiO,001,a,2019_Oct_10_1226,Experimento,3.2.3,60.16179709135863,
8,14,14,999,0.5,0:10,3,Magenta,None,,,,,,,0,0,0,0,0,2,2,2,,,,,,,,,,,,,,,,,,,,,,,,,,,62.939351281005656,63.43918562600447,None,1,62.939351281005656,62.939351281005656,,,,,,,,,,,,,,,,,,,,,,,,,,,,,,,,,,,,,,,,,,,,,,,,,,,,,,,,,,,,,,,,,,,,,,,,gabiO,001,a,2019_Oct_10_1226,Experimento,3.2.3,60.16179709135863,
8,14,14,999,0.5,0:10,3,Cyan,None,,,,,,,0,0,0,0,0,3,3,3,,,,,,,,,,,,,,,,,,,,,,,,,,,64.93863463800517,65.43810337799368,None,1,64.93863463800517,64.93863463800517,,,,,,,,,,,,,,,,,,,,,,,,,,,,,,,,,,,,,,,,,,,,,,,,,,,,,,,,,,,,,,,,,,,,,,,,gabiO,001,a,2019_Oct_10_1226,Experimento,3.2.3,60.16179709135863,
8,14,14,999,0.5,0:10,3,Magenta,['space'],,,,,,,0,0,0,0,0,4,4,4,,,,,,,,,,,,,,,,,,,,,,,,,,,66.93789636799193,67.43777218200557,['return'],0,66.93789636799193,66.93789636799193,[1.933359331000247],,,,,,,,,,,,,,,,,,,,,,,,,,,,,,,,,,,,,,,,,,,,,,,,,,,,,,,,,,,,,,,,,,,,,,,gabiO,001,a,2019_Oct_10_1226,Experimento,3.2.3,60.16179709135863,
8,14,14,999,0.5,0:10,3,Green,None,,,,,,,0,0,0,0,0,5,5,5,,,,,,,,,,,,,,,,,,,,,,,,,,,68.93699229699268,69.43711604599957,None,1,68.93699229699268,68.93699229699268,,,,,,,,,,,,,,,,,,,,,,,,,,,,,,,,,,,,,,,,,,,,,,,,,,,,,,,,,,,,,,,,,,,,,,,,gabiO,001,a,2019_Oct_10_1226,Experimento,3.2.3,60.16179709135863,
8,14,14,999,0.5,0:10,3,White,None,,,,,,,0,0,0,0,0,6,6,6,,,,,,,,,,,,,,,,,,,,,,,,,,,70.93659754400142,71.4364354309946,None,1,70.93659754400142,70.93659754400142,,,,,,,,,,,,,,,,,,,,,,,,,,,,,,,,,,,,,,,,,,,,,,,,,,,,,,,,,,,,,,,,,,,,,,,,gabiO,001,a,2019_Oct_10_1226,Experimento,3.2.3,60.16179709135863,
8,14,14,999,0.5,0:10,3,Green,['space'],,,,,,,0,0,0,0,0,7,7,7,,,,,,,,,,,,,,,,,,,,,,,,,,,72.93569600299816,73.43574214199907,None,0,72.93569600299816,72.93569600299816,,,,,,,,,,,,,,,,,,,,,,,,,,,,,,,,,,,,,,,,,,,,,,,,,,,,,,,,,,,,,,,,,,,,,,,,gabiO,001,a,2019_Oct_10_1226,Experimento,3.2.3,60.16179709135863,
8,14,14,999,0.5,0:10,3,Blue,None,,,,,,,0,0,0,0,0,8,8,8,,,,,,,,,,,,,,,,,,,,,,,,,,,74.93525673099793,75.43505687899597,None,1,74.93525673099793,74.93525673099793,,,,,,,,,,,,,,,,,,,,,,,,,,,,,,,,,,,,,,,,,,,,,,,,,,,,,,,,,,,,,,,,,,,,,,,,gabiO,001,a,2019_Oct_10_1226,Experimento,3.2.3,60.16179709135863,
8,14,14,999,0.5,0:10,3,Green,['space'],,,,,,,0,0,0,0,0,9,9,9,,,,,,,,,,,,,,,,,,,,,,,,,,,76.93430470699968,77.4339864020003,None,0,76.93430470699968,76.93430470699968,,,,,,,,,,,,,,,,,,,,,,,,,,,,,,,,,,,,,,,,,,,,,,,,,,,,,,,,,,,,,,,,,,,,,,,,gabiO,001,a,2019_Oct_10_1226,Experimento,3.2.3,60.16179709135863,
8,14,14,999,0.5,0:10,3,,,0,1,0,10:50,./completed_changuitos/montage_yyvyr_123.05_106.99.jpg,left,0,0,0,0,,,,,0,0,0,0,,,,,0,0,0,0,,,,,,,,,,,,,,,,,,,,,,79.14807957300218,96.32793456800573,96.32793456800573,104.34186738399148,104.34186738399148,118.3533203679981,right,0,2.1335451710037887,118.3533203679981,None,118.3533203679981,None,118.3533203679981,None,,,,,,,,,,,,,,,,,,,,,,,,,,,,,,,,,,,,,,,,,,,,,,,,,,,,,,,,gabiO,001,a,2019_Oct_10_1226,Experimento,3.2.3,60.16179709135863,
8,14,14,999,0.5,0:10,3,,,0,1,0,10:50,,,0,0,0,0,,,,,0,0,0,0,,,,,,,,,,,,,,,,,,,,,,,,,,,,,,,,,,,,,,,,,,,,,,,,,,,,,,,,,,,,,,,,,,,,,,,,,,,,,,,,,,,,,,,,,,,,,,,,,,,,gabiO,001,a,2019_Oct_10_1226,Experimento,3.2.3,60.16179709135863,
8,14,14,999,0.5,0:10,3,Yellow,None,0,0,1,15:50,./completed_changuitos/montage_zmjoq_33.19_28.79.jpg,left,0,0,0,0,,,,,0,1,1,1,,,,,,,,,0,0,0,0,0,0,0,0,,,,,,,,,,,,,,,,,,,,,,,,,,,,,120.62193730399304,124.35167588299373,124.35167588299373,None,132.3749371110025,132.8818250089971,None,1,132.3749371110025,None,,,,,,,,,,,,,,,,,,,,,,,,,,,,,,,,,,,,,,,,,,,,,,gabiO,001,a,2019_Oct_10_1226,Experimento,3.2.3,60.16179709135863,
8,14,14,999,0.5,0:10,3,White,['space'],0,0,1,15:50,./completed_changuitos/montage_zmjoq_33.19_28.79.jpg,left,0,0,0,0,,,,,0,1,1,1,,,,,,,,,0,0,0,0,0,1,1,1,,,,,,,,,,,,,,,,,,,,,,,,,,,,,,,,,134.38123069200083,134.88098820799496,None,0,134.38123069200083,134.38123069200083,,,,,,,,,,,,,,,,,,,,,,,,,,,,,,,,,,,,,,,,,,,,,,gabiO,001,a,2019_Oct_10_1226,Experimento,3.2.3,60.16179709135863,
8,14,14,999,0.5,0:10,3,Magenta,None,0,0,1,15:50,./completed_changuitos/montage_zmjoq_33.19_28.79.jpg,left,0,0,0,0,,,,,0,1,1,1,,,,,,,,,0,0,0,0,0,2,2,2,,,,,,,,,,,,,,,,,,,,,,,,,,,,,,,,,136.38089514599415,136.88074098300422,None,1,136.38089514599415,136.38089514599415,,,,,,,,,,,,,,,,,,,,,,,,,,,,,,,,,,,,,,,,,,,,,,gabiO,001,a,2019_Oct_10_1226,Experimento,3.2.3,60.16179709135863,
8,14,14,999,0.5,0:10,3,Cyan,None,0,0,1,15:50,./completed_changuitos/montage_zmjoq_33.19_28.79.jpg,left,0,0,0,0,,,,,0,1,1,1,,,,,,,,,0,0,0,0,0,3,3,3,,,,,,,,,,,,,,,,,,,,,,,,,,,,,,,,,138.38023768899438,138.88007837400073,None,1,138.38023768899438,138.38023768899438,,,,,,,,,,,,,,,,,,,,,,,,,,,,,,,,,,,,,,,,,,,,,,gabiO,001,a,2019_Oct_10_1226,Experimento,3.2.3,60.16179709135863,
8,14,14,999,0.5,0:10,3,Blue,None,0,0,1,15:50,./completed_changuitos/montage_zmjoq_33.19_28.79.jpg,left,0,0,0,0,,,,,0,1,1,1,,,,,,,,,0,0,0,0,0,4,4,4,,,,,,,,,,,,,,,,,,,,,,,,,,,,,,,,,140.37916149100056,140.8793754639919,None,1,140.37916149100056,140.37916149100056,,,,,,,,,,,,,,,,,,,,,,,,,,,,,,,,,,,,,,,,,,,,,,gabiO,001,a,2019_Oct_10_1226,Experimento,3.2.3,60.16179709135863,
8,14,14,999,0.5,0:10,3,Magenta,None,0,0,1,15:50,./completed_changuitos/montage_zmjoq_33.19_28.79.jpg,left,0,0,0,0,,,,,0,1,1,1,,,,,,,,,0,0,0,0,0,5,5,5,,,,,,,,,,,,,,,,,,,,,,,,,,,,,,,,,142.37879842499387,142.87871360700228,None,1,142.37879842499387,142.37879842499387,,,,,,,,,,,,,,,,,,,,,,,,,,,,,,,,,,,,,,,,,,,,,,gabiO,001,a,2019_Oct_10_1226,Experimento,3.2.3,60.16179709135863,
8,14,14,999,0.5,0:10,3,Blue,['space'],0,0,1,15:50,./completed_changuitos/montage_zmjoq_33.19_28.79.jpg,left,0,0,0,0,,,,,0,1,1,1,,,,,,,,,0,0,0,0,0,6,6,6,,,,,,,,,,,,,,,,,,,,,,,,,,,,,,,,,144.37808648799546,144.87761654199858,None,0,144.37808648799546,144.37808648799546,,,,,,,,,,,,,,,,,,,,,,,,,,,,,,,,,,,,,,,,,,,,,,gabiO,001,a,2019_Oct_10_1226,Experimento,3.2.3,60.16179709135863,
8,14,14,999,0.5,0:10,3,Cyan,None,0,0,1,15:50,./completed_changuitos/montage_zmjoq_33.19_28.79.jpg,left,0,0,0,0,,,,,0,1,1,1,,,,,,,,,0,0,0,0,0,7,7,7,,,,,,,,,,,,,,,,,,,,,,,,,,,,,,,,,146.3774805980007,None,None,1,146.3774805980007,None,,,,,,,,,,,,,,,,,,,,,,,,,,,,,,,,,,,,,,,,,,,,,,gabiO,001,a,2019_Oct_10_1226,Experimento,3.2.3,60.16179709135863,
8,14,14,999,0.5,0:10,3,Yellow,None,0,0,1,15:50,./completed_changuitos/montage_zmjoq_33.19_28.79.jpg,left,0,0,0,0,,,,,0,1,1,1,,,,,,,,,0,0,0,0,0,8,8,8,,,,,,,,,,,,,,,,,,,,,,,,,,,,,,,,,146.3774805980007,None,None,1,146.3774805980007,None,,,,,,,,,,,,,,,,,,,,,,,,,,,,,,,,,,,,,,,,,,,,,,gabiO,001,a,2019_Oct_10_1226,Experimento,3.2.3,60.16179709135863,
8,14,14,999,0.5,0:10,3,Cyan,None,0,0,1,15:50,./completed_changuitos/montage_zmjoq_33.19_28.79.jpg,left,0,0,0,0,,,,,0,1,1,1,,,,,,,,,0,0,0,0,0,9,9,9,,,,,,,,,,,,,,,,,,,,,,,,,,,,,,,,,146.3774805980007,None,None,1,146.3774805980007,None,,,,,,,,,,,,,,,,,,,,,,,,,,,,,,,,,,,,,,,,,,,,,,gabiO,001,a,2019_Oct_10_1226,Experimento,3.2.3,60.16179709135863,
8,14,14,999,0.5,0:10,3,Blue,None,0,0,1,15:50,./completed_changuitos/montage_zmjoq_33.19_28.79.jpg,left,0,0,0,0,,,,,0,1,1,1,,,,,,,,,0,0,0,0,0,10,10,10,,,,,,,,,,,,,,,,,,,,,,,,,,,,,,,,,146.3774805980007,None,None,1,146.3774805980007,None,,,,,,,,,,,,,,,,,,,,,,,,,,,,,,,,,,,,,,,,,,,,,,gabiO,001,a,2019_Oct_10_1226,Experimento,3.2.3,60.16179709135863,
8,14,14,999,0.5,0:10,3,Cyan,['space'],0,0,1,15:50,./completed_changuitos/montage_zmjoq_33.19_28.79.jpg,left,0,0,0,0,,,,,0,1,1,1,,,,,,,,,0,0,0,0,0,11,11,11,,,,,,,,,,,,,,,,,,,,,,,,,,,,,,,,,146.39414127100025,None,None,0,146.39414127100025,None,,,,,,,,,,,,,,,,,,,,,,,,,,,,,,,,,,,,,,,,,,,,,,gabiO,001,a,2019_Oct_10_1226,Experimento,3.2.3,60.16179709135863,
8,14,14,999,0.5,0:10,3,Magenta,None,0,0,1,15:50,./completed_changuitos/montage_zmjoq_33.19_28.79.jpg,left,0,0,0,0,,,,,0,1,1,1,,,,,,,,,0,0,0,0,0,12,12,12,,,,,,,,,,,,,,,,,,,,,,,,,,,,,,,,,146.39414127100025,None,None,1,146.39414127100025,None,,,,,,,,,,,,,,,,,,,,,,,,,,,,,,,,,,,,,,,,,,,,,,gabiO,001,a,2019_Oct_10_1226,Experimento,3.2.3,60.16179709135863,
8,14,14,999,0.5,0:10,3,Red,None,0,0,1,15:50,./completed_changuitos/montage_zmjoq_33.19_28.79.jpg,left,0,0,0,0,,,,,0,1,1,1,,,,,,,,,0,0,0,0,0,13,13,13,,,,,,,,,,,,,,,,,,,,,,,,,,,,,,,,,146.39414127100025,None,None,1,146.39414127100025,None,,,,,,,,,,,,,,,,,,,,,,,,,,,,,,,,,,,,,,,,,,,,,,gabiO,001,a,2019_Oct_10_1226,Experimento,3.2.3,60.16179709135863,
8,14,14,999,0.5,0:10,3,Magenta,['space'],0,0,1,15:50,./completed_changuitos/montage_zmjoq_33.19_28.79.jpg,left,0,0,0,0,,,,,0,1,1,1,,,,,,,,,0,0,0,0,0,14,14,14,,,,,,,,,,,,,,,,,,,,,,,,,,,,,,,,,146.39414127100025,None,None,0,146.39414127100025,None,,,,,,,,,,,,,,,,,,,,,,,,,,,,,,,,,,,,,,,,,,,,,,gabiO,001,a,2019_Oct_10_1226,Experimento,3.2.3,60.16179709135863,
8,14,14,999,0.5,0:10,3,Green,None,0,0,1,15:50,./completed_changuitos/montage_zmjoq_33.19_28.79.jpg,left,0,0,0,0,,,,,0,1,1,1,,,,,,,,,0,0,0,0,0,15,15,15,,,,,,,,,,,,,,,,,,,,,,,,,,,,,,,,,146.39414127100025,None,None,1,146.39414127100025,None,,,,,,,,,,,,,,,,,,,,,,,,,,,,,,,,,,,,,,,,,,,,,,gabiO,001,a,2019_Oct_10_1226,Experimento,3.2.3,60.16179709135863,
8,14,14,999,0.5,0:10,3,Yellow,['space'],0,0,1,15:50,./completed_changuitos/montage_zmjoq_33.19_28.79.jpg,left,0,0,0,0,,,,,0,1,1,1,,,,,,,,,0,0,0,0,0,16,16,16,,,,,,,,,,,,,,,,,,,,,,,,,,,,,,,,,146.39414127100025,None,None,0,146.39414127100025,None,,,,,,,,,,,,,,,,,,,,,,,,,,,,,,,,,,,,,,,,,,,,,,gabiO,001,a,2019_Oct_10_1226,Experimento,3.2.3,60.16179709135863,
8,14,14,999,0.5,0:10,3,Blue,None,0,0,1,15:50,./completed_changuitos/montage_zmjoq_33.19_28.79.jpg,left,0,0,0,0,,,,,0,1,1,1,,,,,,,,,0,0,0,0,0,17,17,17,,,,,,,,,,,,,,,,,,,,,,,,,,,,,,,,,146.41080194399981,None,None,1,146.41080194399981,None,,,,,,,,,,,,,,,,,,,,,,,,,,,,,,,,,,,,,,,,,,,,,,gabiO,001,a,2019_Oct_10_1226,Experimento,3.2.3,60.16179709135863,
8,14,14,999,0.5,0:10,3,Cyan,None,0,0,1,15:50,./completed_changuitos/montage_zmjoq_33.19_28.79.jpg,left,0,0,0,0,,,,,0,1,1,1,,,,,,,,,0,0,0,0,0,18,18,18,,,,,,,,,,,,,,,,,,,,,,,,,,,,,,,,,146.41080194399981,None,None,1,146.41080194399981,None,,,,,,,,,,,,,,,,,,,,,,,,,,,,,,,,,,,,,,,,,,,,,,gabiO,001,a,2019_Oct_10_1226,Experimento,3.2.3,60.16179709135863,
8,14,14,999,0.5,0:10,3,Blue,['space'],0,0,1,15:50,./completed_changuitos/montage_zmjoq_33.19_28.79.jpg,left,0,0,0,0,,,,,0,1,1,1,,,,,,,,,0,0,0,0,0,19,19,19,,,,,,,,,,,,,,,,,,,,,,,,,,,,,,,,,146.41080194399981,None,None,0,146.41080194399981,None,,,,,,,,,,,,,,,,,,,,,,,,,,,,,,,,,,,,,,,,,,,,,,gabiO,001,a,2019_Oct_10_1226,Experimento,3.2.3,60.16179709135863,
8,14,14,999,0.5,0:10,3,Yellow,None,0,0,1,15:50,./completed_changuitos/montage_zmjoq_33.19_28.79.jpg,left,0,0,0,0,,,,,0,1,1,1,,,,,,,,,0,0,0,0,0,20,20,20,,,,,,,,,,,,,,,,,,,,,,,,,,,,,,,,,146.41080194399981,None,None,1,146.41080194399981,None,,,,,,,,,,,,,,,,,,,,,,,,,,,,,,,,,,,,,,,,,,,,,,gabiO,001,a,2019_Oct_10_1226,Experimento,3.2.3,60.16179709135863,
8,14,14,999,0.5,0:10,3,Cyan,None,0,0,1,15:50,./completed_changuitos/montage_zmjoq_33.19_28.79.jpg,left,0,0,0,0,,,,,0,1,1,1,,,,,,,,,0,0,0,0,0,21,21,21,,,,,,,,,,,,,,,,,,,,,,,,,,,,,,,,,146.41080194399981,None,None,1,146.41080194399981,None,,,,,,,,,,,,,,,,,,,,,,,,,,,,,,,,,,,,,,,,,,,,,,gabiO,001,a,2019_Oct_10_1226,Experimento,3.2.3,60.16179709135863,
8,14,14,999,0.5,0:10,3,Yellow,['space'],0,0,1,15:50,./completed_changuitos/montage_zmjoq_33.19_28.79.jpg,left,0,0,0,0,,,,,0,1,1,1,,,,,,,,,0,0,0,0,0,22,22,22,,,,,,,,,,,,,,,,,,,,,,,,,,,,,,,,,146.41080194399981,None,None,0,146.41080194399981,None,,,,,,,,,,,,,,,,,,,,,,,,,,,,,,,,,,,,,,,,,,,,,,gabiO,001,a,2019_Oct_10_1226,Experimento,3.2.3,60.16179709135863,
8,14,14,999,0.5,0:10,3,Magenta,None,0,0,1,15:50,./completed_changuitos/montage_zmjoq_33.19_28.79.jpg,left,0,0,0,0,,,,,0,1,1,1,,,,,,,,,0,0,0,0,0,23,23,23,,,,,,,,,,,,,,,,,,,,,,,,,,,,,,,,,146.41080194399981,None,None,1,146.41080194399981,None,,,,,,,,,,,,,,,,,,,,,,,,,,,,,,,,,,,,,,,,,,,,,,gabiO,001,a,2019_Oct_10_1226,Experimento,3.2.3,60.16179709135863,
8,14,14,999,0.5,0:10,3,Red,None,0,0,1,15:50,./completed_changuitos/montage_zmjoq_33.19_28.79.jpg,left,0,0,0,0,,,,,0,1,1,1,,,,,,,,,0,0,0,0,0,24,24,24,,,,,,,,,,,,,,,,,,,,,,,,,,,,,,,,,146.41080194399981,None,None,1,146.41080194399981,None,,,,,,,,,,,,,,,,,,,,,,,,,,,,,,,,,,,,,,,,,,,,,,gabiO,001,a,2019_Oct_10_1226,Experimento,3.2.3,60.16179709135863,
8,14,14,999,0.5,0:10,3,Magenta,['space'],0,0,1,15:50,./completed_changuitos/montage_zmjoq_33.19_28.79.jpg,left,0,0,0,0,,,,,0,1,1,1,,,,,,,,,0,0,0,0,0,25,25,25,,,,,,,,,,,,,,,,,,,,,,,,,,,,,,,,,146.41080194399981,None,None,0,146.41080194399981,None,,,,,,,,,,,,,,,,,,,,,,,,,,,,,,,,,,,,,,,,,,,,,,gabiO,001,a,2019_Oct_10_1226,Experimento,3.2.3,60.16179709135863,
8,14,14,999,0.5,0:10,3,Red,['space'],0,0,1,15:50,./completed_changuitos/montage_zmjoq_33.19_28.79.jpg,left,0,0,0,0,,,,,0,1,1,1,,,,,,,,,0,0,0,0,0,26,26,26,,,,,,,,,,,,,,,,,,,,,,,,,,,,,,,,,146.41080194399981,None,None,0,146.41080194399981,None,,,,,,,,,,,,,,,,,,,,,,,,,,,,,,,,,,,,,,,,,,,,,,gabiO,001,a,2019_Oct_10_1226,Experimento,3.2.3,60.16179709135863,
8,14,14,999,0.5,0:10,3,Yellow,None,0,0,1,15:50,./completed_changuitos/montage_zmjoq_33.19_28.79.jpg,left,0,0,0,0,,,,,0,1,1,1,,,,,,,,,0,0,0,0,0,27,27,27,,,,,,,,,,,,,,,,,,,,,,,,,,,,,,,,,146.41080194399981,None,None,1,146.41080194399981,None,,,,,,,,,,,,,,,,,,,,,,,,,,,,,,,,,,,,,,,,,,,,,,gabiO,001,a,2019_Oct_10_1226,Experimento,3.2.3,60.16179709135863,
8,14,14,999,0.5,0:10,3,Cyan,None,0,0,1,15:50,./completed_changuitos/montage_zmjoq_33.19_28.79.jpg,left,0,0,0,0,,,,,0,1,1,1,,,,,,,,,0,0,0,0,0,28,28,28,,,,,,,,,,,,,,,,,,,,,,,,,,,,,,,,,146.41080194399981,None,None,1,146.41080194399981,None,,,,,,,,,,,,,,,,,,,,,,,,,,,,,,,,,,,,,,,,,,,,,,gabiO,001,a,2019_Oct_10_1226,Experimento,3.2.3,60.16179709135863,
8,14,14,999,0.5,0:10,3,Green,None,0,0,1,15:50,./completed_changuitos/montage_zmjoq_33.19_28.79.jpg,left,0,0,0,0,,,,,0,1,1,1,,,,,,,,,0,0,0,0,0,29,29,29,,,,,,,,,,,,,,,,,,,,,,,,,,,,,,,,,146.41080194399981,None,None,1,146.41080194399981,None,,,,,,,,,,,,,,,,,,,,,,,,,,,,,,,,,,,,,,,,,,,,,,gabiO,001,a,2019_Oct_10_1226,Experimento,3.2.3,60.16179709135863,
8,14,14,999,0.5,0:10,3,White,None,0,0,1,15:50,./completed_changuitos/montage_zmjoq_33.19_28.79.jpg,left,0,0,0,0,,,,,0,1,1,1,,,,,,,,,0,0,0,0,0,30,30,30,,,,,,,,,,,,,,,,,,,,,,,,,,,,,,,,,146.4274626169994,None,None,1,146.4274626169994,None,,,,,,,,,,,,,,,,,,,,,,,,,,,,,,,,,,,,,,,,,,,,,,gabiO,001,a,2019_Oct_10_1226,Experimento,3.2.3,60.16179709135863,
8,14,14,999,0.5,0:10,3,Green,['space'],0,0,1,15:50,./completed_changuitos/montage_zmjoq_33.19_28.79.jpg,left,0,0,0,0,,,,,0,1,1,1,,,,,,,,,0,0,0,0,0,31,31,31,,,,,,,,,,,,,,,,,,,,,,,,,,,,,,,,,146.4274626169994,None,None,0,146.4274626169994,None,,,,,,,,,,,,,,,,,,,,,,,,,,,,,,,,,,,,,,,,,,,,,,gabiO,001,a,2019_Oct_10_1226,Experimento,3.2.3,60.16179709135863,
8,14,14,999,0.5,0:10,3,Red,None,0,0,1,15:50,./completed_changuitos/montage_zmjoq_33.19_28.79.jpg,left,0,0,0,0,,,,,0,1,1,1,,,,,,,,,0,0,0,0,0,32,32,32,,,,,,,,,,,,,,,,,,,,,,,,,,,,,,,,,146.4274626169994,None,None,1,146.4274626169994,None,,,,,,,,,,,,,,,,,,,,,,,,,,,,,,,,,,,,,,,,,,,,,,gabiO,001,a,2019_Oct_10_1226,Experimento,3.2.3,60.16179709135863,
8,14,14,999,0.5,0:10,3,Blue,None,0,0,1,15:50,./completed_changuitos/montage_zmjoq_33.19_28.79.jpg,left,0,0,0,0,,,,,0,1,1,1,,,,,,,,,0,0,0,0,0,33,33,33,,,,,,,,,,,,,,,,,,,,,,,,,,,,,,,,,146.4274626169994,None,None,1,146.4274626169994,None,,,,,,,,,,,,,,,,,,,,,,,,,,,,,,,,,,,,,,,,,,,,,,gabiO,001,a,2019_Oct_10_1226,Experimento,3.2.3,60.16179709135863,
8,14,14,999,0.5,0:10,3,Green,None,0,0,1,15:50,./completed_changuitos/montage_zmjoq_33.19_28.79.jpg,left,0,0,0,0,,,,,0,1,1,1,,,,,,,,,0,0,0,0,0,34,34,34,,,,,,,,,,,,,,,,,,,,,,,,,,,,,,,,,146.4274626169994,None,None,1,146.4274626169994,None,,,,,,,,,,,,,,,,,,,,,,,,,,,,,,,,,,,,,,,,,,,,,,gabiO,001,a,2019_Oct_10_1226,Experimento,3.2.3,60.16179709135863,
8,14,14,999,0.5,0:10,3,,,0,0,1,15:50,./completed_changuitos/montage_zmjoq_33.19_28.79.jpg,left,0,0,0,0,,,,,0,1,1,1,,,,,,,,,0,0,0,0,,,,,,,,,,,,,,,,,,,,,,,,,,,,,,,,,,,,,,,,,,,146.46339571199496,None,right,0,2.312221991000115,146.46339571199496,None,146.46339571199496,None,,,,,,,,,,,,,,,,,,,,,,,,,,,,,,,,,,,,,gabiO,001,a,2019_Oct_10_1226,Experimento,3.2.3,60.16179709135863,
8,14,14,999,0.5,0:10,3,,,0,0,1,15:50,,,0,0,0,0,,,,,0,1,1,1,,,,,,,,,,,,,,,,,,,,,,,,,,,,,,,,,,,,,,,,,,,,,,,,,,,,,,,,,,,,,,,,,,,,,,,,,,,,,,,,,,,,,,,,,,,,,,,,,,,,gabiO,001,a,2019_Oct_10_1226,Experimento,3.2.3,60.16179709135863,
8,14,14,999,0.5,0:10,3,,,0,1,0,19:50,./completed_changuitos/montage_xgmhf_63.15_53.49.jpg,left,0,0,0,0,,,,,0,2,2,2,,,,,0,0,0,0,,,,,,,,,,,,,,,,,,,,,,148.92346755799372,150.92557286599185,150.92557286599185,158.93984395399457,158.93984395399457,172.95175241099787,left,1,1.3164574240072398,172.95175241099787,None,172.95175241099787,None,172.95175241099787,None,,,,,,,,,,,,,,,,,,,,,,,,,,,,,,,,,,,,,,,,,,,,,,,,,,,,,,,,gabiO,001,a,2019_Oct_10_1226,Experimento,3.2.3,60.16179709135863,
8,14,14,999,0.5,0:10,3,,,0,1,0,19:50,,,0,0,0,0,,,,,0,2,2,2,,,,,,,,,,,,,,,,,,,,,,,,,,,,,,,,,,,,,,,,,,,,,,,,,,,,,,,,,,,,,,,,,,,,,,,,,,,,,,,,,,,,,,,,,,,,,,,,,,,,gabiO,001,a,2019_Oct_10_1226,Experimento,3.2.3,60.16179709135863,
8,14,14,999,0.5,0:10,3,Magenta,None,0,0,1,20:50,./completed_changuitos/montage_slatc_124.15_146.59.jpg,right,0,0,0,0,,,,,0,3,3,3,,,,,,,,,0,0,0,0,0,0,0,0,,,,,,,,,,,,,,,,,,,,,,,,,,,,,174.40415407299588,176.38387107300514,176.38387107300514,None,184.39608178999333,184.89722988699214,None,1,184.39608178999333,None,,,,,,,,,,,,,,,,,,,,,,,,,,,,,,,,,,,,,,,,,,,,,,gabiO,001,a,2019_Oct_10_1226,Experimento,3.2.3,60.16179709135863,
8,14,14,999,0.5,0:10,3,Blue,['space'],0,0,1,20:50,./completed_changuitos/montage_slatc_124.15_146.59.jpg,right,0,0,0,0,,,,,0,3,3,3,,,,,,,,,0,0,0,0,0,1,1,1,,,,,,,,,,,,,,,,,,,,,,,,,,,,,,,,,186.39708376899944,186.89716151000175,None,0,186.39708376899944,186.39708376899944,,,,,,,,,,,,,,,,,,,,,,,,,,,,,,,,,,,,,,,,,,,,,,gabiO,001,a,2019_Oct_10_1226,Experimento,3.2.3,60.16179709135863,
8,14,14,999,0.5,0:10,3,Cyan,None,0,0,1,20:50,./completed_changuitos/montage_slatc_124.15_146.59.jpg,right,0,0,0,0,,,,,0,3,3,3,,,,,,,,,0,0,0,0,0,2,2,2,,,,,,,,,,,,,,,,,,,,,,,,,,,,,,,,,188.39643906299898,188.89629335100472,None,1,188.39643906299898,188.39643906299898,,,,,,,,,,,,,,,,,,,,,,,,,,,,,,,,,,,,,,,,,,,,,,gabiO,001,a,2019_Oct_10_1226,Experimento,3.2.3,60.16179709135863,
8,14,14,999,0.5,0:10,3,Yellow,None,0,0,1,20:50,./completed_changuitos/montage_slatc_124.15_146.59.jpg,right,0,0,0,0,,,,,0,3,3,3,,,,,,,,,0,0,0,0,0,3,3,3,,,,,,,,,,,,,,,,,,,,,,,,,,,,,,,,,190.39569862799544,190.89555707399268,None,1,190.39569862799544,190.39569862799544,,,,,,,,,,,,,,,,,,,,,,,,,,,,,,,,,,,,,,,,,,,,,,gabiO,001,a,2019_Oct_10_1226,Experimento,3.2.3,60.16179709135863,
8,14,14,999,0.5,0:10,3,Cyan,None,0,0,1,20:50,./completed_changuitos/montage_slatc_124.15_146.59.jpg,right,0,0,0,0,,,,,0,3,3,3,,,,,,,,,0,0,0,0,0,4,4,4,,,,,,,,,,,,,,,,,,,,,,,,,,,,,,,,,192.39471143299306,192.894942222003,['return'],0,192.39471143299306,192.39471143299306,,,,,,,,,,[1.0833122299954994],,,,,,,,,,,,,,,,,,,,,,,,,,,,,,,,,,,,gabiO,001,a,2019_Oct_10_1226,Experimento,3.2.3,60.16179709135863,
8,14,14,999,0.5,0:10,3,Blue,None,0,0,1,20:50,./completed_changuitos/montage_slatc_124.15_146.59.jpg,right,0,0,0,0,,,,,0,3,3,3,,,,,,,,,0,0,0,0,0,5,5,5,,,,,,,,,,,,,,,,,,,,,,,,,,,,,,,,,194.39405612299743,194.894215014996,None,1,194.39405612299743,194.39405612299743,,,,,,,,,,,,,,,,,,,,,,,,,,,,,,,,,,,,,,,,,,,,,,gabiO,001,a,2019_Oct_10_1226,Experimento,3.2.3,60.16179709135863,
8,14,14,999,0.5,0:10,3,Cyan,['space'],0,0,1,20:50,./completed_changuitos/montage_slatc_124.15_146.59.jpg,right,0,0,0,0,,,,,0,3,3,3,,,,,,,,,0,0,0,0,0,6,6,6,,,,,,,,,,,,,,,,,,,,,,,,,,,,,,,,,196.39332931999525,196.89317783199658,None,0,196.39332931999525,196.39332931999525,,,,,,,,,,,,,,,,,,,,,,,,,,,,,,,,,,,,,,,,,,,,,,gabiO,001,a,2019_Oct_10_1226,Experimento,3.2.3,60.16179709135863,
8,14,14,999,0.5,0:10,3,Magenta,None,0,0,1,20:50,./completed_changuitos/montage_slatc_124.15_146.59.jpg,right,0,0,0,0,,,,,0,3,3,3,,,,,,,,,0,0,0,0,0,7,7,7,,,,,,,,,,,,,,,,,,,,,,,,,,,,,,,,,198.39304630799742,None,None,1,198.39304630799742,None,,,,,,,,,,,,,,,,,,,,,,,,,,,,,,,,,,,,,,,,,,,,,,gabiO,001,a,2019_Oct_10_1226,Experimento,3.2.3,60.16179709135863,
8,14,14,999,0.5,0:10,3,Red,None,0,0,1,20:50,./completed_changuitos/montage_slatc_124.15_146.59.jpg,right,0,0,0,0,,,,,0,3,3,3,,,,,,,,,0,0,0,0,0,8,8,8,,,,,,,,,,,,,,,,,,,,,,,,,,,,,,,,,198.39304630799742,None,None,1,198.39304630799742,None,,,,,,,,,,,,,,,,,,,,,,,,,,,,,,,,,,,,,,,,,,,,,,gabiO,001,a,2019_Oct_10_1226,Experimento,3.2.3,60.16179709135863,
8,14,14,999,0.5,0:10,3,Magenta,['space'],0,0,1,20:50,./completed_changuitos/montage_slatc_124.15_146.59.jpg,right,0,0,0,0,,,,,0,3,3,3,,,,,,,,,0,0,0,0,0,9,9,9,,,,,,,,,,,,,,,,,,,,,,,,,,,,,,,,,198.39304630799742,None,None,0,198.39304630799742,None,,,,,,,,,,,,,,,,,,,,,,,,,,,,,,,,,,,,,,,,,,,,,,gabiO,001,a,2019_Oct_10_1226,Experimento,3.2.3,60.16179709135863,
8,14,14,999,0.5,0:10,3,Green,None,0,0,1,20:50,./completed_changuitos/montage_slatc_124.15_146.59.jpg,right,0,0,0,0,,,,,0,3,3,3,,,,,,,,,0,0,0,0,0,10,10,10,,,,,,,,,,,,,,,,,,,,,,,,,,,,,,,,,198.39304630799742,None,None,1,198.39304630799742,None,,,,,,,,,,,,,,,,,,,,,,,,,,,,,,,,,,,,,,,,,,,,,,gabiO,001,a,2019_Oct_10_1226,Experimento,3.2.3,60.16179709135863,
8,14,14,999,0.5,0:10,3,Yellow,['space'],0,0,1,20:50,./completed_changuitos/montage_slatc_124.15_146.59.jpg,right,0,0,0,0,,,,,0,3,3,3,,,,,,,,,0,0,0,0,0,11,11,11,,,,,,,,,,,,,,,,,,,,,,,,,,,,,,,,,198.409706980997,None,None,0,198.409706980997,None,,,,,,,,,,,,,,,,,,,,,,,,,,,,,,,,,,,,,,,,,,,,,,gabiO,001,a,2019_Oct_10_1226,Experimento,3.2.3,60.16179709135863,
8,14,14,999,0.5,0:10,3,Blue,None,0,0,1,20:50,./completed_changuitos/montage_slatc_124.15_146.59.jpg,right,0,0,0,0,,,,,0,3,3,3,,,,,,,,,0,0,0,0,0,12,12,12,,,,,,,,,,,,,,,,,,,,,,,,,,,,,,,,,198.409706980997,None,None,1,198.409706980997,None,,,,,,,,,,,,,,,,,,,,,,,,,,,,,,,,,,,,,,,,,,,,,,gabiO,001,a,2019_Oct_10_1226,Experimento,3.2.3,60.16179709135863,
8,14,14,999,0.5,0:10,3,Cyan,None,0,0,1,20:50,./completed_changuitos/montage_slatc_124.15_146.59.jpg,right,0,0,0,0,,,,,0,3,3,3,,,,,,,,,0,0,0,0,0,13,13,13,,,,,,,,,,,,,,,,,,,,,,,,,,,,,,,,,198.409706980997,None,None,1,198.409706980997,None,,,,,,,,,,,,,,,,,,,,,,,,,,,,,,,,,,,,,,,,,,,,,,gabiO,001,a,2019_Oct_10_1226,Experimento,3.2.3,60.16179709135863,
8,14,14,999,0.5,0:10,3,Blue,['space'],0,0,1,20:50,./completed_changuitos/montage_slatc_124.15_146.59.jpg,right,0,0,0,0,,,,,0,3,3,3,,,,,,,,,0,0,0,0,0,14,14,14,,,,,,,,,,,,,,,,,,,,,,,,,,,,,,,,,198.409706980997,None,None,0,198.409706980997,None,,,,,,,,,,,,,,,,,,,,,,,,,,,,,,,,,,,,,,,,,,,,,,gabiO,001,a,2019_Oct_10_1226,Experimento,3.2.3,60.16179709135863,
8,14,14,999,0.5,0:10,3,Yellow,None,0,0,1,20:50,./completed_changuitos/montage_slatc_124.15_146.59.jpg,right,0,0,0,0,,,,,0,3,3,3,,,,,,,,,0,0,0,0,0,15,15,15,,,,,,,,,,,,,,,,,,,,,,,,,,,,,,,,,198.409706980997,None,None,1,198.409706980997,None,,,,,,,,,,,,,,,,,,,,,,,,,,,,,,,,,,,,,,,,,,,,,,gabiO,001,a,2019_Oct_10_1226,Experimento,3.2.3,60.16179709135863,
8,14,14,999,0.5,0:10,3,Cyan,None,0,0,1,20:50,./completed_changuitos/montage_slatc_124.15_146.59.jpg,right,0,0,0,0,,,,,0,3,3,3,,,,,,,,,0,0,0,0,0,16,16,16,,,,,,,,,,,,,,,,,,,,,,,,,,,,,,,,,198.409706980997,None,None,1,198.409706980997,None,,,,,,,,,,,,,,,,,,,,,,,,,,,,,,,,,,,,,,,,,,,,,,gabiO,001,a,2019_Oct_10_1226,Experimento,3.2.3,60.16179709135863,
8,14,14,999,0.5,0:10,3,Yellow,['space'],0,0,1,20:50,./completed_changuitos/montage_slatc_124.15_146.59.jpg,right,0,0,0,0,,,,,0,3,3,3,,,,,,,,,0,0,0,0,0,17,17,17,,,,,,,,,,,,,,,,,,,,,,,,,,,,,,,,,198.42636765399655,None,None,0,198.42636765399655,None,,,,,,,,,,,,,,,,,,,,,,,,,,,,,,,,,,,,,,,,,,,,,,gabiO,001,a,2019_Oct_10_1226,Experimento,3.2.3,60.16179709135863,
8,14,14,999,0.5,0:10,3,Magenta,None,0,0,1,20:50,./completed_changuitos/montage_slatc_124.15_146.59.jpg,right,0,0,0,0,,,,,0,3,3,3,,,,,,,,,0,0,0,0,0,18,18,18,,,,,,,,,,,,,,,,,,,,,,,,,,,,,,,,,198.42636765399655,None,None,1,198.42636765399655,None,,,,,,,,,,,,,,,,,,,,,,,,,,,,,,,,,,,,,,,,,,,,,,gabiO,001,a,2019_Oct_10_1226,Experimento,3.2.3,60.16179709135863,
8,14,14,999,0.5,0:10,3,Red,None,0,0,1,20:50,./completed_changuitos/montage_slatc_124.15_146.59.jpg,right,0,0,0,0,,,,,0,3,3,3,,,,,,,,,0,0,0,0,0,19,19,19,,,,,,,,,,,,,,,,,,,,,,,,,,,,,,,,,198.42636765399655,None,None,1,198.42636765399655,None,,,,,,,,,,,,,,,,,,,,,,,,,,,,,,,,,,,,,,,,,,,,,,gabiO,001,a,2019_Oct_10_1226,Experimento,3.2.3,60.16179709135863,
8,14,14,999,0.5,0:10,3,Magenta,['space'],0,0,1,20:50,./completed_changuitos/montage_slatc_124.15_146.59.jpg,right,0,0,0,0,,,,,0,3,3,3,,,,,,,,,0,0,0,0,0,20,20,20,,,,,,,,,,,,,,,,,,,,,,,,,,,,,,,,,198.42636765399655,None,None,0,198.42636765399655,None,,,,,,,,,,,,,,,,,,,,,,,,,,,,,,,,,,,,,,,,,,,,,,gabiO,001,a,2019_Oct_10_1226,Experimento,3.2.3,60.16179709135863,
8,14,14,999,0.5,0:10,3,Red,['space'],0,0,1,20:50,./completed_changuitos/montage_slatc_124.15_146.59.jpg,right,0,0,0,0,,,,,0,3,3,3,,,,,,,,,0,0,0,0,0,21,21,21,,,,,,,,,,,,,,,,,,,,,,,,,,,,,,,,,198.42636765399655,None,None,0,198.42636765399655,None,,,,,,,,,,,,,,,,,,,,,,,,,,,,,,,,,,,,,,,,,,,,,,gabiO,001,a,2019_Oct_10_1226,Experimento,3.2.3,60.16179709135863,
8,14,14,999,0.5,0:10,3,Yellow,None,0,0,1,20:50,./completed_changuitos/montage_slatc_124.15_146.59.jpg,right,0,0,0,0,,,,,0,3,3,3,,,,,,,,,0,0,0,0,0,22,22,22,,,,,,,,,,,,,,,,,,,,,,,,,,,,,,,,,198.42636765399655,None,None,1,198.42636765399655,None,,,,,,,,,,,,,,,,,,,,,,,,,,,,,,,,,,,,,,,,,,,,,,gabiO,001,a,2019_Oct_10_1226,Experimento,3.2.3,60.16179709135863,
8,14,14,999,0.5,0:10,3,Cyan,None,0,0,1,20:50,./completed_changuitos/montage_slatc_124.15_146.59.jpg,right,0,0,0,0,,,,,0,3,3,3,,,,,,,,,0,0,0,0,0,23,23,23,,,,,,,,,,,,,,,,,,,,,,,,,,,,,,,,,198.42636765399655,None,None,1,198.42636765399655,None,,,,,,,,,,,,,,,,,,,,,,,,,,,,,,,,,,,,,,,,,,,,,,gabiO,001,a,2019_Oct_10_1226,Experimento,3.2.3,60.16179709135863,
8,14,14,999,0.5,0:10,3,Green,None,0,0,1,20:50,./completed_changuitos/montage_slatc_124.15_146.59.jpg,right,0,0,0,0,,,,,0,3,3,3,,,,,,,,,0,0,0,0,0,24,24,24,,,,,,,,,,,,,,,,,,,,,,,,,,,,,,,,,198.42636765399655,None,None,1,198.42636765399655,None,,,,,,,,,,,,,,,,,,,,,,,,,,,,,,,,,,,,,,,,,,,,,,gabiO,001,a,2019_Oct_10_1226,Experimento,3.2.3,60.16179709135863,
8,14,14,999,0.5,0:10,3,White,None,0,0,1,20:50,./completed_changuitos/montage_slatc_124.15_146.59.jpg,right,0,0,0,0,,,,,0,3,3,3,,,,,,,,,0,0,0,0,0,25,25,25,,,,,,,,,,,,,,,,,,,,,,,,,,,,,,,,,198.42636765399655,None,None,1,198.42636765399655,None,,,,,,,,,,,,,,,,,,,,,,,,,,,,,,,,,,,,,,,,,,,,,,gabiO,001,a,2019_Oct_10_1226,Experimento,3.2.3,60.16179709135863,
8,14,14,999,0.5,0:10,3,Green,['space'],0,0,1,20:50,./completed_changuitos/montage_slatc_124.15_146.59.jpg,right,0,0,0,0,,,,,0,3,3,3,,,,,,,,,0,0,0,0,0,26,26,26,,,,,,,,,,,,,,,,,,,,,,,,,,,,,,,,,198.42636765399655,None,None,0,198.42636765399655,None,,,,,,,,,,,,,,,,,,,,,,,,,,,,,,,,,,,,,,,,,,,,,,gabiO,001,a,2019_Oct_10_1226,Experimento,3.2.3,60.16179709135863,
8,14,14,999,0.5,0:10,3,Red,None,0,0,1,20:50,./completed_changuitos/montage_slatc_124.15_146.59.jpg,right,0,0,0,0,,,,,0,3,3,3,,,,,,,,,0,0,0,0,0,27,27,27,,,,,,,,,,,,,,,,,,,,,,,,,,,,,,,,,198.42636765399655,None,None,1,198.42636765399655,None,,,,,,,,,,,,,,,,,,,,,,,,,,,,,,,,,,,,,,,,,,,,,,gabiO,001,a,2019_Oct_10_1226,Experimento,3.2.3,60.16179709135863,
8,14,14,999,0.5,0:10,3,Blue,None,0,0,1,20:50,./completed_changuitos/montage_slatc_124.15_146.59.jpg,right,0,0,0,0,,,,,0,3,3,3,,,,,,,,,0,0,0,0,0,28,28,28,,,,,,,,,,,,,,,,,,,,,,,,,,,,,,,,,198.42636765399655,None,None,1,198.42636765399655,None,,,,,,,,,,,,,,,,,,,,,,,,,,,,,,,,,,,,,,,,,,,,,,gabiO,001,a,2019_Oct_10_1226,Experimento,3.2.3,60.16179709135863,
8,14,14,999,0.5,0:10,3,Green,None,0,0,1,20:50,./completed_changuitos/montage_slatc_124.15_146.59.jpg,right,0,0,0,0,,,,,0,3,3,3,,,,,,,,,0,0,0,0,0,29,29,29,,,,,,,,,,,,,,,,,,,,,,,,,,,,,,,,,198.42636765399655,None,None,1,198.42636765399655,None,,,,,,,,,,,,,,,,,,,,,,,,,,,,,,,,,,,,,,,,,,,,,,gabiO,001,a,2019_Oct_10_1226,Experimento,3.2.3,60.16179709135863,
8,14,14,999,0.5,0:10,3,,,0,0,1,20:50,./completed_changuitos/montage_slatc_124.15_146.59.jpg,right,0,0,0,0,,,,,0,3,3,3,,,,,,,,,0,0,0,0,,,,,,,,,,,,,,,,,,,,,,,,,,,,,,,,,,,,,,,,,,,198.4729956730007,None,right,1,1.5523384650005028,198.4729956730007,None,198.4729956730007,None,,,,,,,,,,,,,,,,,,,,,,,,,,,,,,,,,,,,,gabiO,001,a,2019_Oct_10_1226,Experimento,3.2.3,60.16179709135863,
8,14,14,999,0.5,0:10,3,,,0,0,1,20:50,,,0,0,0,0,,,,,0,3,3,3,,,,,,,,,,,,,,,,,,,,,,,,,,,,,,,,,,,,,,,,,,,,,,,,,,,,,,,,,,,,,,,,,,,,,,,,,,,,,,,,,,,,,,,,,,,,,,,,,,,,gabiO,001,a,2019_Oct_10_1226,Experimento,3.2.3,60.16179709135863,
8,14,14,999,0.5,0:10,3,,,0,1,0,25:50,./completed_changuitos/montage_rxxuf_22.82_26.07.jpg,right,0,0,0,0,,,,,0,4,4,4,,,,,0,0,0,0,,,,,,,,,,,,,,,,,,,,,,200.14863052999135,201.72523262299364,201.72523262299364,209.73881782600074,209.73881782600074,223.7510295779939,right,1,1.033242819001316,223.7510295779939,None,223.7510295779939,None,223.7510295779939,None,,,,,,,,,,,,,,,,,,,,,,,,,,,,,,,,,,,,,,,,,,,,,,,,,,,,,,,,gabiO,001,a,2019_Oct_10_1226,Experimento,3.2.3,60.16179709135863,
8,14,14,999,0.5,0:10,3,,,0,1,0,25:50,,,0,0,0,0,,,,,0,4,4,4,,,,,,,,,,,,,,,,,,,,,,,,,,,,,,,,,,,,,,,,,,,,,,,,,,,,,,,,,,,,,,,,,,,,,,,,,,,,,,,,,,,,,,,,,,,,,,,,,,,,gabiO,001,a,2019_Oct_10_1226,Experimento,3.2.3,60.16179709135863,
8,14,14,999,0.5,0:10,3,Red,None,0,0,1,28:50,./completed_changuitos/montage_khqzc_103.79_119.85.jpg,right,0,0,0,0,,,,,0,5,5,5,,,,,,,,,0,0,0,0,0,0,0,0,,,,,,,,,,,,,,,,,,,,,,,,,,,,,224.92775885200535,226.11690969599294,226.11690969599294,None,234.13762248099374,234.64731945999665,None,1,234.13762248099374,None,,,,,,,,,,,,,,,,,,,,,,,,,,,,,,,,,,,,,,,,,,,,,,gabiO,001,a,2019_Oct_10_1226,Experimento,3.2.3,60.16179709135863,
8,14,14,999,0.5,0:10,3,Magenta,['space'],0,0,1,28:50,./completed_changuitos/montage_khqzc_103.79_119.85.jpg,right,0,0,0,0,,,,,0,5,5,5,,,,,,,,,0,0,0,0,0,1,1,1,,,,,,,,,,,,,,,,,,,,,,,,,,,,,,,,,236.14676658100507,236.64665272699494,None,0,236.14676658100507,236.14676658100507,,,,,,,,,,,,,,,,,,,,,,,,,,,,,,,,,,,,,,,,,,,,,,gabiO,001,a,2019_Oct_10_1226,Experimento,3.2.3,60.16179709135863,
8,14,14,999,0.5,0:10,3,Green,None,0,0,1,28:50,./completed_changuitos/montage_khqzc_103.79_119.85.jpg,right,0,0,0,0,,,,,0,5,5,5,,,,,,,,,0,0,0,0,0,2,2,2,,,,,,,,,,,,,,,,,,,,,,,,,,,,,,,,,238.1457873719919,238.64603740100574,None,1,238.1457873719919,238.1457873719919,,,,,,,,,,,,,,,,,,,,,,,,,,,,,,,,,,,,,,,,,,,,,,gabiO,001,a,2019_Oct_10_1226,Experimento,3.2.3,60.16179709135863,
8,14,14,999,0.5,0:10,3,Yellow,['space'],0,0,1,28:50,./completed_changuitos/montage_khqzc_103.79_119.85.jpg,right,0,0,0,0,,,,,0,5,5,5,,,,,,,,,0,0,0,0,0,3,3,3,,,,,,,,,,,,,,,,,,,,,,,,,,,,,,,,,240.14539016400522,240.6452488950017,None,0,240.14539016400522,240.14539016400522,,,,,,,,,,,,,,,,,,,,,,,,,,,,,,,,,,,,,,,,,,,,,,gabiO,001,a,2019_Oct_10_1226,Experimento,3.2.3,60.16179709135863,
8,14,14,999,0.5,0:10,3,Blue,None,0,0,1,28:50,./completed_changuitos/montage_khqzc_103.79_119.85.jpg,right,0,0,0,0,,,,,0,5,5,5,,,,,,,,,0,0,0,0,0,4,4,4,,,,,,,,,,,,,,,,,,,,,,,,,,,,,,,,,242.144798815003,242.64457855399814,None,1,242.144798815003,242.144798815003,,,,,,,,,,,,,,,,,,,,,,,,,,,,,,,,,,,,,,,,,,,,,,gabiO,001,a,2019_Oct_10_1226,Experimento,3.2.3,60.16179709135863,
8,14,14,999,0.5,0:10,3,Cyan,None,0,0,1,28:50,./completed_changuitos/montage_khqzc_103.79_119.85.jpg,right,0,0,0,0,,,,,0,5,5,5,,,,,,,,,0,0,0,0,0,5,5,5,,,,,,,,,,,,,,,,,,,,,,,,,,,,,,,,,244.14396358300291,244.64349909700104,None,1,244.14396358300291,244.14396358300291,,,,,,,,,,,,,,,,,,,,,,,,,,,,,,,,,,,,,,,,,,,,,,gabiO,001,a,2019_Oct_10_1226,Experimento,3.2.3,60.16179709135863,
8,14,14,999,0.5,0:10,3,Blue,['space'],0,0,1,28:50,./completed_changuitos/montage_khqzc_103.79_119.85.jpg,right,0,0,0,0,,,,,0,5,5,5,,,,,,,,,0,0,0,0,0,6,6,6,,,,,,,,,,,,,,,,,,,,,,,,,,,,,,,,,246.14338085599593,246.64322287699906,None,0,246.14338085599593,246.14338085599593,,,,,,,,,,,,,,,,,,,,,,,,,,,,,,,,,,,,,,,,,,,,,,gabiO,001,a,2019_Oct_10_1226,Experimento,3.2.3,60.16179709135863,
8,14,14,999,0.5,0:10,3,Yellow,None,0,0,1,28:50,./completed_changuitos/montage_khqzc_103.79_119.85.jpg,right,0,0,0,0,,,,,0,5,5,5,,,,,,,,,0,0,0,0,0,7,7,7,,,,,,,,,,,,,,,,,,,,,,,,,,,,,,,,,248.14265421599848,None,None,1,248.14265421599848,None,,,,,,,,,,,,,,,,,,,,,,,,,,,,,,,,,,,,,,,,,,,,,,gabiO,001,a,2019_Oct_10_1226,Experimento,3.2.3,60.16179709135863,
8,14,14,999,0.5,0:10,3,Cyan,None,0,0,1,28:50,./completed_changuitos/montage_khqzc_103.79_119.85.jpg,right,0,0,0,0,,,,,0,5,5,5,,,,,,,,,0,0,0,0,0,8,8,8,,,,,,,,,,,,,,,,,,,,,,,,,,,,,,,,,248.14265421599848,None,None,1,248.14265421599848,None,,,,,,,,,,,,,,,,,,,,,,,,,,,,,,,,,,,,,,,,,,,,,,gabiO,001,a,2019_Oct_10_1226,Experimento,3.2.3,60.16179709135863,
8,14,14,999,0.5,0:10,3,Yellow,['space'],0,0,1,28:50,./completed_changuitos/montage_khqzc_103.79_119.85.jpg,right,0,0,0,0,,,,,0,5,5,5,,,,,,,,,0,0,0,0,0,9,9,9,,,,,,,,,,,,,,,,,,,,,,,,,,,,,,,,,248.14265421599848,None,None,0,248.14265421599848,None,,,,,,,,,,,,,,,,,,,,,,,,,,,,,,,,,,,,,,,,,,,,,,gabiO,001,a,2019_Oct_10_1226,Experimento,3.2.3,60.16179709135863,
8,14,14,999,0.5,0:10,3,Magenta,None,0,0,1,28:50,./completed_changuitos/montage_khqzc_103.79_119.85.jpg,right,0,0,0,0,,,,,0,5,5,5,,,,,,,,,0,0,0,0,0,10,10,10,,,,,,,,,,,,,,,,,,,,,,,,,,,,,,,,,248.14265421599848,None,None,1,248.14265421599848,None,,,,,,,,,,,,,,,,,,,,,,,,,,,,,,,,,,,,,,,,,,,,,,gabiO,001,a,2019_Oct_10_1226,Experimento,3.2.3,60.16179709135863,
8,14,14,999,0.5,0:10,3,Red,None,0,0,1,28:50,./completed_changuitos/montage_khqzc_103.79_119.85.jpg,right,0,0,0,0,,,,,0,5,5,5,,,,,,,,,0,0,0,0,0,11,11,11,,,,,,,,,,,,,,,,,,,,,,,,,,,,,,,,,248.15931488899804,None,None,1,248.15931488899804,None,,,,,,,,,,,,,,,,,,,,,,,,,,,,,,,,,,,,,,,,,,,,,,gabiO,001,a,2019_Oct_10_1226,Experimento,3.2.3,60.16179709135863,
8,14,14,999,0.5,0:10,3,Magenta,['space'],0,0,1,28:50,./completed_changuitos/montage_khqzc_103.79_119.85.jpg,right,0,0,0,0,,,,,0,5,5,5,,,,,,,,,0,0,0,0,0,12,12,12,,,,,,,,,,,,,,,,,,,,,,,,,,,,,,,,,248.15931488899804,None,None,0,248.15931488899804,None,,,,,,,,,,,,,,,,,,,,,,,,,,,,,,,,,,,,,,,,,,,,,,gabiO,001,a,2019_Oct_10_1226,Experimento,3.2.3,60.16179709135863,
8,14,14,999,0.5,0:10,3,Red,['space'],0,0,1,28:50,./completed_changuitos/montage_khqzc_103.79_119.85.jpg,right,0,0,0,0,,,,,0,5,5,5,,,,,,,,,0,0,0,0,0,13,13,13,,,,,,,,,,,,,,,,,,,,,,,,,,,,,,,,,248.15931488899804,None,None,0,248.15931488899804,None,,,,,,,,,,,,,,,,,,,,,,,,,,,,,,,,,,,,,,,,,,,,,,gabiO,001,a,2019_Oct_10_1226,Experimento,3.2.3,60.16179709135863,
8,14,14,999,0.5,0:10,3,Yellow,None,0,0,1,28:50,./completed_changuitos/montage_khqzc_103.79_119.85.jpg,right,0,0,0,0,,,,,0,5,5,5,,,,,,,,,0,0,0,0,0,14,14,14,,,,,,,,,,,,,,,,,,,,,,,,,,,,,,,,,248.15931488899804,None,None,1,248.15931488899804,None,,,,,,,,,,,,,,,,,,,,,,,,,,,,,,,,,,,,,,,,,,,,,,gabiO,001,a,2019_Oct_10_1226,Experimento,3.2.3,60.16179709135863,
8,14,14,999,0.5,0:10,3,Cyan,None,0,0,1,28:50,./completed_changuitos/montage_khqzc_103.79_119.85.jpg,right,0,0,0,0,,,,,0,5,5,5,,,,,,,,,0,0,0,0,0,15,15,15,,,,,,,,,,,,,,,,,,,,,,,,,,,,,,,,,248.15931488899804,None,None,1,248.15931488899804,None,,,,,,,,,,,,,,,,,,,,,,,,,,,,,,,,,,,,,,,,,,,,,,gabiO,001,a,2019_Oct_10_1226,Experimento,3.2.3,60.16179709135863,
8,14,14,999,0.5,0:10,3,Green,None,0,0,1,28:50,./completed_changuitos/montage_khqzc_103.79_119.85.jpg,right,0,0,0,0,,,,,0,5,5,5,,,,,,,,,0,0,0,0,0,16,16,16,,,,,,,,,,,,,,,,,,,,,,,,,,,,,,,,,248.15931488899804,None,None,1,248.15931488899804,None,,,,,,,,,,,,,,,,,,,,,,,,,,,,,,,,,,,,,,,,,,,,,,gabiO,001,a,2019_Oct_10_1226,Experimento,3.2.3,60.16179709135863,
8,14,14,999,0.5,0:10,3,White,None,0,0,1,28:50,./completed_changuitos/montage_khqzc_103.79_119.85.jpg,right,0,0,0,0,,,,,0,5,5,5,,,,,,,,,0,0,0,0,0,17,17,17,,,,,,,,,,,,,,,,,,,,,,,,,,,,,,,,,248.1759755619976,None,None,1,248.1759755619976,None,,,,,,,,,,,,,,,,,,,,,,,,,,,,,,,,,,,,,,,,,,,,,,gabiO,001,a,2019_Oct_10_1226,Experimento,3.2.3,60.16179709135863,
8,14,14,999,0.5,0:10,3,Green,['space'],0,0,1,28:50,./completed_changuitos/montage_khqzc_103.79_119.85.jpg,right,0,0,0,0,,,,,0,5,5,5,,,,,,,,,0,0,0,0,0,18,18,18,,,,,,,,,,,,,,,,,,,,,,,,,,,,,,,,,248.1759755619976,None,None,0,248.1759755619976,None,,,,,,,,,,,,,,,,,,,,,,,,,,,,,,,,,,,,,,,,,,,,,,gabiO,001,a,2019_Oct_10_1226,Experimento,3.2.3,60.16179709135863,
8,14,14,999,0.5,0:10,3,Red,None,0,0,1,28:50,./completed_changuitos/montage_khqzc_103.79_119.85.jpg,right,0,0,0,0,,,,,0,5,5,5,,,,,,,,,0,0,0,0,0,19,19,19,,,,,,,,,,,,,,,,,,,,,,,,,,,,,,,,,248.1759755619976,None,None,1,248.1759755619976,None,,,,,,,,,,,,,,,,,,,,,,,,,,,,,,,,,,,,,,,,,,,,,,gabiO,001,a,2019_Oct_10_1226,Experimento,3.2.3,60.16179709135863,
8,14,14,999,0.5,0:10,3,Blue,None,0,0,1,28:50,./completed_changuitos/montage_khqzc_103.79_119.85.jpg,right,0,0,0,0,,,,,0,5,5,5,,,,,,,,,0,0,0,0,0,20,20,20,,,,,,,,,,,,,,,,,,,,,,,,,,,,,,,,,248.1759755619976,None,None,1,248.1759755619976,None,,,,,,,,,,,,,,,,,,,,,,,,,,,,,,,,,,,,,,,,,,,,,,gabiO,001,a,2019_Oct_10_1226,Experimento,3.2.3,60.16179709135863,
8,14,14,999,0.5,0:10,3,Green,None,0,0,1,28:50,./completed_changuitos/montage_khqzc_103.79_119.85.jpg,right,0,0,0,0,,,,,0,5,5,5,,,,,,,,,0,0,0,0,0,21,21,21,,,,,,,,,,,,,,,,,,,,,,,,,,,,,,,,,248.1759755619976,None,None,1,248.1759755619976,None,,,,,,,,,,,,,,,,,,,,,,,,,,,,,,,,,,,,,,,,,,,,,,gabiO,001,a,2019_Oct_10_1226,Experimento,3.2.3,60.16179709135863,
8,14,14,999,0.5,0:10,3,,,0,0,1,28:50,./completed_changuitos/montage_khqzc_103.79_119.85.jpg,right,0,0,0,0,,,,,0,5,5,5,,,,,,,,,0,0,0,0,,,,,,,,,,,,,,,,,,,,,,,,,,,,,,,,,,,,,,,,,,,248.21703356200305,None,left,0,1.4659840980020817,248.21703356200305,None,248.21703356200305,None,,,,,,,,,,,,,,,,,,,,,,,,,,,,,,,,,,,,,gabiO,001,a,2019_Oct_10_1226,Experimento,3.2.3,60.16179709135863,
8,14,14,999,0.5,0:10,3,,,0,0,1,28:50,,,0,0,0,0,,,,,0,5,5,5,,,,,,,,,,,,,,,,,,,,,,,,,,,,,,,,,,,,,,,,,,,,,,,,,,,,,,,,,,,,,,,,,,,,,,,,,,,,,,,,,,,,,,,,,,,,,,,,,,,,gabiO,001,a,2019_Oct_10_1226,Experimento,3.2.3,60.16179709135863,
8,14,14,999,0.5,0:10,3,,,0,1,0,10:50,./completed_changuitos/montage_rbvmp_35.65_41.19.jpg,right,0,0,0,0,,,,,0,6,6,6,,,,,0,0,0,0,,,,,,,,,,,,,,,,,,,,,,249.82688807499653,250.9080202549958,250.9080202549958,258.922377445997,258.922377445997,272.9342052239954,left,0,0.6003986339928815,272.9342052239954,None,272.9342052239954,None,272.9342052239954,None,,,,,,,,,,,,,,,,,,,,,,,,,,,,,,,,,,,,,,,,,,,,,,,,,,,,,,,,gabiO,001,a,2019_Oct_10_1226,Experimento,3.2.3,60.16179709135863,
8,14,14,999,0.5,0:10,3,,,0,1,0,10:50,,,0,0,0,0,,,,,0,6,6,6,,,,,,,,,,,,,,,,,,,,,,,,,,,,,,,,,,,,,,,,,,,,,,,,,,,,,,,,,,,,,,,,,,,,,,,,,,,,,,,,,,,,,,,,,,,,,,,,,,,,gabiO,001,a,2019_Oct_10_1226,Experimento,3.2.3,60.16179709135863,
8,14,14,999,0.5,0:10,3,Yellow,None,0,0,1,15:50,./completed_changuitos/montage_tdscj_266.45_235.29.jpg,left,0,0,0,0,,,,,0,7,7,7,,,,,,,,,0,0,0,0,0,0,0,0,,,,,,,,,,,,,,,,,,,,,,,,,,,,,273.66803843999514,274.64992398099275,274.64992398099275,None,282.6916594439972,283.1973379999981,None,1,282.6916594439972,None,,,,,,,,,,,,,,,,,,,,,,,,,,,,,,,,,,,,,,,,,,,,,,gabiO,001,a,2019_Oct_10_1226,Experimento,3.2.3,60.16179709135863,
8,14,14,999,0.5,0:10,3,White,['space'],0,0,1,15:50,./completed_changuitos/montage_tdscj_266.45_235.29.jpg,left,0,0,0,0,,,,,0,7,7,7,,,,,,,,,0,0,0,0,0,1,1,1,,,,,,,,,,,,,,,,,,,,,,,,,,,,,,,,,284.69676744200115,285.1967688470031,None,0,284.69676744200115,284.69676744200115,,,,,,,,,,,,,,,,,,,,,,,,,,,,,,,,,,,,,,,,,,,,,,gabiO,001,a,2019_Oct_10_1226,Experimento,3.2.3,60.16179709135863,
8,14,14,999,0.5,0:10,3,Magenta,None,0,0,1,15:50,./completed_changuitos/montage_tdscj_266.45_235.29.jpg,left,0,0,0,0,,,,,0,7,7,7,,,,,,,,,0,0,0,0,0,2,2,2,,,,,,,,,,,,,,,,,,,,,,,,,,,,,,,,,286.69615496999177,287.19600032499875,None,1,286.69615496999177,286.69615496999177,,,,,,,,,,,,,,,,,,,,,,,,,,,,,,,,,,,,,,,,,,,,,,gabiO,001,a,2019_Oct_10_1226,Experimento,3.2.3,60.16179709135863,
8,14,14,999,0.5,0:10,3,Cyan,None,0,0,1,15:50,./completed_changuitos/montage_tdscj_266.45_235.29.jpg,left,0,0,0,0,,,,,0,7,7,7,,,,,,,,,0,0,0,0,0,3,3,3,,,,,,,,,,,,,,,,,,,,,,,,,,,,,,,,,288.69548806600505,289.1954546219931,None,1,288.69548806600505,288.69548806600505,,,,,,,,,,,,,,,,,,,,,,,,,,,,,,,,,,,,,,,,,,,,,,gabiO,001,a,2019_Oct_10_1226,Experimento,3.2.3,60.16179709135863,
8,14,14,999,0.5,0:10,3,Blue,None,0,0,1,15:50,./completed_changuitos/montage_tdscj_266.45_235.29.jpg,left,0,0,0,0,,,,,0,7,7,7,,,,,,,,,0,0,0,0,0,4,4,4,,,,,,,,,,,,,,,,,,,,,,,,,,,,,,,,,290.69484947000456,291.19464444699406,None,1,290.69484947000456,290.69484947000456,,,,,,,,,,,,,,,,,,,,,,,,,,,,,,,,,,,,,,,,,,,,,,gabiO,001,a,2019_Oct_10_1226,Experimento,3.2.3,60.16179709135863,
8,14,14,999,0.5,0:10,3,Magenta,None,0,0,1,15:50,./completed_changuitos/montage_tdscj_266.45_235.29.jpg,left,0,0,0,0,,,,,0,7,7,7,,,,,,,,,0,0,0,0,0,5,5,5,,,,,,,,,,,,,,,,,,,,,,,,,,,,,,,,,292.6951945000037,293.21035758299695,None,1,292.6951945000037,292.6951945000037,,,,,,,,,,,,,,,,,,,,,,,,,,,,,,,,,,,,,,,,,,,,,,gabiO,001,a,2019_Oct_10_1226,Experimento,3.2.3,60.16179709135863,
8,14,14,999,0.5,0:10,3,Blue,['space'],0,0,1,15:50,./completed_changuitos/montage_tdscj_266.45_235.29.jpg,left,0,0,0,0,,,,,0,7,7,7,,,,,,,,,0,0,0,0,0,6,6,6,,,,,,,,,,,,,,,,,,,,,,,,,,,,,,,,,294.7098941489967,295.20992801299144,['return'],0,294.7098941489967,294.7098941489967,,,,,,,,,,[0.8006269329925999],,,,,,,,,,,,,,,,,,,,,,,,,,,,,,,,,,,,gabiO,001,a,2019_Oct_10_1226,Experimento,3.2.3,60.16179709135863,
8,14,14,999,0.5,0:10,3,Cyan,None,0,0,1,15:50,./completed_changuitos/montage_tdscj_266.45_235.29.jpg,left,0,0,0,0,,,,,0,7,7,7,,,,,,,,,0,0,0,0,0,7,7,7,,,,,,,,,,,,,,,,,,,,,,,,,,,,,,,,,296.6760970989941,None,None,1,296.6760970989941,None,,,,,,,,,,,,,,,,,,,,,,,,,,,,,,,,,,,,,,,,,,,,,,gabiO,001,a,2019_Oct_10_1226,Experimento,3.2.3,60.16179709135863,
8,14,14,999,0.5,0:10,3,Yellow,None,0,0,1,15:50,./completed_changuitos/montage_tdscj_266.45_235.29.jpg,left,0,0,0,0,,,,,0,7,7,7,,,,,,,,,0,0,0,0,0,8,8,8,,,,,,,,,,,,,,,,,,,,,,,,,,,,,,,,,296.6760970989941,None,None,1,296.6760970989941,None,,,,,,,,,,,,,,,,,,,,,,,,,,,,,,,,,,,,,,,,,,,,,,gabiO,001,a,2019_Oct_10_1226,Experimento,3.2.3,60.16179709135863,
8,14,14,999,0.5,0:10,3,Cyan,None,0,0,1,15:50,./completed_changuitos/montage_tdscj_266.45_235.29.jpg,left,0,0,0,0,,,,,0,7,7,7,,,,,,,,,0,0,0,0,0,9,9,9,,,,,,,,,,,,,,,,,,,,,,,,,,,,,,,,,296.6760970989941,None,None,1,296.6760970989941,None,,,,,,,,,,,,,,,,,,,,,,,,,,,,,,,,,,,,,,,,,,,,,,gabiO,001,a,2019_Oct_10_1226,Experimento,3.2.3,60.16179709135863,
8,14,14,999,0.5,0:10,3,Blue,None,0,0,1,15:50,./completed_changuitos/montage_tdscj_266.45_235.29.jpg,left,0,0,0,0,,,,,0,7,7,7,,,,,,,,,0,0,0,0,0,10,10,10,,,,,,,,,,,,,,,,,,,,,,,,,,,,,,,,,296.6760970989941,None,None,1,296.6760970989941,None,,,,,,,,,,,,,,,,,,,,,,,,,,,,,,,,,,,,,,,,,,,,,,gabiO,001,a,2019_Oct_10_1226,Experimento,3.2.3,60.16179709135863,
8,14,14,999,0.5,0:10,3,Cyan,['space'],0,0,1,15:50,./completed_changuitos/montage_tdscj_266.45_235.29.jpg,left,0,0,0,0,,,,,0,7,7,7,,,,,,,,,0,0,0,0,0,11,11,11,,,,,,,,,,,,,,,,,,,,,,,,,,,,,,,,,296.6927577719937,None,None,0,296.6927577719937,None,,,,,,,,,,,,,,,,,,,,,,,,,,,,,,,,,,,,,,,,,,,,,,gabiO,001,a,2019_Oct_10_1226,Experimento,3.2.3,60.16179709135863,
8,14,14,999,0.5,0:10,3,Magenta,None,0,0,1,15:50,./completed_changuitos/montage_tdscj_266.45_235.29.jpg,left,0,0,0,0,,,,,0,7,7,7,,,,,,,,,0,0,0,0,0,12,12,12,,,,,,,,,,,,,,,,,,,,,,,,,,,,,,,,,296.6927577719937,None,None,1,296.6927577719937,None,,,,,,,,,,,,,,,,,,,,,,,,,,,,,,,,,,,,,,,,,,,,,,gabiO,001,a,2019_Oct_10_1226,Experimento,3.2.3,60.16179709135863,
8,14,14,999,0.5,0:10,3,Red,None,0,0,1,15:50,./completed_changuitos/montage_tdscj_266.45_235.29.jpg,left,0,0,0,0,,,,,0,7,7,7,,,,,,,,,0,0,0,0,0,13,13,13,,,,,,,,,,,,,,,,,,,,,,,,,,,,,,,,,296.6927577719937,None,None,1,296.6927577719937,None,,,,,,,,,,,,,,,,,,,,,,,,,,,,,,,,,,,,,,,,,,,,,,gabiO,001,a,2019_Oct_10_1226,Experimento,3.2.3,60.16179709135863,
8,14,14,999,0.5,0:10,3,Magenta,['space'],0,0,1,15:50,./completed_changuitos/montage_tdscj_266.45_235.29.jpg,left,0,0,0,0,,,,,0,7,7,7,,,,,,,,,0,0,0,0,0,14,14,14,,,,,,,,,,,,,,,,,,,,,,,,,,,,,,,,,296.6927577719937,None,None,0,296.6927577719937,None,,,,,,,,,,,,,,,,,,,,,,,,,,,,,,,,,,,,,,,,,,,,,,gabiO,001,a,2019_Oct_10_1226,Experimento,3.2.3,60.16179709135863,
8,14,14,999,0.5,0:10,3,Green,None,0,0,1,15:50,./completed_changuitos/montage_tdscj_266.45_235.29.jpg,left,0,0,0,0,,,,,0,7,7,7,,,,,,,,,0,0,0,0,0,15,15,15,,,,,,,,,,,,,,,,,,,,,,,,,,,,,,,,,296.6927577719937,None,None,1,296.6927577719937,None,,,,,,,,,,,,,,,,,,,,,,,,,,,,,,,,,,,,,,,,,,,,,,gabiO,001,a,2019_Oct_10_1226,Experimento,3.2.3,60.16179709135863,
8,14,14,999,0.5,0:10,3,Yellow,['space'],0,0,1,15:50,./completed_changuitos/montage_tdscj_266.45_235.29.jpg,left,0,0,0,0,,,,,0,7,7,7,,,,,,,,,0,0,0,0,0,16,16,16,,,,,,,,,,,,,,,,,,,,,,,,,,,,,,,,,296.7094184449932,None,None,0,296.7094184449932,None,,,,,,,,,,,,,,,,,,,,,,,,,,,,,,,,,,,,,,,,,,,,,,gabiO,001,a,2019_Oct_10_1226,Experimento,3.2.3,60.16179709135863,
8,14,14,999,0.5,0:10,3,Blue,None,0,0,1,15:50,./completed_changuitos/montage_tdscj_266.45_235.29.jpg,left,0,0,0,0,,,,,0,7,7,7,,,,,,,,,0,0,0,0,0,17,17,17,,,,,,,,,,,,,,,,,,,,,,,,,,,,,,,,,296.7094184449932,None,None,1,296.7094184449932,None,,,,,,,,,,,,,,,,,,,,,,,,,,,,,,,,,,,,,,,,,,,,,,gabiO,001,a,2019_Oct_10_1226,Experimento,3.2.3,60.16179709135863,
8,14,14,999,0.5,0:10,3,Cyan,None,0,0,1,15:50,./completed_changuitos/montage_tdscj_266.45_235.29.jpg,left,0,0,0,0,,,,,0,7,7,7,,,,,,,,,0,0,0,0,0,18,18,18,,,,,,,,,,,,,,,,,,,,,,,,,,,,,,,,,296.7094184449932,None,None,1,296.7094184449932,None,,,,,,,,,,,,,,,,,,,,,,,,,,,,,,,,,,,,,,,,,,,,,,gabiO,001,a,2019_Oct_10_1226,Experimento,3.2.3,60.16179709135863,
8,14,14,999,0.5,0:10,3,Blue,['space'],0,0,1,15:50,./completed_changuitos/montage_tdscj_266.45_235.29.jpg,left,0,0,0,0,,,,,0,7,7,7,,,,,,,,,0,0,0,0,0,19,19,19,,,,,,,,,,,,,,,,,,,,,,,,,,,,,,,,,296.7094184449932,None,None,0,296.7094184449932,None,,,,,,,,,,,,,,,,,,,,,,,,,,,,,,,,,,,,,,,,,,,,,,gabiO,001,a,2019_Oct_10_1226,Experimento,3.2.3,60.16179709135863,
8,14,14,999,0.5,0:10,3,Yellow,None,0,0,1,15:50,./completed_changuitos/montage_tdscj_266.45_235.29.jpg,left,0,0,0,0,,,,,0,7,7,7,,,,,,,,,0,0,0,0,0,20,20,20,,,,,,,,,,,,,,,,,,,,,,,,,,,,,,,,,296.7094184449932,None,None,1,296.7094184449932,None,,,,,,,,,,,,,,,,,,,,,,,,,,,,,,,,,,,,,,,,,,,,,,gabiO,001,a,2019_Oct_10_1226,Experimento,3.2.3,60.16179709135863,
8,14,14,999,0.5,0:10,3,Cyan,None,0,0,1,15:50,./completed_changuitos/montage_tdscj_266.45_235.29.jpg,left,0,0,0,0,,,,,0,7,7,7,,,,,,,,,0,0,0,0,0,21,21,21,,,,,,,,,,,,,,,,,,,,,,,,,,,,,,,,,296.7094184449932,None,None,1,296.7094184449932,None,,,,,,,,,,,,,,,,,,,,,,,,,,,,,,,,,,,,,,,,,,,,,,gabiO,001,a,2019_Oct_10_1226,Experimento,3.2.3,60.16179709135863,
8,14,14,999,0.5,0:10,3,Yellow,['space'],0,0,1,15:50,./completed_changuitos/montage_tdscj_266.45_235.29.jpg,left,0,0,0,0,,,,,0,7,7,7,,,,,,,,,0,0,0,0,0,22,22,22,,,,,,,,,,,,,,,,,,,,,,,,,,,,,,,,,296.7094184449932,None,None,0,296.7094184449932,None,,,,,,,,,,,,,,,,,,,,,,,,,,,,,,,,,,,,,,,,,,,,,,gabiO,001,a,2019_Oct_10_1226,Experimento,3.2.3,60.16179709135863,
8,14,14,999,0.5,0:10,3,Magenta,None,0,0,1,15:50,./completed_changuitos/montage_tdscj_266.45_235.29.jpg,left,0,0,0,0,,,,,0,7,7,7,,,,,,,,,0,0,0,0,0,23,23,23,,,,,,,,,,,,,,,,,,,,,,,,,,,,,,,,,296.7094184449932,None,None,1,296.7094184449932,None,,,,,,,,,,,,,,,,,,,,,,,,,,,,,,,,,,,,,,,,,,,,,,gabiO,001,a,2019_Oct_10_1226,Experimento,3.2.3,60.16179709135863,
8,14,14,999,0.5,0:10,3,Red,None,0,0,1,15:50,./completed_changuitos/montage_tdscj_266.45_235.29.jpg,left,0,0,0,0,,,,,0,7,7,7,,,,,,,,,0,0,0,0,0,24,24,24,,,,,,,,,,,,,,,,,,,,,,,,,,,,,,,,,296.7094184449932,None,None,1,296.7094184449932,None,,,,,,,,,,,,,,,,,,,,,,,,,,,,,,,,,,,,,,,,,,,,,,gabiO,001,a,2019_Oct_10_1226,Experimento,3.2.3,60.16179709135863,
8,14,14,999,0.5,0:10,3,Magenta,['space'],0,0,1,15:50,./completed_changuitos/montage_tdscj_266.45_235.29.jpg,left,0,0,0,0,,,,,0,7,7,7,,,,,,,,,0,0,0,0,0,25,25,25,,,,,,,,,,,,,,,,,,,,,,,,,,,,,,,,,296.7094184449932,None,None,0,296.7094184449932,None,,,,,,,,,,,,,,,,,,,,,,,,,,,,,,,,,,,,,,,,,,,,,,gabiO,001,a,2019_Oct_10_1226,Experimento,3.2.3,60.16179709135863,
8,14,14,999,0.5,0:10,3,Red,['space'],0,0,1,15:50,./completed_changuitos/montage_tdscj_266.45_235.29.jpg,left,0,0,0,0,,,,,0,7,7,7,,,,,,,,,0,0,0,0,0,26,26,26,,,,,,,,,,,,,,,,,,,,,,,,,,,,,,,,,296.7094184449932,None,None,0,296.7094184449932,None,,,,,,,,,,,,,,,,,,,,,,,,,,,,,,,,,,,,,,,,,,,,,,gabiO,001,a,2019_Oct_10_1226,Experimento,3.2.3,60.16179709135863,
8,14,14,999,0.5,0:10,3,Yellow,None,0,0,1,15:50,./completed_changuitos/montage_tdscj_266.45_235.29.jpg,left,0,0,0,0,,,,,0,7,7,7,,,,,,,,,0,0,0,0,0,27,27,27,,,,,,,,,,,,,,,,,,,,,,,,,,,,,,,,,296.7094184449932,None,None,1,296.7094184449932,None,,,,,,,,,,,,,,,,,,,,,,,,,,,,,,,,,,,,,,,,,,,,,,gabiO,001,a,2019_Oct_10_1226,Experimento,3.2.3,60.16179709135863,
8,14,14,999,0.5,0:10,3,Cyan,None,0,0,1,15:50,./completed_changuitos/montage_tdscj_266.45_235.29.jpg,left,0,0,0,0,,,,,0,7,7,7,,,,,,,,,0,0,0,0,0,28,28,28,,,,,,,,,,,,,,,,,,,,,,,,,,,,,,,,,296.7094184449932,None,None,1,296.7094184449932,None,,,,,,,,,,,,,,,,,,,,,,,,,,,,,,,,,,,,,,,,,,,,,,gabiO,001,a,2019_Oct_10_1226,Experimento,3.2.3,60.16179709135863,
8,14,14,999,0.5,0:10,3,Green,None,0,0,1,15:50,./completed_changuitos/montage_tdscj_266.45_235.29.jpg,left,0,0,0,0,,,,,0,7,7,7,,,,,,,,,0,0,0,0,0,29,29,29,,,,,,,,,,,,,,,,,,,,,,,,,,,,,,,,,296.7260791179928,None,None,1,296.7260791179928,None,,,,,,,,,,,,,,,,,,,,,,,,,,,,,,,,,,,,,,,,,,,,,,gabiO,001,a,2019_Oct_10_1226,Experimento,3.2.3,60.16179709135863,
8,14,14,999,0.5,0:10,3,White,None,0,0,1,15:50,./completed_changuitos/montage_tdscj_266.45_235.29.jpg,left,0,0,0,0,,,,,0,7,7,7,,,,,,,,,0,0,0,0,0,30,30,30,,,,,,,,,,,,,,,,,,,,,,,,,,,,,,,,,296.7260791179928,None,None,1,296.7260791179928,None,,,,,,,,,,,,,,,,,,,,,,,,,,,,,,,,,,,,,,,,,,,,,,gabiO,001,a,2019_Oct_10_1226,Experimento,3.2.3,60.16179709135863,
8,14,14,999,0.5,0:10,3,Green,['space'],0,0,1,15:50,./completed_changuitos/montage_tdscj_266.45_235.29.jpg,left,0,0,0,0,,,,,0,7,7,7,,,,,,,,,0,0,0,0,0,31,31,31,,,,,,,,,,,,,,,,,,,,,,,,,,,,,,,,,296.7260791179928,None,None,0,296.7260791179928,None,,,,,,,,,,,,,,,,,,,,,,,,,,,,,,,,,,,,,,,,,,,,,,gabiO,001,a,2019_Oct_10_1226,Experimento,3.2.3,60.16179709135863,
8,14,14,999,0.5,0:10,3,Red,None,0,0,1,15:50,./completed_changuitos/montage_tdscj_266.45_235.29.jpg,left,0,0,0,0,,,,,0,7,7,7,,,,,,,,,0,0,0,0,0,32,32,32,,,,,,,,,,,,,,,,,,,,,,,,,,,,,,,,,296.7260791179928,None,None,1,296.7260791179928,None,,,,,,,,,,,,,,,,,,,,,,,,,,,,,,,,,,,,,,,,,,,,,,gabiO,001,a,2019_Oct_10_1226,Experimento,3.2.3,60.16179709135863,
8,14,14,999,0.5,0:10,3,Blue,None,0,0,1,15:50,./completed_changuitos/montage_tdscj_266.45_235.29.jpg,left,0,0,0,0,,,,,0,7,7,7,,,,,,,,,0,0,0,0,0,33,33,33,,,,,,,,,,,,,,,,,,,,,,,,,,,,,,,,,296.7260791179928,None,None,1,296.7260791179928,None,,,,,,,,,,,,,,,,,,,,,,,,,,,,,,,,,,,,,,,,,,,,,,gabiO,001,a,2019_Oct_10_1226,Experimento,3.2.3,60.16179709135863,
8,14,14,999,0.5,0:10,3,Green,None,0,0,1,15:50,./completed_changuitos/montage_tdscj_266.45_235.29.jpg,left,0,0,0,0,,,,,0,7,7,7,,,,,,,,,0,0,0,0,0,34,34,34,,,,,,,,,,,,,,,,,,,,,,,,,,,,,,,,,296.7260791179928,None,None,1,296.7260791179928,None,,,,,,,,,,,,,,,,,,,,,,,,,,,,,,,,,,,,,,,,,,,,,,gabiO,001,a,2019_Oct_10_1226,Experimento,3.2.3,60.16179709135863,
8,14,14,999,0.5,0:10,3,,,0,0,1,15:50,./completed_changuitos/montage_tdscj_266.45_235.29.jpg,left,0,0,0,0,,,,,0,7,7,7,,,,,,,,,0,0,0,0,,,,,,,,,,,,,,,,,,,,,,,,,,,,,,,,,,,,,,,,,,,296.7601535279973,None,right,0,2.048502890000236,296.7601535279973,None,296.7601535279973,None,,,,,,,,,,,,,,,,,,,,,,,,,,,,,,,,,,,,,gabiO,001,a,2019_Oct_10_1226,Experimento,3.2.3,60.16179709135863,
8,14,14,999,0.5,0:10,3,,,0,0,1,15:50,,,0,0,0,0,,,,,0,7,7,7,,,,,,,,,,,,,,,,,,,,,,,,,,,,,,,,,,,,,,,,,,,,,,,,,,,,,,,,,,,,,,,,,,,,,,,,,,,,,,,,,,,,,,,,,,,,,,,,,,,,gabiO,001,a,2019_Oct_10_1226,Experimento,3.2.3,60.16179709135863,
8,14,14,999,0.5,0:10,3,,,0,1,0,19:50,./completed_changuitos/montage_ssynf_76.85_85.59.jpg,right,0,0,0,0,,,,,0,8,8,8,,,,,0,0,0,0,,,,,,,,,,,,,,,,,,,,,,298.9435160139983,300.8413355569937,300.8413355569937,308.85528274599346,308.85528274599346,322.8671681209962,left,0,2.882908340994618,322.8671681209962,None,322.8671681209962,None,322.8671681209962,None,,,,,,,,,,,,,,,,,,,,,,,,,,,,,,,,,,,,,,,,,,,,,,,,,,,,,,,,gabiO,001,a,2019_Oct_10_1226,Experimento,3.2.3,60.16179709135863,
8,14,14,999,0.5,0:10,3,,,0,1,0,19:50,,,0,0,0,0,,,,,0,8,8,8,,,,,,,,,,,,,,,,,,,,,,,,,,,,,,,,,,,,,,,,,,,,,,,,,,,,,,,,,,,,,,,,,,,,,,,,,,,,,,,,,,,,,,,,,,,,,,,,,,,,gabiO,001,a,2019_Oct_10_1226,Experimento,3.2.3,60.16179709135863,
8,14,14,999,0.5,0:10,3,Magenta,None,0,0,1,20:50,./completed_changuitos/montage_ohahd_179.75_153.55.jpg,left,0,0,0,0,,,,,0,9,9,9,,,,,,,,,0,0,0,0,0,0,0,0,,,,,,,,,,,,,,,,,,,,,,,,,,,,,325.882287061002,327.54873867399874,327.54873867399874,None,335.5909330229915,336.09594123699935,None,1,335.5909330229915,None,,,,,,,,,,,,,,,,,,,,,,,,,,,,,,,,,,,,,,,,,,,,,,gabiO,001,a,2019_Oct_10_1226,Experimento,3.2.3,60.16179709135863,
8,14,14,999,0.5,0:10,3,Blue,['space'],0,0,1,20:50,./completed_changuitos/montage_ohahd_179.75_153.55.jpg,left,0,0,0,0,,,,,0,9,9,9,,,,,,,,,0,0,0,0,0,1,1,1,,,,,,,,,,,,,,,,,,,,,,,,,,,,,,,,,337.59546522199525,338.0952632529952,None,0,337.59546522199525,337.59546522199525,,,,,,,,,,,,,,,,,,,,,,,,,,,,,,,,,,,,,,,,,,,,,,gabiO,001,a,2019_Oct_10_1226,Experimento,3.2.3,60.16179709135863,
8,14,14,999,0.5,0:10,3,Cyan,None,0,0,1,20:50,./completed_changuitos/montage_ohahd_179.75_153.55.jpg,left,0,0,0,0,,,,,0,9,9,9,,,,,,,,,0,0,0,0,0,2,2,2,,,,,,,,,,,,,,,,,,,,,,,,,,,,,,,,,339.59477747000346,340.09461770199414,None,1,339.59477747000346,339.59477747000346,,,,,,,,,,,,,,,,,,,,,,,,,,,,,,,,,,,,,,,,,,,,,,gabiO,001,a,2019_Oct_10_1226,Experimento,3.2.3,60.16179709135863,
8,14,14,999,0.5,0:10,3,Yellow,None,0,0,1,20:50,./completed_changuitos/montage_ohahd_179.75_153.55.jpg,left,0,0,0,0,,,,,0,9,9,9,,,,,,,,,0,0,0,0,0,3,3,3,,,,,,,,,,,,,,,,,,,,,,,,,,,,,,,,,341.61037302800105,342.110168610001,None,1,341.61037302800105,341.61037302800105,,,,,,,,,,,,,,,,,,,,,,,,,,,,,,,,,,,,,,,,,,,,,,gabiO,001,a,2019_Oct_10_1226,Experimento,3.2.3,60.16179709135863,
8,14,14,999,0.5,0:10,3,Cyan,None,0,0,1,20:50,./completed_changuitos/montage_ohahd_179.75_153.55.jpg,left,0,0,0,0,,,,,0,9,9,9,,,,,,,,,0,0,0,0,0,4,4,4,,,,,,,,,,,,,,,,,,,,,,,,,,,,,,,,,343.61000188300386,344.1099137959973,['return'],0,343.61000188300386,343.61000188300386,,,,,,,,,,[1.0348364880046574],,,,,,,,,,,,,,,,,,,,,,,,,,,,,,,,,,,,gabiO,001,a,2019_Oct_10_1226,Experimento,3.2.3,60.16179709135863,
8,14,14,999,0.5,0:10,3,Blue,None,0,0,1,20:50,./completed_changuitos/montage_ohahd_179.75_153.55.jpg,left,0,0,0,0,,,,,0,9,9,9,,,,,,,,,0,0,0,0,0,5,5,5,,,,,,,,,,,,,,,,,,,,,,,,,,,,,,,,,345.60926572700555,346.1091859739972,None,1,345.60926572700555,345.60926572700555,,,,,,,,,,,,,,,,,,,,,,,,,,,,,,,,,,,,,,,,,,,,,,gabiO,001,a,2019_Oct_10_1226,Experimento,3.2.3,60.16179709135863,
8,14,14,999,0.5,0:10,3,Cyan,['space'],0,0,1,20:50,./completed_changuitos/montage_ohahd_179.75_153.55.jpg,left,0,0,0,0,,,,,0,9,9,9,,,,,,,,,0,0,0,0,0,6,6,6,,,,,,,,,,,,,,,,,,,,,,,,,,,,,,,,,347.60863241199695,348.10851521999575,None,0,347.60863241199695,347.60863241199695,,,,,,,,,,,,,,,,,,,,,,,,,,,,,,,,,,,,,,,,,,,,,,gabiO,001,a,2019_Oct_10_1226,Experimento,3.2.3,60.16179709135863,
8,14,14,999,0.5,0:10,3,Magenta,None,0,0,1,20:50,./completed_changuitos/montage_ohahd_179.75_153.55.jpg,left,0,0,0,0,,,,,0,9,9,9,,,,,,,,,0,0,0,0,0,7,7,7,,,,,,,,,,,,,,,,,,,,,,,,,,,,,,,,,349.5747028620041,None,None,1,349.5747028620041,None,,,,,,,,,,,,,,,,,,,,,,,,,,,,,,,,,,,,,,,,,,,,,,gabiO,001,a,2019_Oct_10_1226,Experimento,3.2.3,60.16179709135863,
8,14,14,999,0.5,0:10,3,Red,None,0,0,1,20:50,./completed_changuitos/montage_ohahd_179.75_153.55.jpg,left,0,0,0,0,,,,,0,9,9,9,,,,,,,,,0,0,0,0,0,8,8,8,,,,,,,,,,,,,,,,,,,,,,,,,,,,,,,,,349.5747028620041,None,None,1,349.5747028620041,None,,,,,,,,,,,,,,,,,,,,,,,,,,,,,,,,,,,,,,,,,,,,,,gabiO,001,a,2019_Oct_10_1226,Experimento,3.2.3,60.16179709135863,
8,14,14,999,0.5,0:10,3,Magenta,['space'],0,0,1,20:50,./completed_changuitos/montage_ohahd_179.75_153.55.jpg,left,0,0,0,0,,,,,0,9,9,9,,,,,,,,,0,0,0,0,0,9,9,9,,,,,,,,,,,,,,,,,,,,,,,,,,,,,,,,,349.5747028620041,None,None,0,349.5747028620041,None,,,,,,,,,,,,,,,,,,,,,,,,,,,,,,,,,,,,,,,,,,,,,,gabiO,001,a,2019_Oct_10_1226,Experimento,3.2.3,60.16179709135863,
8,14,14,999,0.5,0:10,3,Green,None,0,0,1,20:50,./completed_changuitos/montage_ohahd_179.75_153.55.jpg,left,0,0,0,0,,,,,0,9,9,9,,,,,,,,,0,0,0,0,0,10,10,10,,,,,,,,,,,,,,,,,,,,,,,,,,,,,,,,,349.5747028620041,None,None,1,349.5747028620041,None,,,,,,,,,,,,,,,,,,,,,,,,,,,,,,,,,,,,,,,,,,,,,,gabiO,001,a,2019_Oct_10_1226,Experimento,3.2.3,60.16179709135863,
8,14,14,999,0.5,0:10,3,Yellow,['space'],0,0,1,20:50,./completed_changuitos/montage_ohahd_179.75_153.55.jpg,left,0,0,0,0,,,,,0,9,9,9,,,,,,,,,0,0,0,0,0,11,11,11,,,,,,,,,,,,,,,,,,,,,,,,,,,,,,,,,349.59136353500367,None,None,0,349.59136353500367,None,,,,,,,,,,,,,,,,,,,,,,,,,,,,,,,,,,,,,,,,,,,,,,gabiO,001,a,2019_Oct_10_1226,Experimento,3.2.3,60.16179709135863,
8,14,14,999,0.5,0:10,3,Blue,None,0,0,1,20:50,./completed_changuitos/montage_ohahd_179.75_153.55.jpg,left,0,0,0,0,,,,,0,9,9,9,,,,,,,,,0,0,0,0,0,12,12,12,,,,,,,,,,,,,,,,,,,,,,,,,,,,,,,,,349.59136353500367,None,None,1,349.59136353500367,None,,,,,,,,,,,,,,,,,,,,,,,,,,,,,,,,,,,,,,,,,,,,,,gabiO,001,a,2019_Oct_10_1226,Experimento,3.2.3,60.16179709135863,
8,14,14,999,0.5,0:10,3,Cyan,None,0,0,1,20:50,./completed_changuitos/montage_ohahd_179.75_153.55.jpg,left,0,0,0,0,,,,,0,9,9,9,,,,,,,,,0,0,0,0,0,13,13,13,,,,,,,,,,,,,,,,,,,,,,,,,,,,,,,,,349.59136353500367,None,None,1,349.59136353500367,None,,,,,,,,,,,,,,,,,,,,,,,,,,,,,,,,,,,,,,,,,,,,,,gabiO,001,a,2019_Oct_10_1226,Experimento,3.2.3,60.16179709135863,
8,14,14,999,0.5,0:10,3,Blue,['space'],0,0,1,20:50,./completed_changuitos/montage_ohahd_179.75_153.55.jpg,left,0,0,0,0,,,,,0,9,9,9,,,,,,,,,0,0,0,0,0,14,14,14,,,,,,,,,,,,,,,,,,,,,,,,,,,,,,,,,349.59136353500367,None,None,0,349.59136353500367,None,,,,,,,,,,,,,,,,,,,,,,,,,,,,,,,,,,,,,,,,,,,,,,gabiO,001,a,2019_Oct_10_1226,Experimento,3.2.3,60.16179709135863,
8,14,14,999,0.5,0:10,3,Yellow,None,0,0,1,20:50,./completed_changuitos/montage_ohahd_179.75_153.55.jpg,left,0,0,0,0,,,,,0,9,9,9,,,,,,,,,0,0,0,0,0,15,15,15,,,,,,,,,,,,,,,,,,,,,,,,,,,,,,,,,349.59136353500367,None,None,1,349.59136353500367,None,,,,,,,,,,,,,,,,,,,,,,,,,,,,,,,,,,,,,,,,,,,,,,gabiO,001,a,2019_Oct_10_1226,Experimento,3.2.3,60.16179709135863,
8,14,14,999,0.5,0:10,3,Cyan,None,0,0,1,20:50,./completed_changuitos/montage_ohahd_179.75_153.55.jpg,left,0,0,0,0,,,,,0,9,9,9,,,,,,,,,0,0,0,0,0,16,16,16,,,,,,,,,,,,,,,,,,,,,,,,,,,,,,,,,349.59136353500367,None,None,1,349.59136353500367,None,,,,,,,,,,,,,,,,,,,,,,,,,,,,,,,,,,,,,,,,,,,,,,gabiO,001,a,2019_Oct_10_1226,Experimento,3.2.3,60.16179709135863,
8,14,14,999,0.5,0:10,3,Yellow,['space'],0,0,1,20:50,./completed_changuitos/montage_ohahd_179.75_153.55.jpg,left,0,0,0,0,,,,,0,9,9,9,,,,,,,,,0,0,0,0,0,17,17,17,,,,,,,,,,,,,,,,,,,,,,,,,,,,,,,,,349.6080242080032,None,None,0,349.6080242080032,None,,,,,,,,,,,,,,,,,,,,,,,,,,,,,,,,,,,,,,,,,,,,,,gabiO,001,a,2019_Oct_10_1226,Experimento,3.2.3,60.16179709135863,
8,14,14,999,0.5,0:10,3,Magenta,None,0,0,1,20:50,./completed_changuitos/montage_ohahd_179.75_153.55.jpg,left,0,0,0,0,,,,,0,9,9,9,,,,,,,,,0,0,0,0,0,18,18,18,,,,,,,,,,,,,,,,,,,,,,,,,,,,,,,,,349.6080242080032,None,None,1,349.6080242080032,None,,,,,,,,,,,,,,,,,,,,,,,,,,,,,,,,,,,,,,,,,,,,,,gabiO,001,a,2019_Oct_10_1226,Experimento,3.2.3,60.16179709135863,
8,14,14,999,0.5,0:10,3,Red,None,0,0,1,20:50,./completed_changuitos/montage_ohahd_179.75_153.55.jpg,left,0,0,0,0,,,,,0,9,9,9,,,,,,,,,0,0,0,0,0,19,19,19,,,,,,,,,,,,,,,,,,,,,,,,,,,,,,,,,349.6080242080032,None,None,1,349.6080242080032,None,,,,,,,,,,,,,,,,,,,,,,,,,,,,,,,,,,,,,,,,,,,,,,gabiO,001,a,2019_Oct_10_1226,Experimento,3.2.3,60.16179709135863,
8,14,14,999,0.5,0:10,3,Magenta,['space'],0,0,1,20:50,./completed_changuitos/montage_ohahd_179.75_153.55.jpg,left,0,0,0,0,,,,,0,9,9,9,,,,,,,,,0,0,0,0,0,20,20,20,,,,,,,,,,,,,,,,,,,,,,,,,,,,,,,,,349.6080242080032,None,None,0,349.6080242080032,None,,,,,,,,,,,,,,,,,,,,,,,,,,,,,,,,,,,,,,,,,,,,,,gabiO,001,a,2019_Oct_10_1226,Experimento,3.2.3,60.16179709135863,
8,14,14,999,0.5,0:10,3,Red,['space'],0,0,1,20:50,./completed_changuitos/montage_ohahd_179.75_153.55.jpg,left,0,0,0,0,,,,,0,9,9,9,,,,,,,,,0,0,0,0,0,21,21,21,,,,,,,,,,,,,,,,,,,,,,,,,,,,,,,,,349.6080242080032,None,None,0,349.6080242080032,None,,,,,,,,,,,,,,,,,,,,,,,,,,,,,,,,,,,,,,,,,,,,,,gabiO,001,a,2019_Oct_10_1226,Experimento,3.2.3,60.16179709135863,
8,14,14,999,0.5,0:10,3,Yellow,None,0,0,1,20:50,./completed_changuitos/montage_ohahd_179.75_153.55.jpg,left,0,0,0,0,,,,,0,9,9,9,,,,,,,,,0,0,0,0,0,22,22,22,,,,,,,,,,,,,,,,,,,,,,,,,,,,,,,,,349.6080242080032,None,None,1,349.6080242080032,None,,,,,,,,,,,,,,,,,,,,,,,,,,,,,,,,,,,,,,,,,,,,,,gabiO,001,a,2019_Oct_10_1226,Experimento,3.2.3,60.16179709135863,
8,14,14,999,0.5,0:10,3,Cyan,None,0,0,1,20:50,./completed_changuitos/montage_ohahd_179.75_153.55.jpg,left,0,0,0,0,,,,,0,9,9,9,,,,,,,,,0,0,0,0,0,23,23,23,,,,,,,,,,,,,,,,,,,,,,,,,,,,,,,,,349.6080242080032,None,None,1,349.6080242080032,None,,,,,,,,,,,,,,,,,,,,,,,,,,,,,,,,,,,,,,,,,,,,,,gabiO,001,a,2019_Oct_10_1226,Experimento,3.2.3,60.16179709135863,
8,14,14,999,0.5,0:10,3,Green,None,0,0,1,20:50,./completed_changuitos/montage_ohahd_179.75_153.55.jpg,left,0,0,0,0,,,,,0,9,9,9,,,,,,,,,0,0,0,0,0,24,24,24,,,,,,,,,,,,,,,,,,,,,,,,,,,,,,,,,349.6080242080032,None,None,1,349.6080242080032,None,,,,,,,,,,,,,,,,,,,,,,,,,,,,,,,,,,,,,,,,,,,,,,gabiO,001,a,2019_Oct_10_1226,Experimento,3.2.3,60.16179709135863,
8,14,14,999,0.5,0:10,3,White,None,0,0,1,20:50,./completed_changuitos/montage_ohahd_179.75_153.55.jpg,left,0,0,0,0,,,,,0,9,9,9,,,,,,,,,0,0,0,0,0,25,25,25,,,,,,,,,,,,,,,,,,,,,,,,,,,,,,,,,349.6080242080032,None,None,1,349.6080242080032,None,,,,,,,,,,,,,,,,,,,,,,,,,,,,,,,,,,,,,,,,,,,,,,gabiO,001,a,2019_Oct_10_1226,Experimento,3.2.3,60.16179709135863,
8,14,14,999,0.5,0:10,3,Green,['space'],0,0,1,20:50,./completed_changuitos/montage_ohahd_179.75_153.55.jpg,left,0,0,0,0,,,,,0,9,9,9,,,,,,,,,0,0,0,0,0,26,26,26,,,,,,,,,,,,,,,,,,,,,,,,,,,,,,,,,349.6080242080032,None,None,0,349.6080242080032,None,,,,,,,,,,,,,,,,,,,,,,,,,,,,,,,,,,,,,,,,,,,,,,gabiO,001,a,2019_Oct_10_1226,Experimento,3.2.3,60.16179709135863,
8,14,14,999,0.5,0:10,3,Red,None,0,0,1,20:50,./completed_changuitos/montage_ohahd_179.75_153.55.jpg,left,0,0,0,0,,,,,0,9,9,9,,,,,,,,,0,0,0,0,0,27,27,27,,,,,,,,,,,,,,,,,,,,,,,,,,,,,,,,,349.6080242080032,None,None,1,349.6080242080032,None,,,,,,,,,,,,,,,,,,,,,,,,,,,,,,,,,,,,,,,,,,,,,,gabiO,001,a,2019_Oct_10_1226,Experimento,3.2.3,60.16179709135863,
8,14,14,999,0.5,0:10,3,Blue,None,0,0,1,20:50,./completed_changuitos/montage_ohahd_179.75_153.55.jpg,left,0,0,0,0,,,,,0,9,9,9,,,,,,,,,0,0,0,0,0,28,28,28,,,,,,,,,,,,,,,,,,,,,,,,,,,,,,,,,349.6080242080032,None,None,1,349.6080242080032,None,,,,,,,,,,,,,,,,,,,,,,,,,,,,,,,,,,,,,,,,,,,,,,gabiO,001,a,2019_Oct_10_1226,Experimento,3.2.3,60.16179709135863,
8,14,14,999,0.5,0:10,3,Green,None,0,0,1,20:50,./completed_changuitos/montage_ohahd_179.75_153.55.jpg,left,0,0,0,0,,,,,0,9,9,9,,,,,,,,,0,0,0,0,0,29,29,29,,,,,,,,,,,,,,,,,,,,,,,,,,,,,,,,,349.6080242080032,None,None,1,349.6080242080032,None,,,,,,,,,,,,,,,,,,,,,,,,,,,,,,,,,,,,,,,,,,,,,,gabiO,001,a,2019_Oct_10_1226,Experimento,3.2.3,60.16179709135863,
8,14,14,999,0.5,0:10,3,,,0,0,1,20:50,./completed_changuitos/montage_ohahd_179.75_153.55.jpg,left,0,0,0,0,,,,,0,9,9,9,,,,,,,,,0,0,0,0,,,,,,,,,,,,,,,,,,,,,,,,,,,,,,,,,,,,,,,,,,,349.6478329189995,None,left,1,3.308651617990108,349.6478329189995,None,349.6478329189995,352.6570008790004,,,,,,,,,,,,,,,,,,,,,,,,,,,,,,,,,,,,,gabiO,001,a,2019_Oct_10_1226,Experimento,3.2.3,60.16179709135863,
8,14,14,999,0.5,0:10,3,,,0,0,1,20:50,,,0,0,0,0,,,,,0,9,9,9,,,,,,,,,,,,,,,,,,,,,,,,,,,,,,,,,,,,,,,,,,,,,,,,,,,,,,,,,,,,,,,,,,,,,,,,,,,,,,,,,,,,,,,,,,,,,,,,,,,,gabiO,001,a,2019_Oct_10_1226,Experimento,3.2.3,60.16179709135863,
8,14,14,999,0.5,0:10,3,,,0,1,0,25:50,./completed_changuitos/montage_moivf_65.85_76.09.jpg,right,0,0,0,0,,,,,0,10,10,10,,,,,0,0,0,0,,,,,,,,,,,,,,,,,,,,,,353.0969496839971,355.1890741399984,355.1890741399984,363.2033710579999,363.2033710579999,377.21524725800555,left,0,0.68360156500421,377.21524725800555,None,377.21524725800555,None,377.21524725800555,None,,,,,,,,,,,,,,,,,,,,,,,,,,,,,,,,,,,,,,,,,,,,,,,,,,,,,,,,gabiO,001,a,2019_Oct_10_1226,Experimento,3.2.3,60.16179709135863,
8,14,14,999,0.5,0:10,3,,,0,1,0,25:50,,,0,0,0,0,,,,,0,10,10,10,,,,,,,,,,,,,,,,,,,,,,,,,,,,,,,,,,,,,,,,,,,,,,,,,,,,,,,,,,,,,,,,,,,,,,,,,,,,,,,,,,,,,,,,,,,,,,,,,,,,gabiO,001,a,2019_Oct_10_1226,Experimento,3.2.3,60.16179709135863,
8,14,14,999,0.5,0:10,3,Red,None,0,0,1,28:50,./completed_changuitos/montage_paixq_51.69_59.85.jpg,right,0,0,0,0,,,,,0,11,11,11,,,,,,,,,0,0,0,0,0,0,0,0,,,,,,,,,,,,,,,,,,,,,,,,,,,,,378.02801357499266,378.9813458510034,378.9813458510034,None,387.02319977700245,387.52839483399293,None,1,387.02319977700245,None,,,,,,,,,,,,,,,,,,,,,,,,,,,,,,,,,,,,,,,,,,,,,,gabiO,001,a,2019_Oct_10_1226,Experimento,3.2.3,60.16179709135863,
8,14,14,999,0.5,0:10,3,Magenta,['space'],0,0,1,28:50,./completed_changuitos/montage_paixq_51.69_59.85.jpg,right,0,0,0,0,,,,,0,11,11,11,,,,,,,,,0,0,0,0,0,1,1,1,,,,,,,,,,,,,,,,,,,,,,,,,,,,,,,,,389.0277953360055,389.52732337699854,None,0,389.0277953360055,389.0277953360055,,,,,,,,,,,,,,,,,,,,,,,,,,,,,,,,,,,,,,,,,,,,,,gabiO,001,a,2019_Oct_10_1226,Experimento,3.2.3,60.16179709135863,
8,14,14,999,0.5,0:10,3,Green,None,0,0,1,28:50,./completed_changuitos/montage_paixq_51.69_59.85.jpg,right,0,0,0,0,,,,,0,11,11,11,,,,,,,,,0,0,0,0,0,2,2,2,,,,,,,,,,,,,,,,,,,,,,,,,,,,,,,,,391.027366594004,391.5266206230008,None,1,391.027366594004,391.027366594004,,,,,,,,,,,,,,,,,,,,,,,,,,,,,,,,,,,,,,,,,,,,,,gabiO,001,a,2019_Oct_10_1226,Experimento,3.2.3,60.16179709135863,
8,14,14,999,0.5,0:10,3,Yellow,['space'],0,0,1,28:50,./completed_changuitos/montage_paixq_51.69_59.85.jpg,right,0,0,0,0,,,,,0,11,11,11,,,,,,,,,0,0,0,0,0,3,3,3,,,,,,,,,,,,,,,,,,,,,,,,,,,,,,,,,393.0264235759969,393.52627736299473,None,0,393.0264235759969,393.0264235759969,,,,,,,,,,,,,,,,,,,,,,,,,,,,,,,,,,,,,,,,,,,,,,gabiO,001,a,2019_Oct_10_1226,Experimento,3.2.3,60.16179709135863,
8,14,14,999,0.5,0:10,3,Blue,None,0,0,1,28:50,./completed_changuitos/montage_paixq_51.69_59.85.jpg,right,0,0,0,0,,,,,0,11,11,11,,,,,,,,,0,0,0,0,0,4,4,4,,,,,,,,,,,,,,,,,,,,,,,,,,,,,,,,,395.02576214999135,395.5256835070031,None,1,395.02576214999135,395.02576214999135,,,,,,,,,,,,,,,,,,,,,,,,,,,,,,,,,,,,,,,,,,,,,,gabiO,001,a,2019_Oct_10_1226,Experimento,3.2.3,60.16179709135863,
8,14,14,999,0.5,0:10,3,Cyan,None,0,0,1,28:50,./completed_changuitos/montage_paixq_51.69_59.85.jpg,right,0,0,0,0,,,,,0,11,11,11,,,,,,,,,0,0,0,0,0,5,5,5,,,,,,,,,,,,,,,,,,,,,,,,,,,,,,,,,397.0247978219995,397.52500273099577,None,1,397.0247978219995,397.0247978219995,,,,,,,,,,,,,,,,,,,,,,,,,,,,,,,,,,,,,,,,,,,,,,gabiO,001,a,2019_Oct_10_1226,Experimento,3.2.3,60.16179709135863,
8,14,14,999,0.5,0:10,3,Blue,['space'],0,0,1,28:50,./completed_changuitos/montage_paixq_51.69_59.85.jpg,right,0,0,0,0,,,,,0,11,11,11,,,,,,,,,0,0,0,0,0,6,6,6,,,,,,,,,,,,,,,,,,,,,,,,,,,,,,,,,399.0244157919951,399.5242844960012,['return'],0,399.0244157919951,399.0244157919951,,,,,,,,,,[1.1335797720093979],,,,,,,,,,,,,,,,,,,,,,,,,,,,,,,,,,,,gabiO,001,a,2019_Oct_10_1226,Experimento,3.2.3,60.16179709135863,
8,14,14,999,0.5,0:10,3,Yellow,None,0,0,1,28:50,./completed_changuitos/montage_paixq_51.69_59.85.jpg,right,0,0,0,0,,,,,0,11,11,11,,,,,,,,,0,0,0,0,0,7,7,7,,,,,,,,,,,,,,,,,,,,,,,,,,,,,,,,,401.0070981260011,None,None,1,401.0070981260011,None,,,,,,,,,,,,,,,,,,,,,,,,,,,,,,,,,,,,,,,,,,,,,,gabiO,001,a,2019_Oct_10_1226,Experimento,3.2.3,60.16179709135863,
8,14,14,999,0.5,0:10,3,Cyan,None,0,0,1,28:50,./completed_changuitos/montage_paixq_51.69_59.85.jpg,right,0,0,0,0,,,,,0,11,11,11,,,,,,,,,0,0,0,0,0,8,8,8,,,,,,,,,,,,,,,,,,,,,,,,,,,,,,,,,401.0070981260011,None,None,1,401.0070981260011,None,,,,,,,,,,,,,,,,,,,,,,,,,,,,,,,,,,,,,,,,,,,,,,gabiO,001,a,2019_Oct_10_1226,Experimento,3.2.3,60.16179709135863,
8,14,14,999,0.5,0:10,3,Yellow,['space'],0,0,1,28:50,./completed_changuitos/montage_paixq_51.69_59.85.jpg,right,0,0,0,0,,,,,0,11,11,11,,,,,,,,,0,0,0,0,0,9,9,9,,,,,,,,,,,,,,,,,,,,,,,,,,,,,,,,,401.0070981260011,None,None,0,401.0070981260011,None,,,,,,,,,,,,,,,,,,,,,,,,,,,,,,,,,,,,,,,,,,,,,,gabiO,001,a,2019_Oct_10_1226,Experimento,3.2.3,60.16179709135863,
8,14,14,999,0.5,0:10,3,Magenta,None,0,0,1,28:50,./completed_changuitos/montage_paixq_51.69_59.85.jpg,right,0,0,0,0,,,,,0,11,11,11,,,,,,,,,0,0,0,0,0,10,10,10,,,,,,,,,,,,,,,,,,,,,,,,,,,,,,,,,401.0070981260011,None,None,1,401.0070981260011,None,,,,,,,,,,,,,,,,,,,,,,,,,,,,,,,,,,,,,,,,,,,,,,gabiO,001,a,2019_Oct_10_1226,Experimento,3.2.3,60.16179709135863,
8,14,14,999,0.5,0:10,3,Red,None,0,0,1,28:50,./completed_changuitos/montage_paixq_51.69_59.85.jpg,right,0,0,0,0,,,,,0,11,11,11,,,,,,,,,0,0,0,0,0,11,11,11,,,,,,,,,,,,,,,,,,,,,,,,,,,,,,,,,401.0237587990007,None,None,1,401.0237587990007,None,,,,,,,,,,,,,,,,,,,,,,,,,,,,,,,,,,,,,,,,,,,,,,gabiO,001,a,2019_Oct_10_1226,Experimento,3.2.3,60.16179709135863,
8,14,14,999,0.5,0:10,3,Magenta,['space'],0,0,1,28:50,./completed_changuitos/montage_paixq_51.69_59.85.jpg,right,0,0,0,0,,,,,0,11,11,11,,,,,,,,,0,0,0,0,0,12,12,12,,,,,,,,,,,,,,,,,,,,,,,,,,,,,,,,,401.0237587990007,None,None,0,401.0237587990007,None,,,,,,,,,,,,,,,,,,,,,,,,,,,,,,,,,,,,,,,,,,,,,,gabiO,001,a,2019_Oct_10_1226,Experimento,3.2.3,60.16179709135863,
8,14,14,999,0.5,0:10,3,Red,['space'],0,0,1,28:50,./completed_changuitos/montage_paixq_51.69_59.85.jpg,right,0,0,0,0,,,,,0,11,11,11,,,,,,,,,0,0,0,0,0,13,13,13,,,,,,,,,,,,,,,,,,,,,,,,,,,,,,,,,401.0237587990007,None,None,0,401.0237587990007,None,,,,,,,,,,,,,,,,,,,,,,,,,,,,,,,,,,,,,,,,,,,,,,gabiO,001,a,2019_Oct_10_1226,Experimento,3.2.3,60.16179709135863,
8,14,14,999,0.5,0:10,3,Yellow,None,0,0,1,28:50,./completed_changuitos/montage_paixq_51.69_59.85.jpg,right,0,0,0,0,,,,,0,11,11,11,,,,,,,,,0,0,0,0,0,14,14,14,,,,,,,,,,,,,,,,,,,,,,,,,,,,,,,,,401.0237587990007,None,None,1,401.0237587990007,None,,,,,,,,,,,,,,,,,,,,,,,,,,,,,,,,,,,,,,,,,,,,,,gabiO,001,a,2019_Oct_10_1226,Experimento,3.2.3,60.16179709135863,
8,14,14,999,0.5,0:10,3,Cyan,None,0,0,1,28:50,./completed_changuitos/montage_paixq_51.69_59.85.jpg,right,0,0,0,0,,,,,0,11,11,11,,,,,,,,,0,0,0,0,0,15,15,15,,,,,,,,,,,,,,,,,,,,,,,,,,,,,,,,,401.0237587990007,None,None,1,401.0237587990007,None,,,,,,,,,,,,,,,,,,,,,,,,,,,,,,,,,,,,,,,,,,,,,,gabiO,001,a,2019_Oct_10_1226,Experimento,3.2.3,60.16179709135863,
8,14,14,999,0.5,0:10,3,Green,None,0,0,1,28:50,./completed_changuitos/montage_paixq_51.69_59.85.jpg,right,0,0,0,0,,,,,0,11,11,11,,,,,,,,,0,0,0,0,0,16,16,16,,,,,,,,,,,,,,,,,,,,,,,,,,,,,,,,,401.0237587990007,None,None,1,401.0237587990007,None,,,,,,,,,,,,,,,,,,,,,,,,,,,,,,,,,,,,,,,,,,,,,,gabiO,001,a,2019_Oct_10_1226,Experimento,3.2.3,60.16179709135863,
8,14,14,999,0.5,0:10,3,White,None,0,0,1,28:50,./completed_changuitos/montage_paixq_51.69_59.85.jpg,right,0,0,0,0,,,,,0,11,11,11,,,,,,,,,0,0,0,0,0,17,17,17,,,,,,,,,,,,,,,,,,,,,,,,,,,,,,,,,401.0404194720002,None,None,1,401.0404194720002,None,,,,,,,,,,,,,,,,,,,,,,,,,,,,,,,,,,,,,,,,,,,,,,gabiO,001,a,2019_Oct_10_1226,Experimento,3.2.3,60.16179709135863,
8,14,14,999,0.5,0:10,3,Green,['space'],0,0,1,28:50,./completed_changuitos/montage_paixq_51.69_59.85.jpg,right,0,0,0,0,,,,,0,11,11,11,,,,,,,,,0,0,0,0,0,18,18,18,,,,,,,,,,,,,,,,,,,,,,,,,,,,,,,,,401.0404194720002,None,None,0,401.0404194720002,None,,,,,,,,,,,,,,,,,,,,,,,,,,,,,,,,,,,,,,,,,,,,,,gabiO,001,a,2019_Oct_10_1226,Experimento,3.2.3,60.16179709135863,
8,14,14,999,0.5,0:10,3,Red,None,0,0,1,28:50,./completed_changuitos/montage_paixq_51.69_59.85.jpg,right,0,0,0,0,,,,,0,11,11,11,,,,,,,,,0,0,0,0,0,19,19,19,,,,,,,,,,,,,,,,,,,,,,,,,,,,,,,,,401.0404194720002,None,None,1,401.0404194720002,None,,,,,,,,,,,,,,,,,,,,,,,,,,,,,,,,,,,,,,,,,,,,,,gabiO,001,a,2019_Oct_10_1226,Experimento,3.2.3,60.16179709135863,
8,14,14,999,0.5,0:10,3,Blue,None,0,0,1,28:50,./completed_changuitos/montage_paixq_51.69_59.85.jpg,right,0,0,0,0,,,,,0,11,11,11,,,,,,,,,0,0,0,0,0,20,20,20,,,,,,,,,,,,,,,,,,,,,,,,,,,,,,,,,401.0404194720002,None,None,1,401.0404194720002,None,,,,,,,,,,,,,,,,,,,,,,,,,,,,,,,,,,,,,,,,,,,,,,gabiO,001,a,2019_Oct_10_1226,Experimento,3.2.3,60.16179709135863,
8,14,14,999,0.5,0:10,3,Green,None,0,0,1,28:50,./completed_changuitos/montage_paixq_51.69_59.85.jpg,right,0,0,0,0,,,,,0,11,11,11,,,,,,,,,0,0,0,0,0,21,21,21,,,,,,,,,,,,,,,,,,,,,,,,,,,,,,,,,401.0404194720002,None,None,1,401.0404194720002,None,,,,,,,,,,,,,,,,,,,,,,,,,,,,,,,,,,,,,,,,,,,,,,gabiO,001,a,2019_Oct_10_1226,Experimento,3.2.3,60.16179709135863,
8,14,14,999,0.5,0:10,3,,,0,0,1,28:50,./completed_changuitos/montage_paixq_51.69_59.85.jpg,right,0,0,0,0,,,,,0,11,11,11,,,,,,,,,0,0,0,0,,,,,,,,,,,,,,,,,,,,,,,,,,,,,,,,,,,,,,,,,,,401.07553477400506,None,left,0,1.4482639350026147,401.07553477400506,None,401.07553477400506,None,,,,,,,,,,,,,,,,,,,,,,,,,,,,,,,,,,,,,gabiO,001,a,2019_Oct_10_1226,Experimento,3.2.3,60.16179709135863,
8,14,14,999,0.5,0:10,3,,,0,0,1,28:50,,,0,0,0,0,,,,,0,11,11,11,,,,,,,,,,,,,,,,,,,,,,,,,,,,,,,,,,,,,,,,,,,,,,,,,,,,,,,,,,,,,,,,,,,,,,,,,,,,,,,,,,,,,,,,,,,,,,,,,,,,gabiO,001,a,2019_Oct_10_1226,Experimento,3.2.3,60.16179709135863,
8,14,14,999,0.5,0:10,3,,,1,0,0,30:50,./completed_changuitos/montage_uqwmb_27.85_32.09.jpg,right,0,0,0,0,,,,,0,12,12,12,0,0,0,0,,,,,,,,,,,,,,,,,,,,,,,,,,,,,,,,,,,,,,,,,,,,,,,,,,,,,,,,,,,,,403.13939735900203,404.0893634899985,404.0893634899985,412.1053597639984,right,1,3.3299207530071726,412.1053597639984,None,412.1053597639984,None,412.1053597639984,415.1189373119996,,,,,,,,,,,,,,,,,,,,,,,gabiO,001,a,2019_Oct_10_1226,Experimento,3.2.3,60.16179709135863,
8,14,14,999,0.5,0:10,3,,,1,0,0,30:50,,,0,0,0,0,,,,,0,12,12,12,,,,,,,,,,,,,,,,,,,,,,,,,,,,,,,,,,,,,,,,,,,,,,,,,,,,,,,,,,,,,,,,,,,,,,,,,,,,,,,,,,,,,,,,,,,,,,,,,,,,gabiO,001,a,2019_Oct_10_1226,Experimento,3.2.3,60.16179709135863,
8,14,14,999,0.5,0:10,3,,,1,0,0,32:50,./completed_changuitos/montage_itape_114.0_99.4.jpg,left,0,0,0,0,,,,,0,13,13,13,0,0,0,0,,,,,,,,,,,,,,,,,,,,,,,,,,,,,,,,,,,,,,,,,,,,,,,,,,,,,,,,,,,,,416.0519478089991,416.9683371279971,416.9683371279971,424.9822624959925,left,1,0.983491042003152,424.9822624959925,None,424.9822624959925,None,424.9822624959925,None,,,,,,,,,,,,,,,,,,,,,,,gabiO,001,a,2019_Oct_10_1226,Experimento,3.2.3,60.16179709135863,
8,14,14,999,0.5,0:10,3,,,1,0,0,32:50,,,0,0,0,0,,,,,0,13,13,13,,,,,,,,,,,,,,,,,,,,,,,,,,,,,,,,,,,,,,,,,,,,,,,,,,,,,,,,,,,,,,,,,,,,,,,,,,,,,,,,,,,,,,,,,,,,,,,,,,,,gabiO,001,a,2019_Oct_10_1226,Experimento,3.2.3,60.16179709135863,
8,14,14,999,0.5,0:10,3,,,1,0,0,34:50,./completed_changuitos/montage_zrvou_99.5_84.55.jpg,left,0,0,0,0,,,,,0,14,14,14,0,0,0,0,,,,,,,,,,,,,,,,,,,,,,,,,,,,,,,,,,,,,,,,,,,,,,,,,,,,,,,,,,,,,426.59836008099956,427.6144015979953,427.6144015979953,435.6285678569984,right,0,3.5826284369977657,435.6285678569984,None,435.6285678569984,None,435.6285678569984,438.627562943002,,,,,,,,,,,,,,,,,,,,,,,gabiO,001,a,2019_Oct_10_1226,Experimento,3.2.3,60.16179709135863,
8,14,14,999,0.5,0:10,3,,,1,0,0,34:50,,,0,0,0,0,,,,,0,14,14,14,,,,,,,,,,,,,,,,,,,,,,,,,,,,,,,,,,,,,,,,,,,,,,,,,,,,,,,,,,,,,,,,,,,,,,,,,,,,,,,,,,,,,,,,,,,,,,,,,,,,gabiO,001,a,2019_Oct_10_1226,Experimento,3.2.3,60.16179709135863,
8,14,14,999,0.5,0:10,3,,,1,0,0,30:50,./completed_changuitos/montage_lunxv_57.79_66.35.jpg,right,0,0,0,0,,,,,0,15,15,15,0,0,0,0,,,,,,,,,,,,,,,,,,,,,,,,,,,,,,,,,,,,,,,,,,,,,,,,,,,,,,,,,,,,,439.8434046610055,440.7768270240049,440.7768270240049,448.7904256680049,left,0,0.48407788800250273,448.7904256680049,None,448.7904256680049,None,448.7904256680049,None,,,,,,,,,,,,,,,,,,,,,,,gabiO,001,a,2019_Oct_10_1226,Experimento,3.2.3,60.16179709135863,
8,14,14,999,0.5,0:10,3,,,1,0,0,30:50,,,0,0,0,0,,,,,0,15,15,15,,,,,,,,,,,,,,,,,,,,,,,,,,,,,,,,,,,,,,,,,,,,,,,,,,,,,,,,,,,,,,,,,,,,,,,,,,,,,,,,,,,,,,,,,,,,,,,,,,,,gabiO,001,a,2019_Oct_10_1226,Experimento,3.2.3,60.16179709135863,
8,14,14,999,0.5,0:10,3,,,1,0,0,32:50,./completed_changuitos/montage_muusm_56.6_64.9.jpg,right,0,0,0,0,,,,,0,16,16,16,0,0,0,0,,,,,,,,,,,,,,,,,,,,,,,,,,,,,,,,,,,,,,,,,,,,,,,,,,,,,,,,,,,,,449.9238413400017,450.8567718539998,450.8567718539998,458.8704611489957,right,1,0.7336055110063171,458.8704611489957,None,458.8704611489957,None,458.8704611489957,None,,,,,,,,,,,,,,,,,,,,,,,gabiO,001,a,2019_Oct_10_1226,Experimento,3.2.3,60.16179709135863,
8,14,14,999,0.5,0:10,3,,,1,0,0,32:50,,,0,0,0,0,,,,,0,16,16,16,,,,,,,,,,,,,,,,,,,,,,,,,,,,,,,,,,,,,,,,,,,,,,,,,,,,,,,,,,,,,,,,,,,,,,,,,,,,,,,,,,,,,,,,,,,,,,,,,,,,gabiO,001,a,2019_Oct_10_1226,Experimento,3.2.3,60.16179709135863,
8,14,14,999,0.5,0:10,3,,,1,0,0,34:50,./completed_changuitos/montage_cqjrb_60.8_53.49.jpg,left,0,0,0,0,,,,,0,17,17,17,0,0,0,0,,,,,,,,,,,,,,,,,,,,,,,,,,,,,,,,,,,,,,,,,,,,,,,,,,,,,,,,,,,,,460.25349486900086,461.119903119994,461.119903119994,469.13342759999796,left,1,1.7180971740017412,469.13342759999796,None,469.13342759999796,None,469.13342759999796,None,,,,,,,,,,,,,,,,,,,,,,,gabiO,001,a,2019_Oct_10_1226,Experimento,3.2.3,60.16179709135863,
8,14,14,999,0.5,0:10,3,,,1,0,0,34:50,,,0,0,0,0,,,,,0,17,17,17,,,,,,,,,,,,,,,,,,,,,,,,,,,,,,,,,,,,,,,,,,,,,,,,,,,,,,,,,,,,,,,,,,,,,,,,,,,,,,,,,,,,,,,,,,,,,,,,,,,,gabiO,001,a,2019_Oct_10_1226,Experimento,3.2.3,60.16179709135863,
8,14,14,999,0.5,0:10,3,,,,,,,,,0,0,0,0,,,,,,,,,,,,,,,,,,,,,,,,,,,,,,,,,,,,,,,,,,,,,,,,,,,,,,,,,,,,,,,,,,,,,,,,,,,,,,,,,,,,,,470.9213155960024,471.8495438259997,0,8.863386488999822,471.8495438259997,None,471.8495438259997,None,b,7.065158534009242,480.7294525250036,None,480.7294525250036,None,480.7294525250036,None,487.81071591300133,None,5,4.582302292008535,487.81071591300133,None,gabiO,001,a,2019_Oct_10_1226,Experimento,3.2.3,60.16179709135863,
