changuito_time_to_show,time_to_think,time_to_play,total_items,nback_stimulus_time,nback_training,time_to_show_tiny_stimulus,colourtest,corresp,inmediato,consciente,inconsciente,nback_slice,imagen,correcta,trials_5.thisRepN,trials_5.thisTrialN,trials_5.thisN,trials_5.thisIndex,nback_train.thisRepN,nback_train.thisTrialN,nback_train.thisN,nback_train.thisIndex,treatment_order.thisRepN,treatment_order.thisTrialN,treatment_order.thisN,treatment_order.thisIndex,trials.thisRepN,trials.thisTrialN,trials.thisN,trials.thisIndex,trials_2.thisRepN,trials_2.thisTrialN,trials_2.thisN,trials_2.thisIndex,trials_3.thisRepN,trials_3.thisTrialN,trials_3.thisN,trials_3.thisIndex,trials_4.thisRepN,trials_4.thisTrialN,trials_4.thisN,trials_4.thisIndex,Presentacion.started,Presentacion.stopped,Juego.started,Juego.stopped,image_6.started,image_6.stopped,polygon.started,polygon.stopped,nback_train_resp.keys,nback_train_resp.corr,nback_train_resp.started,nback_train_resp.stopped,nback_train_resp.rt,holi.started,holi.stopped,image_3.started,image_3.stopped,polygon_2.started,polygon_2.stopped,nback_train_resp_2.keys,nback_train_resp_2.corr,nback_train_resp_2.started,nback_train_resp_2.stopped,nback_train_resp_2.rt,text_2.started,text_2.stopped,key_resp.keys,key_resp.corr,key_resp.rt,key_resp.started,key_resp.stopped,image_5.started,image_5.stopped,hola.started,hola.stopped,image_2.started,image_2.stopped,tiempo_para_pensar.started,tiempo_para_pensar.stopped,respuesta_consciente.keys,respuesta_consciente.corr,respuesta_consciente.rt,respuesta_consciente.started,respuesta_consciente.stopped,cual_es_la_mas_barata.started,cual_es_la_mas_barata.stopped,image_4.started,image_4.stopped,text.started,text.stopped,image.started,image.stopped,respuesta_inmediato.keys,respuesta_inmediato.corr,respuesta_inmediato.rt,respuesta_inmediato.started,respuesta_inmediato.stopped,pregunta_cual_es_el_mas_barato.started,pregunta_cual_es_el_mas_barato.stopped,short_stim1.started,short_stim1.stopped,gracias.started,gracias.stopped,respuesta1.keys,respuesta1.rt,respuesta1.started,respuesta1.stopped,pregunta1.started,pregunta1.stopped,respuesta3bis_3.keys,respuesta3bis_3.rt,respuesta3bis_3.started,respuesta3bis_3.stopped,pregunta3_3.started,pregunta3_3.stopped,productoCon3RANGOSabc_3.started,productoCon3RANGOSabc_3.stopped,text_3.started,text_3.stopped,key_resp_2.keys,key_resp_2.rt,key_resp_2.started,key_resp_2.stopped,participant,session,group,date,expName,psychopyVersion,frameRate,
8,14,14,999,0.5,0:10,3,White,None,,,,,,,0,0,0,0,0,0,0,0,,,,,,,,,,,,,,,,,,,,,12.634240529994713,None,31.170931311004097,None,31.170931311004097,None,53.16438504299731,53.67984245700063,None,1,53.16438504299731,None,,,,,,,,,,,,,,,,,,,,,,,,,,,,,,,,,,,,,,,,,,,,,,,,,,,,,,,,,,,,,,,,,,,,,,,,joacoC,001,b,2019_Oct_10_1236,Experimento,3.2.3,60.16507865748587,
8,14,14,999,0.5,0:10,3,Red,None,,,,,,,0,0,0,0,0,1,1,1,,,,,,,,,,,,,,,,,,,,,,,,,,,55.17943151600775,55.67950082500465,None,1,55.17943151600775,55.17943151600775,,,,,,,,,,,,,,,,,,,,,,,,,,,,,,,,,,,,,,,,,,,,,,,,,,,,,,,,,,,,,,,,,,,,,,,,joacoC,001,b,2019_Oct_10_1236,Experimento,3.2.3,60.16507865748587,
8,14,14,999,0.5,0:10,3,Magenta,None,,,,,,,0,0,0,0,0,2,2,2,,,,,,,,,,,,,,,,,,,,,,,,,,,57.17863151100755,57.67880370399507,None,1,57.17863151100755,57.17863151100755,,,,,,,,,,,,,,,,,,,,,,,,,,,,,,,,,,,,,,,,,,,,,,,,,,,,,,,,,,,,,,,,,,,,,,,,joacoC,001,b,2019_Oct_10_1236,Experimento,3.2.3,60.16507865748587,
8,14,14,999,0.5,0:10,3,Cyan,None,,,,,,,0,0,0,0,0,3,3,3,,,,,,,,,,,,,,,,,,,,,,,,,,,59.17833855999925,59.67812237900216,None,1,59.17833855999925,59.17833855999925,,,,,,,,,,,,,,,,,,,,,,,,,,,,,,,,,,,,,,,,,,,,,,,,,,,,,,,,,,,,,,,,,,,,,,,,joacoC,001,b,2019_Oct_10_1236,Experimento,3.2.3,60.16507865748587,
8,14,14,999,0.5,0:10,3,Magenta,['space'],,,,,,,0,0,0,0,0,4,4,4,,,,,,,,,,,,,,,,,,,,,,,,,,,61.177748720001546,61.677508680004394,['return'],0,61.177748720001546,61.177748720001546,[1.6286149679945083],,,,,,,,,,,,,,,,,,,,,,,,,,,,,,,,,,,,,,,,,,,,,,,,,,,,,,,,,,,,,,,,,,,,,,,joacoC,001,b,2019_Oct_10_1236,Experimento,3.2.3,60.16507865748587,
8,14,14,999,0.5,0:10,3,Green,None,,,,,,,0,0,0,0,0,5,5,5,,,,,,,,,,,,,,,,,,,,,,,,,,,63.19324753500405,63.693094709000434,None,1,63.19324753500405,63.19324753500405,,,,,,,,,,,,,,,,,,,,,,,,,,,,,,,,,,,,,,,,,,,,,,,,,,,,,,,,,,,,,,,,,,,,,,,,joacoC,001,b,2019_Oct_10_1236,Experimento,3.2.3,60.16507865748587,
8,14,14,999,0.5,0:10,3,White,None,,,,,,,0,0,0,0,0,6,6,6,,,,,,,,,,,,,,,,,,,,,,,,,,,65.19257373499568,65.69277525000507,None,1,65.19257373499568,65.19257373499568,,,,,,,,,,,,,,,,,,,,,,,,,,,,,,,,,,,,,,,,,,,,,,,,,,,,,,,,,,,,,,,,,,,,,,,,joacoC,001,b,2019_Oct_10_1236,Experimento,3.2.3,60.16507865748587,
8,14,14,999,0.5,0:10,3,Green,['space'],,,,,,,0,0,0,0,0,7,7,7,,,,,,,,,,,,,,,,,,,,,,,,,,,67.19218169999658,67.69208585600427,['return'],0,67.19218169999658,67.19218169999658,[1.316957816001377],,,,,,,,,,,,,,,,,,,,,,,,,,,,,,,,,,,,,,,,,,,,,,,,,,,,,,,,,,,,,,,,,,,,,,,joacoC,001,b,2019_Oct_10_1236,Experimento,3.2.3,60.16507865748587,
8,14,14,999,0.5,0:10,3,Blue,None,,,,,,,0,0,0,0,0,8,8,8,,,,,,,,,,,,,,,,,,,,,,,,,,,69.1915176199982,69.69141493999632,None,1,69.1915176199982,69.1915176199982,,,,,,,,,,,,,,,,,,,,,,,,,,,,,,,,,,,,,,,,,,,,,,,,,,,,,,,,,,,,,,,,,,,,,,,,joacoC,001,b,2019_Oct_10_1236,Experimento,3.2.3,60.16507865748587,
8,14,14,999,0.5,0:10,3,Green,['space'],,,,,,,0,0,0,0,0,9,9,9,,,,,,,,,,,,,,,,,,,,,,,,,,,71.19084826699691,71.6907136200025,['return'],0,71.19084826699691,71.19084826699691,[1.382765135000227],,,,,,,,,,,,,,,,,,,,,,,,,,,,,,,,,,,,,,,,,,,,,,,,,,,,,,,,,,,,,,,,,,,,,,,joacoC,001,b,2019_Oct_10_1236,Experimento,3.2.3,60.16507865748587,
8,14,14,999,0.5,0:10,3,Yellow,None,0,0,1,15:50,./completed_changuitos/montage_bpcqe_100.49_89.0.jpg,left,0,0,0,0,,,,,0,0,0,0,,,,,,,,,0,0,0,0,0,0,0,0,,,,,,,,,,,,,,73.29963846299506,82.78693629600457,82.78693629600457,None,90.80611836000753,91.31734902500466,None,1,90.80611836000753,None,,,,,,,,,,,,,,,,,,,,,,,,,,,,,,,,,,,,,,,,,,,,,,,,,,,,,,,,,,,,,joacoC,001,b,2019_Oct_10_1236,Experimento,3.2.3,60.16507865748587,
8,14,14,999,0.5,0:10,3,White,['space'],0,0,1,15:50,./completed_changuitos/montage_bpcqe_100.49_89.0.jpg,left,0,0,0,0,,,,,0,0,0,0,,,,,,,,,0,0,0,0,0,1,1,1,,,,,,,,,,,,,,,,,,92.81667630700395,93.31666373700136,None,0,92.81667630700395,92.81667630700395,,,,,,,,,,,,,,,,,,,,,,,,,,,,,,,,,,,,,,,,,,,,,,,,,,,,,,,,,,,,,joacoC,001,b,2019_Oct_10_1236,Experimento,3.2.3,60.16507865748587,
8,14,14,999,0.5,0:10,3,Magenta,None,0,0,1,15:50,./completed_changuitos/montage_bpcqe_100.49_89.0.jpg,left,0,0,0,0,,,,,0,0,0,0,,,,,,,,,0,0,0,0,0,2,2,2,,,,,,,,,,,,,,,,,,94.81588565300626,95.31593118900491,None,1,94.81588565300626,94.81588565300626,,,,,,,,,,,,,,,,,,,,,,,,,,,,,,,,,,,,,,,,,,,,,,,,,,,,,,,,,,,,,joacoC,001,b,2019_Oct_10_1236,Experimento,3.2.3,60.16507865748587,
8,14,14,999,0.5,0:10,3,Cyan,None,0,0,1,15:50,./completed_changuitos/montage_bpcqe_100.49_89.0.jpg,left,0,0,0,0,,,,,0,0,0,0,,,,,,,,,0,0,0,0,0,3,3,3,,,,,,,,,,,,,,,,,,96.81537295199814,97.31529118900653,None,1,96.81537295199814,96.81537295199814,,,,,,,,,,,,,,,,,,,,,,,,,,,,,,,,,,,,,,,,,,,,,,,,,,,,,,,,,,,,,joacoC,001,b,2019_Oct_10_1236,Experimento,3.2.3,60.16507865748587,
8,14,14,999,0.5,0:10,3,Blue,None,0,0,1,15:50,./completed_changuitos/montage_bpcqe_100.49_89.0.jpg,left,0,0,0,0,,,,,0,0,0,0,,,,,,,,,0,0,0,0,0,4,4,4,,,,,,,,,,,,,,,,,,98.81474580199574,99.31463182999869,None,1,98.81474580199574,98.81474580199574,,,,,,,,,,,,,,,,,,,,,,,,,,,,,,,,,,,,,,,,,,,,,,,,,,,,,,,,,,,,,joacoC,001,b,2019_Oct_10_1236,Experimento,3.2.3,60.16507865748587,
8,14,14,999,0.5,0:10,3,Magenta,None,0,0,1,15:50,./completed_changuitos/montage_bpcqe_100.49_89.0.jpg,left,0,0,0,0,,,,,0,0,0,0,,,,,,,,,0,0,0,0,0,5,5,5,,,,,,,,,,,,,,,,,,100.81406808500469,101.3139433440083,['return'],0,100.81406808500469,100.81406808500469,[1.1336096609884407],,,,,,,,,,,,,,,,,,,,,,,,,,,,,,,,,,,,,,,,,,,,,,,,,,,,,,,,,,,,joacoC,001,b,2019_Oct_10_1236,Experimento,3.2.3,60.16507865748587,
8,14,14,999,0.5,0:10,3,Blue,['space'],0,0,1,15:50,./completed_changuitos/montage_bpcqe_100.49_89.0.jpg,left,0,0,0,0,,,,,0,0,0,0,,,,,,,,,0,0,0,0,0,6,6,6,,,,,,,,,,,,,,,,,,102.81335784299881,103.31328520100215,['return'],0,102.81335784299881,102.81335784299881,[1.268052619008813],,,,,,,,,,,,,,,,,,,,,,,,,,,,,,,,,,,,,,,,,,,,,,,,,,,,,,,,,,,,joacoC,001,b,2019_Oct_10_1236,Experimento,3.2.3,60.16507865748587,
8,14,14,999,0.5,0:10,3,Cyan,None,0,0,1,15:50,./completed_changuitos/montage_bpcqe_100.49_89.0.jpg,left,0,0,0,0,,,,,0,0,0,0,,,,,,,,,0,0,0,0,0,7,7,7,,,,,,,,,,,,,,,,,,104.81276249279472,None,None,1,104.81276249279472,None,,,,,,,,,,,,,,,,,,,,,,,,,,,,,,,,,,,,,,,,,,,,,,,,,,,,,,,,,,,,,joacoC,001,b,2019_Oct_10_1236,Experimento,3.2.3,60.16507865748587,
8,14,14,999,0.5,0:10,3,Yellow,None,0,0,1,15:50,./completed_changuitos/montage_bpcqe_100.49_89.0.jpg,left,0,0,0,0,,,,,0,0,0,0,,,,,,,,,0,0,0,0,0,8,8,8,,,,,,,,,,,,,,,,,,104.81276249279472,None,None,1,104.81276249279472,None,,,,,,,,,,,,,,,,,,,,,,,,,,,,,,,,,,,,,,,,,,,,,,,,,,,,,,,,,,,,,joacoC,001,b,2019_Oct_10_1236,Experimento,3.2.3,60.16507865748587,
8,14,14,999,0.5,0:10,3,Cyan,None,0,0,1,15:50,./completed_changuitos/montage_bpcqe_100.49_89.0.jpg,left,0,0,0,0,,,,,0,0,0,0,,,,,,,,,0,0,0,0,0,9,9,9,,,,,,,,,,,,,,,,,,104.81276249279472,None,None,1,104.81276249279472,None,,,,,,,,,,,,,,,,,,,,,,,,,,,,,,,,,,,,,,,,,,,,,,,,,,,,,,,,,,,,,joacoC,001,b,2019_Oct_10_1236,Experimento,3.2.3,60.16507865748587,
8,14,14,999,0.5,0:10,3,Blue,None,0,0,1,15:50,./completed_changuitos/montage_bpcqe_100.49_89.0.jpg,left,0,0,0,0,,,,,0,0,0,0,,,,,,,,,0,0,0,0,0,10,10,10,,,,,,,,,,,,,,,,,,104.81276249279472,None,None,1,104.81276249279472,None,,,,,,,,,,,,,,,,,,,,,,,,,,,,,,,,,,,,,,,,,,,,,,,,,,,,,,,,,,,,,joacoC,001,b,2019_Oct_10_1236,Experimento,3.2.3,60.16507865748587,
8,14,14,999,0.5,0:10,3,Cyan,['space'],0,0,1,15:50,./completed_changuitos/montage_bpcqe_100.49_89.0.jpg,left,0,0,0,0,,,,,0,0,0,0,,,,,,,,,0,0,0,0,0,11,11,11,,,,,,,,,,,,,,,,,,104.82942975459446,None,None,0,104.82942975459446,None,,,,,,,,,,,,,,,,,,,,,,,,,,,,,,,,,,,,,,,,,,,,,,,,,,,,,,,,,,,,,joacoC,001,b,2019_Oct_10_1236,Experimento,3.2.3,60.16507865748587,
8,14,14,999,0.5,0:10,3,Magenta,None,0,0,1,15:50,./completed_changuitos/montage_bpcqe_100.49_89.0.jpg,left,0,0,0,0,,,,,0,0,0,0,,,,,,,,,0,0,0,0,0,12,12,12,,,,,,,,,,,,,,,,,,104.82942975459446,None,None,1,104.82942975459446,None,,,,,,,,,,,,,,,,,,,,,,,,,,,,,,,,,,,,,,,,,,,,,,,,,,,,,,,,,,,,,joacoC,001,b,2019_Oct_10_1236,Experimento,3.2.3,60.16507865748587,
8,14,14,999,0.5,0:10,3,Red,None,0,0,1,15:50,./completed_changuitos/montage_bpcqe_100.49_89.0.jpg,left,0,0,0,0,,,,,0,0,0,0,,,,,,,,,0,0,0,0,0,13,13,13,,,,,,,,,,,,,,,,,,104.82942975459446,None,None,1,104.82942975459446,None,,,,,,,,,,,,,,,,,,,,,,,,,,,,,,,,,,,,,,,,,,,,,,,,,,,,,,,,,,,,,joacoC,001,b,2019_Oct_10_1236,Experimento,3.2.3,60.16507865748587,
8,14,14,999,0.5,0:10,3,Magenta,['space'],0,0,1,15:50,./completed_changuitos/montage_bpcqe_100.49_89.0.jpg,left,0,0,0,0,,,,,0,0,0,0,,,,,,,,,0,0,0,0,0,14,14,14,,,,,,,,,,,,,,,,,,104.82942975459446,None,None,0,104.82942975459446,None,,,,,,,,,,,,,,,,,,,,,,,,,,,,,,,,,,,,,,,,,,,,,,,,,,,,,,,,,,,,,joacoC,001,b,2019_Oct_10_1236,Experimento,3.2.3,60.16507865748587,
8,14,14,999,0.5,0:10,3,Green,None,0,0,1,15:50,./completed_changuitos/montage_bpcqe_100.49_89.0.jpg,left,0,0,0,0,,,,,0,0,0,0,,,,,,,,,0,0,0,0,0,15,15,15,,,,,,,,,,,,,,,,,,104.82942975459446,None,None,1,104.82942975459446,None,,,,,,,,,,,,,,,,,,,,,,,,,,,,,,,,,,,,,,,,,,,,,,,,,,,,,,,,,,,,,joacoC,001,b,2019_Oct_10_1236,Experimento,3.2.3,60.16507865748587,
8,14,14,999,0.5,0:10,3,Yellow,['space'],0,0,1,15:50,./completed_changuitos/montage_bpcqe_100.49_89.0.jpg,left,0,0,0,0,,,,,0,0,0,0,,,,,,,,,0,0,0,0,0,16,16,16,,,,,,,,,,,,,,,,,,104.82942975459446,None,None,0,104.82942975459446,None,,,,,,,,,,,,,,,,,,,,,,,,,,,,,,,,,,,,,,,,,,,,,,,,,,,,,,,,,,,,,joacoC,001,b,2019_Oct_10_1236,Experimento,3.2.3,60.16507865748587,
8,14,14,999,0.5,0:10,3,Blue,None,0,0,1,15:50,./completed_changuitos/montage_bpcqe_100.49_89.0.jpg,left,0,0,0,0,,,,,0,0,0,0,,,,,,,,,0,0,0,0,0,17,17,17,,,,,,,,,,,,,,,,,,104.8460970163942,None,None,1,104.8460970163942,None,,,,,,,,,,,,,,,,,,,,,,,,,,,,,,,,,,,,,,,,,,,,,,,,,,,,,,,,,,,,,joacoC,001,b,2019_Oct_10_1236,Experimento,3.2.3,60.16507865748587,
8,14,14,999,0.5,0:10,3,Cyan,None,0,0,1,15:50,./completed_changuitos/montage_bpcqe_100.49_89.0.jpg,left,0,0,0,0,,,,,0,0,0,0,,,,,,,,,0,0,0,0,0,18,18,18,,,,,,,,,,,,,,,,,,104.8460970163942,None,None,1,104.8460970163942,None,,,,,,,,,,,,,,,,,,,,,,,,,,,,,,,,,,,,,,,,,,,,,,,,,,,,,,,,,,,,,joacoC,001,b,2019_Oct_10_1236,Experimento,3.2.3,60.16507865748587,
8,14,14,999,0.5,0:10,3,Blue,['space'],0,0,1,15:50,./completed_changuitos/montage_bpcqe_100.49_89.0.jpg,left,0,0,0,0,,,,,0,0,0,0,,,,,,,,,0,0,0,0,0,19,19,19,,,,,,,,,,,,,,,,,,104.8460970163942,None,None,0,104.8460970163942,None,,,,,,,,,,,,,,,,,,,,,,,,,,,,,,,,,,,,,,,,,,,,,,,,,,,,,,,,,,,,,joacoC,001,b,2019_Oct_10_1236,Experimento,3.2.3,60.16507865748587,
8,14,14,999,0.5,0:10,3,Yellow,None,0,0,1,15:50,./completed_changuitos/montage_bpcqe_100.49_89.0.jpg,left,0,0,0,0,,,,,0,0,0,0,,,,,,,,,0,0,0,0,0,20,20,20,,,,,,,,,,,,,,,,,,104.8460970163942,None,None,1,104.8460970163942,None,,,,,,,,,,,,,,,,,,,,,,,,,,,,,,,,,,,,,,,,,,,,,,,,,,,,,,,,,,,,,joacoC,001,b,2019_Oct_10_1236,Experimento,3.2.3,60.16507865748587,
8,14,14,999,0.5,0:10,3,Cyan,None,0,0,1,15:50,./completed_changuitos/montage_bpcqe_100.49_89.0.jpg,left,0,0,0,0,,,,,0,0,0,0,,,,,,,,,0,0,0,0,0,21,21,21,,,,,,,,,,,,,,,,,,104.8460970163942,None,None,1,104.8460970163942,None,,,,,,,,,,,,,,,,,,,,,,,,,,,,,,,,,,,,,,,,,,,,,,,,,,,,,,,,,,,,,joacoC,001,b,2019_Oct_10_1236,Experimento,3.2.3,60.16507865748587,
8,14,14,999,0.5,0:10,3,Yellow,['space'],0,0,1,15:50,./completed_changuitos/montage_bpcqe_100.49_89.0.jpg,left,0,0,0,0,,,,,0,0,0,0,,,,,,,,,0,0,0,0,0,22,22,22,,,,,,,,,,,,,,,,,,104.8460970163942,None,None,0,104.8460970163942,None,,,,,,,,,,,,,,,,,,,,,,,,,,,,,,,,,,,,,,,,,,,,,,,,,,,,,,,,,,,,,joacoC,001,b,2019_Oct_10_1236,Experimento,3.2.3,60.16507865748587,
8,14,14,999,0.5,0:10,3,Magenta,None,0,0,1,15:50,./completed_changuitos/montage_bpcqe_100.49_89.0.jpg,left,0,0,0,0,,,,,0,0,0,0,,,,,,,,,0,0,0,0,0,23,23,23,,,,,,,,,,,,,,,,,,104.8460970163942,None,None,1,104.8460970163942,None,,,,,,,,,,,,,,,,,,,,,,,,,,,,,,,,,,,,,,,,,,,,,,,,,,,,,,,,,,,,,joacoC,001,b,2019_Oct_10_1236,Experimento,3.2.3,60.16507865748587,
8,14,14,999,0.5,0:10,3,Red,None,0,0,1,15:50,./completed_changuitos/montage_bpcqe_100.49_89.0.jpg,left,0,0,0,0,,,,,0,0,0,0,,,,,,,,,0,0,0,0,0,24,24,24,,,,,,,,,,,,,,,,,,104.8460970163942,None,None,1,104.8460970163942,None,,,,,,,,,,,,,,,,,,,,,,,,,,,,,,,,,,,,,,,,,,,,,,,,,,,,,,,,,,,,,joacoC,001,b,2019_Oct_10_1236,Experimento,3.2.3,60.16507865748587,
8,14,14,999,0.5,0:10,3,Magenta,['space'],0,0,1,15:50,./completed_changuitos/montage_bpcqe_100.49_89.0.jpg,left,0,0,0,0,,,,,0,0,0,0,,,,,,,,,0,0,0,0,0,25,25,25,,,,,,,,,,,,,,,,,,104.8460970163942,None,None,0,104.8460970163942,None,,,,,,,,,,,,,,,,,,,,,,,,,,,,,,,,,,,,,,,,,,,,,,,,,,,,,,,,,,,,,joacoC,001,b,2019_Oct_10_1236,Experimento,3.2.3,60.16507865748587,
8,14,14,999,0.5,0:10,3,Red,['space'],0,0,1,15:50,./completed_changuitos/montage_bpcqe_100.49_89.0.jpg,left,0,0,0,0,,,,,0,0,0,0,,,,,,,,,0,0,0,0,0,26,26,26,,,,,,,,,,,,,,,,,,104.8460970163942,None,None,0,104.8460970163942,None,,,,,,,,,,,,,,,,,,,,,,,,,,,,,,,,,,,,,,,,,,,,,,,,,,,,,,,,,,,,,joacoC,001,b,2019_Oct_10_1236,Experimento,3.2.3,60.16507865748587,
8,14,14,999,0.5,0:10,3,Yellow,None,0,0,1,15:50,./completed_changuitos/montage_bpcqe_100.49_89.0.jpg,left,0,0,0,0,,,,,0,0,0,0,,,,,,,,,0,0,0,0,0,27,27,27,,,,,,,,,,,,,,,,,,104.8460970163942,None,None,1,104.8460970163942,None,,,,,,,,,,,,,,,,,,,,,,,,,,,,,,,,,,,,,,,,,,,,,,,,,,,,,,,,,,,,,joacoC,001,b,2019_Oct_10_1236,Experimento,3.2.3,60.16507865748587,
8,14,14,999,0.5,0:10,3,Cyan,None,0,0,1,15:50,./completed_changuitos/montage_bpcqe_100.49_89.0.jpg,left,0,0,0,0,,,,,0,0,0,0,,,,,,,,,0,0,0,0,0,28,28,28,,,,,,,,,,,,,,,,,,104.8460970163942,None,None,1,104.8460970163942,None,,,,,,,,,,,,,,,,,,,,,,,,,,,,,,,,,,,,,,,,,,,,,,,,,,,,,,,,,,,,,joacoC,001,b,2019_Oct_10_1236,Experimento,3.2.3,60.16507865748587,
8,14,14,999,0.5,0:10,3,Green,None,0,0,1,15:50,./completed_changuitos/montage_bpcqe_100.49_89.0.jpg,left,0,0,0,0,,,,,0,0,0,0,,,,,,,,,0,0,0,0,0,29,29,29,,,,,,,,,,,,,,,,,,104.86276427819394,None,None,1,104.86276427819394,None,,,,,,,,,,,,,,,,,,,,,,,,,,,,,,,,,,,,,,,,,,,,,,,,,,,,,,,,,,,,,joacoC,001,b,2019_Oct_10_1236,Experimento,3.2.3,60.16507865748587,
8,14,14,999,0.5,0:10,3,White,None,0,0,1,15:50,./completed_changuitos/montage_bpcqe_100.49_89.0.jpg,left,0,0,0,0,,,,,0,0,0,0,,,,,,,,,0,0,0,0,0,30,30,30,,,,,,,,,,,,,,,,,,104.86276427819394,None,None,1,104.86276427819394,None,,,,,,,,,,,,,,,,,,,,,,,,,,,,,,,,,,,,,,,,,,,,,,,,,,,,,,,,,,,,,joacoC,001,b,2019_Oct_10_1236,Experimento,3.2.3,60.16507865748587,
8,14,14,999,0.5,0:10,3,Green,['space'],0,0,1,15:50,./completed_changuitos/montage_bpcqe_100.49_89.0.jpg,left,0,0,0,0,,,,,0,0,0,0,,,,,,,,,0,0,0,0,0,31,31,31,,,,,,,,,,,,,,,,,,104.86276427819394,None,None,0,104.86276427819394,None,,,,,,,,,,,,,,,,,,,,,,,,,,,,,,,,,,,,,,,,,,,,,,,,,,,,,,,,,,,,,joacoC,001,b,2019_Oct_10_1236,Experimento,3.2.3,60.16507865748587,
8,14,14,999,0.5,0:10,3,Red,None,0,0,1,15:50,./completed_changuitos/montage_bpcqe_100.49_89.0.jpg,left,0,0,0,0,,,,,0,0,0,0,,,,,,,,,0,0,0,0,0,32,32,32,,,,,,,,,,,,,,,,,,104.86276427819394,None,None,1,104.86276427819394,None,,,,,,,,,,,,,,,,,,,,,,,,,,,,,,,,,,,,,,,,,,,,,,,,,,,,,,,,,,,,,joacoC,001,b,2019_Oct_10_1236,Experimento,3.2.3,60.16507865748587,
8,14,14,999,0.5,0:10,3,Blue,None,0,0,1,15:50,./completed_changuitos/montage_bpcqe_100.49_89.0.jpg,left,0,0,0,0,,,,,0,0,0,0,,,,,,,,,0,0,0,0,0,33,33,33,,,,,,,,,,,,,,,,,,104.86276427819394,None,None,1,104.86276427819394,None,,,,,,,,,,,,,,,,,,,,,,,,,,,,,,,,,,,,,,,,,,,,,,,,,,,,,,,,,,,,,joacoC,001,b,2019_Oct_10_1236,Experimento,3.2.3,60.16507865748587,
8,14,14,999,0.5,0:10,3,Green,None,0,0,1,15:50,./completed_changuitos/montage_bpcqe_100.49_89.0.jpg,left,0,0,0,0,,,,,0,0,0,0,,,,,,,,,0,0,0,0,0,34,34,34,,,,,,,,,,,,,,,,,,104.86276427819394,None,None,1,104.86276427819394,None,,,,,,,,,,,,,,,,,,,,,,,,,,,,,,,,,,,,,,,,,,,,,,,,,,,,,,,,,,,,,joacoC,001,b,2019_Oct_10_1236,Experimento,3.2.3,60.16507865748587,
8,14,14,999,0.5,0:10,3,,,0,0,1,15:50,./completed_changuitos/montage_bpcqe_100.49_89.0.jpg,left,0,0,0,0,,,,,0,0,0,0,,,,,,,,,0,0,0,0,,,,,,,,,,,,,,,,,,,,,,,,,,,,,104.89859584199439,None,right,0,2.8958557790028863,104.89859584199439,None,104.89859584199439,None,,,,,,,,,,,,,,,,,,,,,,,,,,,,,,,,,,,,,,,,,,,,,,,,,,,joacoC,001,b,2019_Oct_10_1236,Experimento,3.2.3,60.16507865748587,
8,14,14,999,0.5,0:10,3,,,0,0,1,15:50,,,0,0,0,0,,,,,0,0,0,0,,,,,,,,,,,,,,,,,,,,,,,,,,,,,,,,,,,,,,,,,,,,,,,,,,,,,,,,,,,,,,,,,,,,,,,,,,,,,,,,,,,,,,,,,,,,,,,,,,,,joacoC,001,b,2019_Oct_10_1236,Experimento,3.2.3,60.16507865748587,
8,14,14,999,0.5,0:10,3,,,0,1,0,19:50,./completed_changuitos/montage_btlkv_345.5_293.19.jpg,left,0,0,0,0,,,,,0,1,1,1,,,,,0,0,0,0,,,,,,,,,,,,,,,,,,,,,,,,,,,,,,,,,,,,,,,,,,107.97806382700219,110.3775662620028,110.3775662620028,118.3914208579954,118.3914208579954,132.40337355900556,left,1,2.8828234450047603,132.40337355900556,None,132.40337355900556,None,132.40337355900556,None,,,,,,,,,,,,,,,,,,,,,,,,,,,,,,,,,,,,joacoC,001,b,2019_Oct_10_1236,Experimento,3.2.3,60.16507865748587,
8,14,14,999,0.5,0:10,3,,,0,1,0,19:50,,,0,0,0,0,,,,,0,1,1,1,,,,,,,,,,,,,,,,,,,,,,,,,,,,,,,,,,,,,,,,,,,,,,,,,,,,,,,,,,,,,,,,,,,,,,,,,,,,,,,,,,,,,,,,,,,,,,,,,,,,joacoC,001,b,2019_Oct_10_1236,Experimento,3.2.3,60.16507865748587,
8,14,14,999,0.5,0:10,3,Magenta,None,0,0,1,20:50,./completed_changuitos/montage_aqfii_171.19_148.75.jpg,left,0,0,0,0,,,,,0,2,2,2,,,,,,,,,0,0,0,0,0,0,0,0,,,,,,,,,,,,,,135.42158352000115,139.05109798400372,139.05109798400372,None,147.06991411700437,147.58102273300756,None,1,147.06991411700437,None,,,,,,,,,,,,,,,,,,,,,,,,,,,,,,,,,,,,,,,,,,,,,,,,,,,,,,,,,,,,,joacoC,001,b,2019_Oct_10_1236,Experimento,3.2.3,60.16507865748587,
8,14,14,999,0.5,0:10,3,Blue,['space'],0,0,1,20:50,./completed_changuitos/montage_aqfii_171.19_148.75.jpg,left,0,0,0,0,,,,,0,2,2,2,,,,,,,,,0,0,0,0,0,1,1,1,,,,,,,,,,,,,,,,,,149.08081534900703,149.58081257200683,None,0,149.08081534900703,149.08081534900703,,,,,,,,,,,,,,,,,,,,,,,,,,,,,,,,,,,,,,,,,,,,,,,,,,,,,,,,,,,,,joacoC,001,b,2019_Oct_10_1236,Experimento,3.2.3,60.16507865748587,
8,14,14,999,0.5,0:10,3,Cyan,None,0,0,1,20:50,./completed_changuitos/montage_aqfii_171.19_148.75.jpg,left,0,0,0,0,,,,,0,2,2,2,,,,,,,,,0,0,0,0,0,2,2,2,,,,,,,,,,,,,,,,,,151.08052177799982,151.58007612799702,None,1,151.08052177799982,151.08052177799982,,,,,,,,,,,,,,,,,,,,,,,,,,,,,,,,,,,,,,,,,,,,,,,,,,,,,,,,,,,,,joacoC,001,b,2019_Oct_10_1236,Experimento,3.2.3,60.16507865748587,
8,14,14,999,0.5,0:10,3,Yellow,None,0,0,1,20:50,./completed_changuitos/montage_aqfii_171.19_148.75.jpg,left,0,0,0,0,,,,,0,2,2,2,,,,,,,,,0,0,0,0,0,3,3,3,,,,,,,,,,,,,,,,,,153.07960370200453,153.5793893539958,None,1,153.07960370200453,153.07960370200453,,,,,,,,,,,,,,,,,,,,,,,,,,,,,,,,,,,,,,,,,,,,,,,,,,,,,,,,,,,,,joacoC,001,b,2019_Oct_10_1236,Experimento,3.2.3,60.16507865748587,
8,14,14,999,0.5,0:10,3,Cyan,None,0,0,1,20:50,./completed_changuitos/montage_aqfii_171.19_148.75.jpg,left,0,0,0,0,,,,,0,2,2,2,,,,,,,,,0,0,0,0,0,4,4,4,,,,,,,,,,,,,,,,,,155.07848892500624,155.57842589099891,None,1,155.07848892500624,155.07848892500624,,,,,,,,,,,,,,,,,,,,,,,,,,,,,,,,,,,,,,,,,,,,,,,,,,,,,,,,,,,,,joacoC,001,b,2019_Oct_10_1236,Experimento,3.2.3,60.16507865748587,
8,14,14,999,0.5,0:10,3,Blue,None,0,0,1,20:50,./completed_changuitos/montage_aqfii_171.19_148.75.jpg,left,0,0,0,0,,,,,0,2,2,2,,,,,,,,,0,0,0,0,0,5,5,5,,,,,,,,,,,,,,,,,,157.0782757650013,157.57805293200363,None,1,157.0782757650013,157.0782757650013,,,,,,,,,,,,,,,,,,,,,,,,,,,,,,,,,,,,,,,,,,,,,,,,,,,,,,,,,,,,,joacoC,001,b,2019_Oct_10_1236,Experimento,3.2.3,60.16507865748587,
8,14,14,999,0.5,0:10,3,Cyan,['space'],0,0,1,20:50,./completed_changuitos/montage_aqfii_171.19_148.75.jpg,left,0,0,0,0,,,,,0,2,2,2,,,,,,,,,0,0,0,0,0,6,6,6,,,,,,,,,,,,,,,,,,159.0774941790005,159.577338521005,['return'],0,159.0774941790005,159.0774941790005,[1.4002681830024812],,,,,,,,,,,,,,,,,,,,,,,,,,,,,,,,,,,,,,,,,,,,,,,,,,,,,,,,,,,,joacoC,001,b,2019_Oct_10_1236,Experimento,3.2.3,60.16507865748587,
8,14,14,999,0.5,0:10,3,Magenta,None,0,0,1,20:50,./completed_changuitos/montage_aqfii_171.19_148.75.jpg,left,0,0,0,0,,,,,0,2,2,2,,,,,,,,,0,0,0,0,0,7,7,7,,,,,,,,,,,,,,,,,,161.07685045179824,None,None,1,161.07685045179824,None,,,,,,,,,,,,,,,,,,,,,,,,,,,,,,,,,,,,,,,,,,,,,,,,,,,,,,,,,,,,,joacoC,001,b,2019_Oct_10_1236,Experimento,3.2.3,60.16507865748587,
8,14,14,999,0.5,0:10,3,Red,None,0,0,1,20:50,./completed_changuitos/montage_aqfii_171.19_148.75.jpg,left,0,0,0,0,,,,,0,2,2,2,,,,,,,,,0,0,0,0,0,8,8,8,,,,,,,,,,,,,,,,,,161.07685045179824,None,None,1,161.07685045179824,None,,,,,,,,,,,,,,,,,,,,,,,,,,,,,,,,,,,,,,,,,,,,,,,,,,,,,,,,,,,,,joacoC,001,b,2019_Oct_10_1236,Experimento,3.2.3,60.16507865748587,
8,14,14,999,0.5,0:10,3,Magenta,['space'],0,0,1,20:50,./completed_changuitos/montage_aqfii_171.19_148.75.jpg,left,0,0,0,0,,,,,0,2,2,2,,,,,,,,,0,0,0,0,0,9,9,9,,,,,,,,,,,,,,,,,,161.07685045179824,None,None,0,161.07685045179824,None,,,,,,,,,,,,,,,,,,,,,,,,,,,,,,,,,,,,,,,,,,,,,,,,,,,,,,,,,,,,,joacoC,001,b,2019_Oct_10_1236,Experimento,3.2.3,60.16507865748587,
8,14,14,999,0.5,0:10,3,Green,None,0,0,1,20:50,./completed_changuitos/montage_aqfii_171.19_148.75.jpg,left,0,0,0,0,,,,,0,2,2,2,,,,,,,,,0,0,0,0,0,10,10,10,,,,,,,,,,,,,,,,,,161.07685045179824,None,None,1,161.07685045179824,None,,,,,,,,,,,,,,,,,,,,,,,,,,,,,,,,,,,,,,,,,,,,,,,,,,,,,,,,,,,,,joacoC,001,b,2019_Oct_10_1236,Experimento,3.2.3,60.16507865748587,
8,14,14,999,0.5,0:10,3,Yellow,['space'],0,0,1,20:50,./completed_changuitos/montage_aqfii_171.19_148.75.jpg,left,0,0,0,0,,,,,0,2,2,2,,,,,,,,,0,0,0,0,0,11,11,11,,,,,,,,,,,,,,,,,,161.09351771359798,None,None,0,161.09351771359798,None,,,,,,,,,,,,,,,,,,,,,,,,,,,,,,,,,,,,,,,,,,,,,,,,,,,,,,,,,,,,,joacoC,001,b,2019_Oct_10_1236,Experimento,3.2.3,60.16507865748587,
8,14,14,999,0.5,0:10,3,Blue,None,0,0,1,20:50,./completed_changuitos/montage_aqfii_171.19_148.75.jpg,left,0,0,0,0,,,,,0,2,2,2,,,,,,,,,0,0,0,0,0,12,12,12,,,,,,,,,,,,,,,,,,161.09351771359798,None,None,1,161.09351771359798,None,,,,,,,,,,,,,,,,,,,,,,,,,,,,,,,,,,,,,,,,,,,,,,,,,,,,,,,,,,,,,joacoC,001,b,2019_Oct_10_1236,Experimento,3.2.3,60.16507865748587,
8,14,14,999,0.5,0:10,3,Cyan,None,0,0,1,20:50,./completed_changuitos/montage_aqfii_171.19_148.75.jpg,left,0,0,0,0,,,,,0,2,2,2,,,,,,,,,0,0,0,0,0,13,13,13,,,,,,,,,,,,,,,,,,161.09351771359798,None,None,1,161.09351771359798,None,,,,,,,,,,,,,,,,,,,,,,,,,,,,,,,,,,,,,,,,,,,,,,,,,,,,,,,,,,,,,joacoC,001,b,2019_Oct_10_1236,Experimento,3.2.3,60.16507865748587,
8,14,14,999,0.5,0:10,3,Blue,['space'],0,0,1,20:50,./completed_changuitos/montage_aqfii_171.19_148.75.jpg,left,0,0,0,0,,,,,0,2,2,2,,,,,,,,,0,0,0,0,0,14,14,14,,,,,,,,,,,,,,,,,,161.09351771359798,None,None,0,161.09351771359798,None,,,,,,,,,,,,,,,,,,,,,,,,,,,,,,,,,,,,,,,,,,,,,,,,,,,,,,,,,,,,,joacoC,001,b,2019_Oct_10_1236,Experimento,3.2.3,60.16507865748587,
8,14,14,999,0.5,0:10,3,Yellow,None,0,0,1,20:50,./completed_changuitos/montage_aqfii_171.19_148.75.jpg,left,0,0,0,0,,,,,0,2,2,2,,,,,,,,,0,0,0,0,0,15,15,15,,,,,,,,,,,,,,,,,,161.09351771359798,None,None,1,161.09351771359798,None,,,,,,,,,,,,,,,,,,,,,,,,,,,,,,,,,,,,,,,,,,,,,,,,,,,,,,,,,,,,,joacoC,001,b,2019_Oct_10_1236,Experimento,3.2.3,60.16507865748587,
8,14,14,999,0.5,0:10,3,Cyan,None,0,0,1,20:50,./completed_changuitos/montage_aqfii_171.19_148.75.jpg,left,0,0,0,0,,,,,0,2,2,2,,,,,,,,,0,0,0,0,0,16,16,16,,,,,,,,,,,,,,,,,,161.11018497539771,None,None,1,161.11018497539771,None,,,,,,,,,,,,,,,,,,,,,,,,,,,,,,,,,,,,,,,,,,,,,,,,,,,,,,,,,,,,,joacoC,001,b,2019_Oct_10_1236,Experimento,3.2.3,60.16507865748587,
8,14,14,999,0.5,0:10,3,Yellow,['space'],0,0,1,20:50,./completed_changuitos/montage_aqfii_171.19_148.75.jpg,left,0,0,0,0,,,,,0,2,2,2,,,,,,,,,0,0,0,0,0,17,17,17,,,,,,,,,,,,,,,,,,161.11018497539771,None,None,0,161.11018497539771,None,,,,,,,,,,,,,,,,,,,,,,,,,,,,,,,,,,,,,,,,,,,,,,,,,,,,,,,,,,,,,joacoC,001,b,2019_Oct_10_1236,Experimento,3.2.3,60.16507865748587,
8,14,14,999,0.5,0:10,3,Magenta,None,0,0,1,20:50,./completed_changuitos/montage_aqfii_171.19_148.75.jpg,left,0,0,0,0,,,,,0,2,2,2,,,,,,,,,0,0,0,0,0,18,18,18,,,,,,,,,,,,,,,,,,161.11018497539771,None,None,1,161.11018497539771,None,,,,,,,,,,,,,,,,,,,,,,,,,,,,,,,,,,,,,,,,,,,,,,,,,,,,,,,,,,,,,joacoC,001,b,2019_Oct_10_1236,Experimento,3.2.3,60.16507865748587,
8,14,14,999,0.5,0:10,3,Red,None,0,0,1,20:50,./completed_changuitos/montage_aqfii_171.19_148.75.jpg,left,0,0,0,0,,,,,0,2,2,2,,,,,,,,,0,0,0,0,0,19,19,19,,,,,,,,,,,,,,,,,,161.11018497539771,None,None,1,161.11018497539771,None,,,,,,,,,,,,,,,,,,,,,,,,,,,,,,,,,,,,,,,,,,,,,,,,,,,,,,,,,,,,,joacoC,001,b,2019_Oct_10_1236,Experimento,3.2.3,60.16507865748587,
8,14,14,999,0.5,0:10,3,Magenta,['space'],0,0,1,20:50,./completed_changuitos/montage_aqfii_171.19_148.75.jpg,left,0,0,0,0,,,,,0,2,2,2,,,,,,,,,0,0,0,0,0,20,20,20,,,,,,,,,,,,,,,,,,161.11018497539771,None,None,0,161.11018497539771,None,,,,,,,,,,,,,,,,,,,,,,,,,,,,,,,,,,,,,,,,,,,,,,,,,,,,,,,,,,,,,joacoC,001,b,2019_Oct_10_1236,Experimento,3.2.3,60.16507865748587,
8,14,14,999,0.5,0:10,3,Red,['space'],0,0,1,20:50,./completed_changuitos/montage_aqfii_171.19_148.75.jpg,left,0,0,0,0,,,,,0,2,2,2,,,,,,,,,0,0,0,0,0,21,21,21,,,,,,,,,,,,,,,,,,161.11018497539771,None,None,0,161.11018497539771,None,,,,,,,,,,,,,,,,,,,,,,,,,,,,,,,,,,,,,,,,,,,,,,,,,,,,,,,,,,,,,joacoC,001,b,2019_Oct_10_1236,Experimento,3.2.3,60.16507865748587,
8,14,14,999,0.5,0:10,3,Yellow,None,0,0,1,20:50,./completed_changuitos/montage_aqfii_171.19_148.75.jpg,left,0,0,0,0,,,,,0,2,2,2,,,,,,,,,0,0,0,0,0,22,22,22,,,,,,,,,,,,,,,,,,161.11018497539771,None,None,1,161.11018497539771,None,,,,,,,,,,,,,,,,,,,,,,,,,,,,,,,,,,,,,,,,,,,,,,,,,,,,,,,,,,,,,joacoC,001,b,2019_Oct_10_1236,Experimento,3.2.3,60.16507865748587,
8,14,14,999,0.5,0:10,3,Cyan,None,0,0,1,20:50,./completed_changuitos/montage_aqfii_171.19_148.75.jpg,left,0,0,0,0,,,,,0,2,2,2,,,,,,,,,0,0,0,0,0,23,23,23,,,,,,,,,,,,,,,,,,161.11018497539771,None,None,1,161.11018497539771,None,,,,,,,,,,,,,,,,,,,,,,,,,,,,,,,,,,,,,,,,,,,,,,,,,,,,,,,,,,,,,joacoC,001,b,2019_Oct_10_1236,Experimento,3.2.3,60.16507865748587,
8,14,14,999,0.5,0:10,3,Green,None,0,0,1,20:50,./completed_changuitos/montage_aqfii_171.19_148.75.jpg,left,0,0,0,0,,,,,0,2,2,2,,,,,,,,,0,0,0,0,0,24,24,24,,,,,,,,,,,,,,,,,,161.11018497539771,None,None,1,161.11018497539771,None,,,,,,,,,,,,,,,,,,,,,,,,,,,,,,,,,,,,,,,,,,,,,,,,,,,,,,,,,,,,,joacoC,001,b,2019_Oct_10_1236,Experimento,3.2.3,60.16507865748587,
8,14,14,999,0.5,0:10,3,White,None,0,0,1,20:50,./completed_changuitos/montage_aqfii_171.19_148.75.jpg,left,0,0,0,0,,,,,0,2,2,2,,,,,,,,,0,0,0,0,0,25,25,25,,,,,,,,,,,,,,,,,,161.11018497539771,None,None,1,161.11018497539771,None,,,,,,,,,,,,,,,,,,,,,,,,,,,,,,,,,,,,,,,,,,,,,,,,,,,,,,,,,,,,,joacoC,001,b,2019_Oct_10_1236,Experimento,3.2.3,60.16507865748587,
8,14,14,999,0.5,0:10,3,Green,['space'],0,0,1,20:50,./completed_changuitos/montage_aqfii_171.19_148.75.jpg,left,0,0,0,0,,,,,0,2,2,2,,,,,,,,,0,0,0,0,0,26,26,26,,,,,,,,,,,,,,,,,,161.11018497539771,None,None,0,161.11018497539771,None,,,,,,,,,,,,,,,,,,,,,,,,,,,,,,,,,,,,,,,,,,,,,,,,,,,,,,,,,,,,,joacoC,001,b,2019_Oct_10_1236,Experimento,3.2.3,60.16507865748587,
8,14,14,999,0.5,0:10,3,Red,None,0,0,1,20:50,./completed_changuitos/montage_aqfii_171.19_148.75.jpg,left,0,0,0,0,,,,,0,2,2,2,,,,,,,,,0,0,0,0,0,27,27,27,,,,,,,,,,,,,,,,,,161.11018497539771,None,None,1,161.11018497539771,None,,,,,,,,,,,,,,,,,,,,,,,,,,,,,,,,,,,,,,,,,,,,,,,,,,,,,,,,,,,,,joacoC,001,b,2019_Oct_10_1236,Experimento,3.2.3,60.16507865748587,
8,14,14,999,0.5,0:10,3,Blue,None,0,0,1,20:50,./completed_changuitos/montage_aqfii_171.19_148.75.jpg,left,0,0,0,0,,,,,0,2,2,2,,,,,,,,,0,0,0,0,0,28,28,28,,,,,,,,,,,,,,,,,,161.12685223719745,None,None,1,161.12685223719745,None,,,,,,,,,,,,,,,,,,,,,,,,,,,,,,,,,,,,,,,,,,,,,,,,,,,,,,,,,,,,,joacoC,001,b,2019_Oct_10_1236,Experimento,3.2.3,60.16507865748587,
8,14,14,999,0.5,0:10,3,Green,None,0,0,1,20:50,./completed_changuitos/montage_aqfii_171.19_148.75.jpg,left,0,0,0,0,,,,,0,2,2,2,,,,,,,,,0,0,0,0,0,29,29,29,,,,,,,,,,,,,,,,,,161.12685223719745,None,None,1,161.12685223719745,None,,,,,,,,,,,,,,,,,,,,,,,,,,,,,,,,,,,,,,,,,,,,,,,,,,,,,,,,,,,,,joacoC,001,b,2019_Oct_10_1236,Experimento,3.2.3,60.16507865748587,
8,14,14,999,0.5,0:10,3,,,0,0,1,20:50,./completed_changuitos/montage_aqfii_171.19_148.75.jpg,left,0,0,0,0,,,,,0,2,2,2,,,,,,,,,0,0,0,0,,,,,,,,,,,,,,,,,,,,,,,,,,,,,161.15716504999727,None,left,1,2.234554405004019,161.15716504999727,None,161.15716504999727,None,,,,,,,,,,,,,,,,,,,,,,,,,,,,,,,,,,,,,,,,,,,,,,,,,,,joacoC,001,b,2019_Oct_10_1236,Experimento,3.2.3,60.16507865748587,
8,14,14,999,0.5,0:10,3,,,0,0,1,20:50,,,0,0,0,0,,,,,0,2,2,2,,,,,,,,,,,,,,,,,,,,,,,,,,,,,,,,,,,,,,,,,,,,,,,,,,,,,,,,,,,,,,,,,,,,,,,,,,,,,,,,,,,,,,,,,,,,,,,,,,,,joacoC,001,b,2019_Oct_10_1236,Experimento,3.2.3,60.16507865748587,
8,14,14,999,0.5,0:10,3,,,0,1,0,25:50,./completed_changuitos/montage_vqedq_36.9_41.99.jpg,right,0,0,0,0,,,,,0,3,3,3,,,,,0,0,0,0,,,,,,,,,,,,,,,,,,,,,,,,,,,,,,,,,,,,,,,,,,163.54455586400582,165.52533229200344,165.52533229200344,173.53925123400404,173.53925123400404,187.5508211819979,right,1,1.6002674060000572,187.5508211819979,None,187.5508211819979,None,187.5508211819979,None,,,,,,,,,,,,,,,,,,,,,,,,,,,,,,,,,,,,joacoC,001,b,2019_Oct_10_1236,Experimento,3.2.3,60.16507865748587,
8,14,14,999,0.5,0:10,3,,,0,1,0,25:50,,,0,0,0,0,,,,,0,3,3,3,,,,,,,,,,,,,,,,,,,,,,,,,,,,,,,,,,,,,,,,,,,,,,,,,,,,,,,,,,,,,,,,,,,,,,,,,,,,,,,,,,,,,,,,,,,,,,,,,,,,joacoC,001,b,2019_Oct_10_1236,Experimento,3.2.3,60.16507865748587,
8,14,14,999,0.5,0:10,3,Red,None,0,0,1,28:50,./completed_changuitos/montage_kgogj_56.6_49.25.jpg,left,0,0,0,0,,,,,0,4,4,4,,,,,,,,,0,0,0,0,0,0,0,0,,,,,,,,,,,,,,189.29039180499967,191.71632932999637,191.71632932999637,None,199.7571486740053,200.26344762199733,None,1,199.7571486740053,None,,,,,,,,,,,,,,,,,,,,,,,,,,,,,,,,,,,,,,,,,,,,,,,,,,,,,,,,,,,,,joacoC,001,b,2019_Oct_10_1236,Experimento,3.2.3,60.16507865748587,
8,14,14,999,0.5,0:10,3,Magenta,['space'],0,0,1,28:50,./completed_changuitos/montage_kgogj_56.6_49.25.jpg,left,0,0,0,0,,,,,0,4,4,4,,,,,,,,,0,0,0,0,0,1,1,1,,,,,,,,,,,,,,,,,,201.76282889899448,202.26274666300742,None,0,201.76282889899448,201.76282889899448,,,,,,,,,,,,,,,,,,,,,,,,,,,,,,,,,,,,,,,,,,,,,,,,,,,,,,,,,,,,,joacoC,001,b,2019_Oct_10_1236,Experimento,3.2.3,60.16507865748587,
8,14,14,999,0.5,0:10,3,Green,None,0,0,1,28:50,./completed_changuitos/montage_kgogj_56.6_49.25.jpg,left,0,0,0,0,,,,,0,4,4,4,,,,,,,,,0,0,0,0,0,2,2,2,,,,,,,,,,,,,,,,,,203.76185979800357,204.26210496600834,None,1,203.76185979800357,203.76185979800357,,,,,,,,,,,,,,,,,,,,,,,,,,,,,,,,,,,,,,,,,,,,,,,,,,,,,,,,,,,,,joacoC,001,b,2019_Oct_10_1236,Experimento,3.2.3,60.16507865748587,
8,14,14,999,0.5,0:10,3,Yellow,['space'],0,0,1,28:50,./completed_changuitos/montage_kgogj_56.6_49.25.jpg,left,0,0,0,0,,,,,0,4,4,4,,,,,,,,,0,0,0,0,0,3,3,3,,,,,,,,,,,,,,,,,,205.76153695800167,206.26142384200648,None,0,205.76153695800167,205.76153695800167,,,,,,,,,,,,,,,,,,,,,,,,,,,,,,,,,,,,,,,,,,,,,,,,,,,,,,,,,,,,,joacoC,001,b,2019_Oct_10_1236,Experimento,3.2.3,60.16507865748587,
8,14,14,999,0.5,0:10,3,Blue,None,0,0,1,28:50,./completed_changuitos/montage_kgogj_56.6_49.25.jpg,left,0,0,0,0,,,,,0,4,4,4,,,,,,,,,0,0,0,0,0,4,4,4,,,,,,,,,,,,,,,,,,207.7607929789956,208.26074248799705,None,1,207.7607929789956,207.7607929789956,,,,,,,,,,,,,,,,,,,,,,,,,,,,,,,,,,,,,,,,,,,,,,,,,,,,,,,,,,,,,joacoC,001,b,2019_Oct_10_1236,Experimento,3.2.3,60.16507865748587,
8,14,14,999,0.5,0:10,3,Cyan,None,0,0,1,28:50,./completed_changuitos/montage_kgogj_56.6_49.25.jpg,left,0,0,0,0,,,,,0,4,4,4,,,,,,,,,0,0,0,0,0,5,5,5,,,,,,,,,,,,,,,,,,209.76020341699768,210.26005476400314,None,1,209.76020341699768,209.76020341699768,,,,,,,,,,,,,,,,,,,,,,,,,,,,,,,,,,,,,,,,,,,,,,,,,,,,,,,,,,,,,joacoC,001,b,2019_Oct_10_1236,Experimento,3.2.3,60.16507865748587,
8,14,14,999,0.5,0:10,3,Blue,['space'],0,0,1,28:50,./completed_changuitos/montage_kgogj_56.6_49.25.jpg,left,0,0,0,0,,,,,0,4,4,4,,,,,,,,,0,0,0,0,0,6,6,6,,,,,,,,,,,,,,,,,,211.75937813300698,212.2593074500037,['return'],0,211.75937813300698,211.75937813300698,[0.9837949409993598],,,,,,,,,,,,,,,,,,,,,,,,,,,,,,,,,,,,,,,,,,,,,,,,,,,,,,,,,,,,joacoC,001,b,2019_Oct_10_1236,Experimento,3.2.3,60.16507865748587,
8,14,14,999,0.5,0:10,3,Yellow,None,0,0,1,28:50,./completed_changuitos/montage_kgogj_56.6_49.25.jpg,left,0,0,0,0,,,,,0,4,4,4,,,,,,,,,0,0,0,0,0,7,7,7,,,,,,,,,,,,,,,,,,213.74213035179855,None,None,1,213.74213035179855,None,,,,,,,,,,,,,,,,,,,,,,,,,,,,,,,,,,,,,,,,,,,,,,,,,,,,,,,,,,,,,joacoC,001,b,2019_Oct_10_1236,Experimento,3.2.3,60.16507865748587,
8,14,14,999,0.5,0:10,3,Cyan,None,0,0,1,28:50,./completed_changuitos/montage_kgogj_56.6_49.25.jpg,left,0,0,0,0,,,,,0,4,4,4,,,,,,,,,0,0,0,0,0,8,8,8,,,,,,,,,,,,,,,,,,213.74213035179855,None,None,1,213.74213035179855,None,,,,,,,,,,,,,,,,,,,,,,,,,,,,,,,,,,,,,,,,,,,,,,,,,,,,,,,,,,,,,joacoC,001,b,2019_Oct_10_1236,Experimento,3.2.3,60.16507865748587,
8,14,14,999,0.5,0:10,3,Yellow,['space'],0,0,1,28:50,./completed_changuitos/montage_kgogj_56.6_49.25.jpg,left,0,0,0,0,,,,,0,4,4,4,,,,,,,,,0,0,0,0,0,9,9,9,,,,,,,,,,,,,,,,,,213.74213035179855,None,None,0,213.74213035179855,None,,,,,,,,,,,,,,,,,,,,,,,,,,,,,,,,,,,,,,,,,,,,,,,,,,,,,,,,,,,,,joacoC,001,b,2019_Oct_10_1236,Experimento,3.2.3,60.16507865748587,
8,14,14,999,0.5,0:10,3,Magenta,None,0,0,1,28:50,./completed_changuitos/montage_kgogj_56.6_49.25.jpg,left,0,0,0,0,,,,,0,4,4,4,,,,,,,,,0,0,0,0,0,10,10,10,,,,,,,,,,,,,,,,,,213.74213035179855,None,None,1,213.74213035179855,None,,,,,,,,,,,,,,,,,,,,,,,,,,,,,,,,,,,,,,,,,,,,,,,,,,,,,,,,,,,,,joacoC,001,b,2019_Oct_10_1236,Experimento,3.2.3,60.16507865748587,
8,14,14,999,0.5,0:10,3,Red,None,0,0,1,28:50,./completed_changuitos/montage_kgogj_56.6_49.25.jpg,left,0,0,0,0,,,,,0,4,4,4,,,,,,,,,0,0,0,0,0,11,11,11,,,,,,,,,,,,,,,,,,213.7587976135983,None,None,1,213.7587976135983,None,,,,,,,,,,,,,,,,,,,,,,,,,,,,,,,,,,,,,,,,,,,,,,,,,,,,,,,,,,,,,joacoC,001,b,2019_Oct_10_1236,Experimento,3.2.3,60.16507865748587,
8,14,14,999,0.5,0:10,3,Magenta,['space'],0,0,1,28:50,./completed_changuitos/montage_kgogj_56.6_49.25.jpg,left,0,0,0,0,,,,,0,4,4,4,,,,,,,,,0,0,0,0,0,12,12,12,,,,,,,,,,,,,,,,,,213.7587976135983,None,None,0,213.7587976135983,None,,,,,,,,,,,,,,,,,,,,,,,,,,,,,,,,,,,,,,,,,,,,,,,,,,,,,,,,,,,,,joacoC,001,b,2019_Oct_10_1236,Experimento,3.2.3,60.16507865748587,
8,14,14,999,0.5,0:10,3,Red,['space'],0,0,1,28:50,./completed_changuitos/montage_kgogj_56.6_49.25.jpg,left,0,0,0,0,,,,,0,4,4,4,,,,,,,,,0,0,0,0,0,13,13,13,,,,,,,,,,,,,,,,,,213.7587976135983,None,None,0,213.7587976135983,None,,,,,,,,,,,,,,,,,,,,,,,,,,,,,,,,,,,,,,,,,,,,,,,,,,,,,,,,,,,,,joacoC,001,b,2019_Oct_10_1236,Experimento,3.2.3,60.16507865748587,
8,14,14,999,0.5,0:10,3,Yellow,None,0,0,1,28:50,./completed_changuitos/montage_kgogj_56.6_49.25.jpg,left,0,0,0,0,,,,,0,4,4,4,,,,,,,,,0,0,0,0,0,14,14,14,,,,,,,,,,,,,,,,,,213.7587976135983,None,None,1,213.7587976135983,None,,,,,,,,,,,,,,,,,,,,,,,,,,,,,,,,,,,,,,,,,,,,,,,,,,,,,,,,,,,,,joacoC,001,b,2019_Oct_10_1236,Experimento,3.2.3,60.16507865748587,
8,14,14,999,0.5,0:10,3,Cyan,None,0,0,1,28:50,./completed_changuitos/montage_kgogj_56.6_49.25.jpg,left,0,0,0,0,,,,,0,4,4,4,,,,,,,,,0,0,0,0,0,15,15,15,,,,,,,,,,,,,,,,,,213.7587976135983,None,None,1,213.7587976135983,None,,,,,,,,,,,,,,,,,,,,,,,,,,,,,,,,,,,,,,,,,,,,,,,,,,,,,,,,,,,,,joacoC,001,b,2019_Oct_10_1236,Experimento,3.2.3,60.16507865748587,
8,14,14,999,0.5,0:10,3,Green,None,0,0,1,28:50,./completed_changuitos/montage_kgogj_56.6_49.25.jpg,left,0,0,0,0,,,,,0,4,4,4,,,,,,,,,0,0,0,0,0,16,16,16,,,,,,,,,,,,,,,,,,213.7587976135983,None,None,1,213.7587976135983,None,,,,,,,,,,,,,,,,,,,,,,,,,,,,,,,,,,,,,,,,,,,,,,,,,,,,,,,,,,,,,joacoC,001,b,2019_Oct_10_1236,Experimento,3.2.3,60.16507865748587,
8,14,14,999,0.5,0:10,3,White,None,0,0,1,28:50,./completed_changuitos/montage_kgogj_56.6_49.25.jpg,left,0,0,0,0,,,,,0,4,4,4,,,,,,,,,0,0,0,0,0,17,17,17,,,,,,,,,,,,,,,,,,213.77546487539803,None,None,1,213.77546487539803,None,,,,,,,,,,,,,,,,,,,,,,,,,,,,,,,,,,,,,,,,,,,,,,,,,,,,,,,,,,,,,joacoC,001,b,2019_Oct_10_1236,Experimento,3.2.3,60.16507865748587,
8,14,14,999,0.5,0:10,3,Green,['space'],0,0,1,28:50,./completed_changuitos/montage_kgogj_56.6_49.25.jpg,left,0,0,0,0,,,,,0,4,4,4,,,,,,,,,0,0,0,0,0,18,18,18,,,,,,,,,,,,,,,,,,213.77546487539803,None,None,0,213.77546487539803,None,,,,,,,,,,,,,,,,,,,,,,,,,,,,,,,,,,,,,,,,,,,,,,,,,,,,,,,,,,,,,joacoC,001,b,2019_Oct_10_1236,Experimento,3.2.3,60.16507865748587,
8,14,14,999,0.5,0:10,3,Red,None,0,0,1,28:50,./completed_changuitos/montage_kgogj_56.6_49.25.jpg,left,0,0,0,0,,,,,0,4,4,4,,,,,,,,,0,0,0,0,0,19,19,19,,,,,,,,,,,,,,,,,,213.77546487539803,None,None,1,213.77546487539803,None,,,,,,,,,,,,,,,,,,,,,,,,,,,,,,,,,,,,,,,,,,,,,,,,,,,,,,,,,,,,,joacoC,001,b,2019_Oct_10_1236,Experimento,3.2.3,60.16507865748587,
8,14,14,999,0.5,0:10,3,Blue,None,0,0,1,28:50,./completed_changuitos/montage_kgogj_56.6_49.25.jpg,left,0,0,0,0,,,,,0,4,4,4,,,,,,,,,0,0,0,0,0,20,20,20,,,,,,,,,,,,,,,,,,213.77546487539803,None,None,1,213.77546487539803,None,,,,,,,,,,,,,,,,,,,,,,,,,,,,,,,,,,,,,,,,,,,,,,,,,,,,,,,,,,,,,joacoC,001,b,2019_Oct_10_1236,Experimento,3.2.3,60.16507865748587,
8,14,14,999,0.5,0:10,3,Green,None,0,0,1,28:50,./completed_changuitos/montage_kgogj_56.6_49.25.jpg,left,0,0,0,0,,,,,0,4,4,4,,,,,,,,,0,0,0,0,0,21,21,21,,,,,,,,,,,,,,,,,,213.77546487539803,None,None,1,213.77546487539803,None,,,,,,,,,,,,,,,,,,,,,,,,,,,,,,,,,,,,,,,,,,,,,,,,,,,,,,,,,,,,,joacoC,001,b,2019_Oct_10_1236,Experimento,3.2.3,60.16507865748587,
8,14,14,999,0.5,0:10,3,,,0,0,1,28:50,./completed_changuitos/montage_kgogj_56.6_49.25.jpg,left,0,0,0,0,,,,,0,4,4,4,,,,,,,,,0,0,0,0,,,,,,,,,,,,,,,,,,,,,,,,,,,,,213.8100176519947,None,left,1,2.5310144620016217,213.8100176519947,None,213.8100176519947,None,,,,,,,,,,,,,,,,,,,,,,,,,,,,,,,,,,,,,,,,,,,,,,,,,,,joacoC,001,b,2019_Oct_10_1236,Experimento,3.2.3,60.16507865748587,
8,14,14,999,0.5,0:10,3,,,0,0,1,28:50,,,0,0,0,0,,,,,0,4,4,4,,,,,,,,,,,,,,,,,,,,,,,,,,,,,,,,,,,,,,,,,,,,,,,,,,,,,,,,,,,,,,,,,,,,,,,,,,,,,,,,,,,,,,,,,,,,,,,,,,,,joacoC,001,b,2019_Oct_10_1236,Experimento,3.2.3,60.16507865748587,
8,14,14,999,0.5,0:10,3,,,0,1,0,10:50,./completed_changuitos/montage_dhnnx_103.79_117.7.jpg,right,0,0,0,0,,,,,0,5,5,5,,,,,0,0,0,0,,,,,,,,,,,,,,,,,,,,,,,,,,,,,,,,,,,,,,,,,,216.48338321100164,218.2406112690078,218.2406112690078,226.25453892099904,226.25453892099904,240.26644651399693,left,0,1.6832440739963204,240.26644651399693,None,240.26644651399693,None,240.26644651399693,None,,,,,,,,,,,,,,,,,,,,,,,,,,,,,,,,,,,,joacoC,001,b,2019_Oct_10_1236,Experimento,3.2.3,60.16507865748587,
8,14,14,999,0.5,0:10,3,,,0,1,0,10:50,,,0,0,0,0,,,,,0,5,5,5,,,,,,,,,,,,,,,,,,,,,,,,,,,,,,,,,,,,,,,,,,,,,,,,,,,,,,,,,,,,,,,,,,,,,,,,,,,,,,,,,,,,,,,,,,,,,,,,,,,,joacoC,001,b,2019_Oct_10_1236,Experimento,3.2.3,60.16507865748587,
8,14,14,999,0.5,0:10,3,Yellow,None,0,0,1,15:50,./completed_changuitos/montage_ljxlq_334.9_293.19.jpg,left,0,0,0,0,,,,,0,6,6,6,,,,,,,,,0,0,0,0,0,0,0,0,,,,,,,,,,,,,,242.0784125479986,243.51530924900726,243.51530924900726,None,251.53409111300425,252.0453913490055,None,1,251.53409111300425,None,,,,,,,,,,,,,,,,,,,,,,,,,,,,,,,,,,,,,,,,,,,,,,,,,,,,,,,,,,,,,joacoC,001,b,2019_Oct_10_1236,Experimento,3.2.3,60.16507865748587,
8,14,14,999,0.5,0:10,3,White,['space'],0,0,1,15:50,./completed_changuitos/montage_ljxlq_334.9_293.19.jpg,left,0,0,0,0,,,,,0,6,6,6,,,,,,,,,0,0,0,0,0,1,1,1,,,,,,,,,,,,,,,,,,253.5449101730046,254.04506021700217,None,0,253.5449101730046,253.5449101730046,,,,,,,,,,,,,,,,,,,,,,,,,,,,,,,,,,,,,,,,,,,,,,,,,,,,,,,,,,,,,joacoC,001,b,2019_Oct_10_1236,Experimento,3.2.3,60.16507865748587,
8,14,14,999,0.5,0:10,3,Magenta,None,0,0,1,15:50,./completed_changuitos/montage_ljxlq_334.9_293.19.jpg,left,0,0,0,0,,,,,0,6,6,6,,,,,,,,,0,0,0,0,0,2,2,2,,,,,,,,,,,,,,,,,,255.5444844099984,256.0443484849966,None,1,255.5444844099984,255.5444844099984,,,,,,,,,,,,,,,,,,,,,,,,,,,,,,,,,,,,,,,,,,,,,,,,,,,,,,,,,,,,,joacoC,001,b,2019_Oct_10_1236,Experimento,3.2.3,60.16507865748587,
8,14,14,999,0.5,0:10,3,Cyan,None,0,0,1,15:50,./completed_changuitos/montage_ljxlq_334.9_293.19.jpg,left,0,0,0,0,,,,,0,6,6,6,,,,,,,,,0,0,0,0,0,3,3,3,,,,,,,,,,,,,,,,,,257.5438028540084,258.0437323119986,None,1,257.5438028540084,257.5438028540084,,,,,,,,,,,,,,,,,,,,,,,,,,,,,,,,,,,,,,,,,,,,,,,,,,,,,,,,,,,,,joacoC,001,b,2019_Oct_10_1236,Experimento,3.2.3,60.16507865748587,
8,14,14,999,0.5,0:10,3,Blue,None,0,0,1,15:50,./completed_changuitos/montage_ljxlq_334.9_293.19.jpg,left,0,0,0,0,,,,,0,6,6,6,,,,,,,,,0,0,0,0,0,4,4,4,,,,,,,,,,,,,,,,,,259.54311207600404,260.0426502330083,None,1,259.54311207600404,259.54311207600404,,,,,,,,,,,,,,,,,,,,,,,,,,,,,,,,,,,,,,,,,,,,,,,,,,,,,,,,,,,,,joacoC,001,b,2019_Oct_10_1236,Experimento,3.2.3,60.16507865748587,
8,14,14,999,0.5,0:10,3,Magenta,None,0,0,1,15:50,./completed_changuitos/montage_ljxlq_334.9_293.19.jpg,left,0,0,0,0,,,,,0,6,6,6,,,,,,,,,0,0,0,0,0,5,5,5,,,,,,,,,,,,,,,,,,261.5423854719993,262.0423202920065,['return'],0,261.5423854719993,261.5423854719993,[1.5827166020026198],,,,,,,,,,,,,,,,,,,,,,,,,,,,,,,,,,,,,,,,,,,,,,,,,,,,,,,,,,,,joacoC,001,b,2019_Oct_10_1236,Experimento,3.2.3,60.16507865748587,
8,14,14,999,0.5,0:10,3,Blue,['space'],0,0,1,15:50,./completed_changuitos/montage_ljxlq_334.9_293.19.jpg,left,0,0,0,0,,,,,0,6,6,6,,,,,,,,,0,0,0,0,0,6,6,6,,,,,,,,,,,,,,,,,,263.54144837999775,264.0412952629995,['return'],0,263.54144837999775,263.54144837999775,[1.200458780003828],,,,,,,,,,,,,,,,,,,,,,,,,,,,,,,,,,,,,,,,,,,,,,,,,,,,,,,,,,,,joacoC,001,b,2019_Oct_10_1236,Experimento,3.2.3,60.16507865748587,
8,14,14,999,0.5,0:10,3,Cyan,None,0,0,1,15:50,./completed_changuitos/montage_ljxlq_334.9_293.19.jpg,left,0,0,0,0,,,,,0,6,6,6,,,,,,,,,0,0,0,0,0,7,7,7,,,,,,,,,,,,,,,,,,265.54117159780435,None,None,1,265.54117159780435,None,,,,,,,,,,,,,,,,,,,,,,,,,,,,,,,,,,,,,,,,,,,,,,,,,,,,,,,,,,,,,joacoC,001,b,2019_Oct_10_1236,Experimento,3.2.3,60.16507865748587,
8,14,14,999,0.5,0:10,3,Yellow,None,0,0,1,15:50,./completed_changuitos/montage_ljxlq_334.9_293.19.jpg,left,0,0,0,0,,,,,0,6,6,6,,,,,,,,,0,0,0,0,0,8,8,8,,,,,,,,,,,,,,,,,,265.54117159780435,None,None,1,265.54117159780435,None,,,,,,,,,,,,,,,,,,,,,,,,,,,,,,,,,,,,,,,,,,,,,,,,,,,,,,,,,,,,,joacoC,001,b,2019_Oct_10_1236,Experimento,3.2.3,60.16507865748587,
8,14,14,999,0.5,0:10,3,Cyan,None,0,0,1,15:50,./completed_changuitos/montage_ljxlq_334.9_293.19.jpg,left,0,0,0,0,,,,,0,6,6,6,,,,,,,,,0,0,0,0,0,9,9,9,,,,,,,,,,,,,,,,,,265.54117159780435,None,None,1,265.54117159780435,None,,,,,,,,,,,,,,,,,,,,,,,,,,,,,,,,,,,,,,,,,,,,,,,,,,,,,,,,,,,,,joacoC,001,b,2019_Oct_10_1236,Experimento,3.2.3,60.16507865748587,
8,14,14,999,0.5,0:10,3,Blue,None,0,0,1,15:50,./completed_changuitos/montage_ljxlq_334.9_293.19.jpg,left,0,0,0,0,,,,,0,6,6,6,,,,,,,,,0,0,0,0,0,10,10,10,,,,,,,,,,,,,,,,,,265.54117159780435,None,None,1,265.54117159780435,None,,,,,,,,,,,,,,,,,,,,,,,,,,,,,,,,,,,,,,,,,,,,,,,,,,,,,,,,,,,,,joacoC,001,b,2019_Oct_10_1236,Experimento,3.2.3,60.16507865748587,
8,14,14,999,0.5,0:10,3,Cyan,['space'],0,0,1,15:50,./completed_changuitos/montage_ljxlq_334.9_293.19.jpg,left,0,0,0,0,,,,,0,6,6,6,,,,,,,,,0,0,0,0,0,11,11,11,,,,,,,,,,,,,,,,,,265.5578388596041,None,None,0,265.5578388596041,None,,,,,,,,,,,,,,,,,,,,,,,,,,,,,,,,,,,,,,,,,,,,,,,,,,,,,,,,,,,,,joacoC,001,b,2019_Oct_10_1236,Experimento,3.2.3,60.16507865748587,
8,14,14,999,0.5,0:10,3,Magenta,None,0,0,1,15:50,./completed_changuitos/montage_ljxlq_334.9_293.19.jpg,left,0,0,0,0,,,,,0,6,6,6,,,,,,,,,0,0,0,0,0,12,12,12,,,,,,,,,,,,,,,,,,265.5578388596041,None,None,1,265.5578388596041,None,,,,,,,,,,,,,,,,,,,,,,,,,,,,,,,,,,,,,,,,,,,,,,,,,,,,,,,,,,,,,joacoC,001,b,2019_Oct_10_1236,Experimento,3.2.3,60.16507865748587,
8,14,14,999,0.5,0:10,3,Red,None,0,0,1,15:50,./completed_changuitos/montage_ljxlq_334.9_293.19.jpg,left,0,0,0,0,,,,,0,6,6,6,,,,,,,,,0,0,0,0,0,13,13,13,,,,,,,,,,,,,,,,,,265.5578388596041,None,None,1,265.5578388596041,None,,,,,,,,,,,,,,,,,,,,,,,,,,,,,,,,,,,,,,,,,,,,,,,,,,,,,,,,,,,,,joacoC,001,b,2019_Oct_10_1236,Experimento,3.2.3,60.16507865748587,
8,14,14,999,0.5,0:10,3,Magenta,['space'],0,0,1,15:50,./completed_changuitos/montage_ljxlq_334.9_293.19.jpg,left,0,0,0,0,,,,,0,6,6,6,,,,,,,,,0,0,0,0,0,14,14,14,,,,,,,,,,,,,,,,,,265.5578388596041,None,None,0,265.5578388596041,None,,,,,,,,,,,,,,,,,,,,,,,,,,,,,,,,,,,,,,,,,,,,,,,,,,,,,,,,,,,,,joacoC,001,b,2019_Oct_10_1236,Experimento,3.2.3,60.16507865748587,
8,14,14,999,0.5,0:10,3,Green,None,0,0,1,15:50,./completed_changuitos/montage_ljxlq_334.9_293.19.jpg,left,0,0,0,0,,,,,0,6,6,6,,,,,,,,,0,0,0,0,0,15,15,15,,,,,,,,,,,,,,,,,,265.5578388596041,None,None,1,265.5578388596041,None,,,,,,,,,,,,,,,,,,,,,,,,,,,,,,,,,,,,,,,,,,,,,,,,,,,,,,,,,,,,,joacoC,001,b,2019_Oct_10_1236,Experimento,3.2.3,60.16507865748587,
8,14,14,999,0.5,0:10,3,Yellow,['space'],0,0,1,15:50,./completed_changuitos/montage_ljxlq_334.9_293.19.jpg,left,0,0,0,0,,,,,0,6,6,6,,,,,,,,,0,0,0,0,0,16,16,16,,,,,,,,,,,,,,,,,,265.57450612140383,None,None,0,265.57450612140383,None,,,,,,,,,,,,,,,,,,,,,,,,,,,,,,,,,,,,,,,,,,,,,,,,,,,,,,,,,,,,,joacoC,001,b,2019_Oct_10_1236,Experimento,3.2.3,60.16507865748587,
8,14,14,999,0.5,0:10,3,Blue,None,0,0,1,15:50,./completed_changuitos/montage_ljxlq_334.9_293.19.jpg,left,0,0,0,0,,,,,0,6,6,6,,,,,,,,,0,0,0,0,0,17,17,17,,,,,,,,,,,,,,,,,,265.57450612140383,None,None,1,265.57450612140383,None,,,,,,,,,,,,,,,,,,,,,,,,,,,,,,,,,,,,,,,,,,,,,,,,,,,,,,,,,,,,,joacoC,001,b,2019_Oct_10_1236,Experimento,3.2.3,60.16507865748587,
8,14,14,999,0.5,0:10,3,Cyan,None,0,0,1,15:50,./completed_changuitos/montage_ljxlq_334.9_293.19.jpg,left,0,0,0,0,,,,,0,6,6,6,,,,,,,,,0,0,0,0,0,18,18,18,,,,,,,,,,,,,,,,,,265.57450612140383,None,None,1,265.57450612140383,None,,,,,,,,,,,,,,,,,,,,,,,,,,,,,,,,,,,,,,,,,,,,,,,,,,,,,,,,,,,,,joacoC,001,b,2019_Oct_10_1236,Experimento,3.2.3,60.16507865748587,
8,14,14,999,0.5,0:10,3,Blue,['space'],0,0,1,15:50,./completed_changuitos/montage_ljxlq_334.9_293.19.jpg,left,0,0,0,0,,,,,0,6,6,6,,,,,,,,,0,0,0,0,0,19,19,19,,,,,,,,,,,,,,,,,,265.57450612140383,None,None,0,265.57450612140383,None,,,,,,,,,,,,,,,,,,,,,,,,,,,,,,,,,,,,,,,,,,,,,,,,,,,,,,,,,,,,,joacoC,001,b,2019_Oct_10_1236,Experimento,3.2.3,60.16507865748587,
8,14,14,999,0.5,0:10,3,Yellow,None,0,0,1,15:50,./completed_changuitos/montage_ljxlq_334.9_293.19.jpg,left,0,0,0,0,,,,,0,6,6,6,,,,,,,,,0,0,0,0,0,20,20,20,,,,,,,,,,,,,,,,,,265.57450612140383,None,None,1,265.57450612140383,None,,,,,,,,,,,,,,,,,,,,,,,,,,,,,,,,,,,,,,,,,,,,,,,,,,,,,,,,,,,,,joacoC,001,b,2019_Oct_10_1236,Experimento,3.2.3,60.16507865748587,
8,14,14,999,0.5,0:10,3,Cyan,None,0,0,1,15:50,./completed_changuitos/montage_ljxlq_334.9_293.19.jpg,left,0,0,0,0,,,,,0,6,6,6,,,,,,,,,0,0,0,0,0,21,21,21,,,,,,,,,,,,,,,,,,265.57450612140383,None,None,1,265.57450612140383,None,,,,,,,,,,,,,,,,,,,,,,,,,,,,,,,,,,,,,,,,,,,,,,,,,,,,,,,,,,,,,joacoC,001,b,2019_Oct_10_1236,Experimento,3.2.3,60.16507865748587,
8,14,14,999,0.5,0:10,3,Yellow,['space'],0,0,1,15:50,./completed_changuitos/montage_ljxlq_334.9_293.19.jpg,left,0,0,0,0,,,,,0,6,6,6,,,,,,,,,0,0,0,0,0,22,22,22,,,,,,,,,,,,,,,,,,265.57450612140383,None,None,0,265.57450612140383,None,,,,,,,,,,,,,,,,,,,,,,,,,,,,,,,,,,,,,,,,,,,,,,,,,,,,,,,,,,,,,joacoC,001,b,2019_Oct_10_1236,Experimento,3.2.3,60.16507865748587,
8,14,14,999,0.5,0:10,3,Magenta,None,0,0,1,15:50,./completed_changuitos/montage_ljxlq_334.9_293.19.jpg,left,0,0,0,0,,,,,0,6,6,6,,,,,,,,,0,0,0,0,0,23,23,23,,,,,,,,,,,,,,,,,,265.57450612140383,None,None,1,265.57450612140383,None,,,,,,,,,,,,,,,,,,,,,,,,,,,,,,,,,,,,,,,,,,,,,,,,,,,,,,,,,,,,,joacoC,001,b,2019_Oct_10_1236,Experimento,3.2.3,60.16507865748587,
8,14,14,999,0.5,0:10,3,Red,None,0,0,1,15:50,./completed_changuitos/montage_ljxlq_334.9_293.19.jpg,left,0,0,0,0,,,,,0,6,6,6,,,,,,,,,0,0,0,0,0,24,24,24,,,,,,,,,,,,,,,,,,265.57450612140383,None,None,1,265.57450612140383,None,,,,,,,,,,,,,,,,,,,,,,,,,,,,,,,,,,,,,,,,,,,,,,,,,,,,,,,,,,,,,joacoC,001,b,2019_Oct_10_1236,Experimento,3.2.3,60.16507865748587,
8,14,14,999,0.5,0:10,3,Magenta,['space'],0,0,1,15:50,./completed_changuitos/montage_ljxlq_334.9_293.19.jpg,left,0,0,0,0,,,,,0,6,6,6,,,,,,,,,0,0,0,0,0,25,25,25,,,,,,,,,,,,,,,,,,265.57450612140383,None,None,0,265.57450612140383,None,,,,,,,,,,,,,,,,,,,,,,,,,,,,,,,,,,,,,,,,,,,,,,,,,,,,,,,,,,,,,joacoC,001,b,2019_Oct_10_1236,Experimento,3.2.3,60.16507865748587,
8,14,14,999,0.5,0:10,3,Red,['space'],0,0,1,15:50,./completed_changuitos/montage_ljxlq_334.9_293.19.jpg,left,0,0,0,0,,,,,0,6,6,6,,,,,,,,,0,0,0,0,0,26,26,26,,,,,,,,,,,,,,,,,,265.57450612140383,None,None,0,265.57450612140383,None,,,,,,,,,,,,,,,,,,,,,,,,,,,,,,,,,,,,,,,,,,,,,,,,,,,,,,,,,,,,,joacoC,001,b,2019_Oct_10_1236,Experimento,3.2.3,60.16507865748587,
8,14,14,999,0.5,0:10,3,Yellow,None,0,0,1,15:50,./completed_changuitos/montage_ljxlq_334.9_293.19.jpg,left,0,0,0,0,,,,,0,6,6,6,,,,,,,,,0,0,0,0,0,27,27,27,,,,,,,,,,,,,,,,,,265.57450612140383,None,None,1,265.57450612140383,None,,,,,,,,,,,,,,,,,,,,,,,,,,,,,,,,,,,,,,,,,,,,,,,,,,,,,,,,,,,,,joacoC,001,b,2019_Oct_10_1236,Experimento,3.2.3,60.16507865748587,
8,14,14,999,0.5,0:10,3,Cyan,None,0,0,1,15:50,./completed_changuitos/montage_ljxlq_334.9_293.19.jpg,left,0,0,0,0,,,,,0,6,6,6,,,,,,,,,0,0,0,0,0,28,28,28,,,,,,,,,,,,,,,,,,265.59117338320357,None,None,1,265.59117338320357,None,,,,,,,,,,,,,,,,,,,,,,,,,,,,,,,,,,,,,,,,,,,,,,,,,,,,,,,,,,,,,joacoC,001,b,2019_Oct_10_1236,Experimento,3.2.3,60.16507865748587,
8,14,14,999,0.5,0:10,3,Green,None,0,0,1,15:50,./completed_changuitos/montage_ljxlq_334.9_293.19.jpg,left,0,0,0,0,,,,,0,6,6,6,,,,,,,,,0,0,0,0,0,29,29,29,,,,,,,,,,,,,,,,,,265.59117338320357,None,None,1,265.59117338320357,None,,,,,,,,,,,,,,,,,,,,,,,,,,,,,,,,,,,,,,,,,,,,,,,,,,,,,,,,,,,,,joacoC,001,b,2019_Oct_10_1236,Experimento,3.2.3,60.16507865748587,
8,14,14,999,0.5,0:10,3,White,None,0,0,1,15:50,./completed_changuitos/montage_ljxlq_334.9_293.19.jpg,left,0,0,0,0,,,,,0,6,6,6,,,,,,,,,0,0,0,0,0,30,30,30,,,,,,,,,,,,,,,,,,265.59117338320357,None,None,1,265.59117338320357,None,,,,,,,,,,,,,,,,,,,,,,,,,,,,,,,,,,,,,,,,,,,,,,,,,,,,,,,,,,,,,joacoC,001,b,2019_Oct_10_1236,Experimento,3.2.3,60.16507865748587,
8,14,14,999,0.5,0:10,3,Green,['space'],0,0,1,15:50,./completed_changuitos/montage_ljxlq_334.9_293.19.jpg,left,0,0,0,0,,,,,0,6,6,6,,,,,,,,,0,0,0,0,0,31,31,31,,,,,,,,,,,,,,,,,,265.59117338320357,None,None,0,265.59117338320357,None,,,,,,,,,,,,,,,,,,,,,,,,,,,,,,,,,,,,,,,,,,,,,,,,,,,,,,,,,,,,,joacoC,001,b,2019_Oct_10_1236,Experimento,3.2.3,60.16507865748587,
8,14,14,999,0.5,0:10,3,Red,None,0,0,1,15:50,./completed_changuitos/montage_ljxlq_334.9_293.19.jpg,left,0,0,0,0,,,,,0,6,6,6,,,,,,,,,0,0,0,0,0,32,32,32,,,,,,,,,,,,,,,,,,265.59117338320357,None,None,1,265.59117338320357,None,,,,,,,,,,,,,,,,,,,,,,,,,,,,,,,,,,,,,,,,,,,,,,,,,,,,,,,,,,,,,joacoC,001,b,2019_Oct_10_1236,Experimento,3.2.3,60.16507865748587,
8,14,14,999,0.5,0:10,3,Blue,None,0,0,1,15:50,./completed_changuitos/montage_ljxlq_334.9_293.19.jpg,left,0,0,0,0,,,,,0,6,6,6,,,,,,,,,0,0,0,0,0,33,33,33,,,,,,,,,,,,,,,,,,265.59117338320357,None,None,1,265.59117338320357,None,,,,,,,,,,,,,,,,,,,,,,,,,,,,,,,,,,,,,,,,,,,,,,,,,,,,,,,,,,,,,joacoC,001,b,2019_Oct_10_1236,Experimento,3.2.3,60.16507865748587,
8,14,14,999,0.5,0:10,3,Green,None,0,0,1,15:50,./completed_changuitos/montage_ljxlq_334.9_293.19.jpg,left,0,0,0,0,,,,,0,6,6,6,,,,,,,,,0,0,0,0,0,34,34,34,,,,,,,,,,,,,,,,,,265.59117338320357,None,None,1,265.59117338320357,None,,,,,,,,,,,,,,,,,,,,,,,,,,,,,,,,,,,,,,,,,,,,,,,,,,,,,,,,,,,,,joacoC,001,b,2019_Oct_10_1236,Experimento,3.2.3,60.16507865748587,
8,14,14,999,0.5,0:10,3,,,0,0,1,15:50,./completed_changuitos/montage_ljxlq_334.9_293.19.jpg,left,0,0,0,0,,,,,0,6,6,6,,,,,,,,,0,0,0,0,,,,,,,,,,,,,,,,,,,,,,,,,,,,,265.6220310829958,None,right,0,1.285406476992648,265.6220310829958,None,265.6220310829958,None,,,,,,,,,,,,,,,,,,,,,,,,,,,,,,,,,,,,,,,,,,,,,,,,,,,joacoC,001,b,2019_Oct_10_1236,Experimento,3.2.3,60.16507865748587,
8,14,14,999,0.5,0:10,3,,,0,0,1,15:50,,,0,0,0,0,,,,,0,6,6,6,,,,,,,,,,,,,,,,,,,,,,,,,,,,,,,,,,,,,,,,,,,,,,,,,,,,,,,,,,,,,,,,,,,,,,,,,,,,,,,,,,,,,,,,,,,,,,,,,,,,joacoC,001,b,2019_Oct_10_1236,Experimento,3.2.3,60.16507865748587,
8,14,14,999,0.5,0:10,3,,,0,1,0,19:50,./completed_changuitos/montage_tuudx_138.05_116.65.jpg,left,0,0,0,0,,,,,0,7,7,7,,,,,0,0,0,0,,,,,,,,,,,,,,,,,,,,,,,,,,,,,,,,,,,,,,,,,,267.0439463490038,268.7566993609944,268.7566993609944,276.7706202650006,276.7706202650006,290.7824841289985,right,0,1.184658133002813,290.7824841289985,None,290.7824841289985,None,290.7824841289985,None,,,,,,,,,,,,,,,,,,,,,,,,,,,,,,,,,,,,joacoC,001,b,2019_Oct_10_1236,Experimento,3.2.3,60.16507865748587,
8,14,14,999,0.5,0:10,3,,,0,1,0,19:50,,,0,0,0,0,,,,,0,7,7,7,,,,,,,,,,,,,,,,,,,,,,,,,,,,,,,,,,,,,,,,,,,,,,,,,,,,,,,,,,,,,,,,,,,,,,,,,,,,,,,,,,,,,,,,,,,,,,,,,,,,joacoC,001,b,2019_Oct_10_1236,Experimento,3.2.3,60.16507865748587,
8,14,14,999,0.5,0:10,3,Magenta,None,0,0,1,20:50,./completed_changuitos/montage_nyplc_310.29_346.39.jpg,right,0,0,0,0,,,,,0,8,8,8,,,,,,,,,0,0,0,0,0,0,0,0,,,,,,,,,,,,,,292.1008532679989,293.73149203299545,293.73149203299545,None,301.77108083400526,302.27856605099805,None,1,301.77108083400526,None,,,,,,,,,,,,,,,,,,,,,,,,,,,,,,,,,,,,,,,,,,,,,,,,,,,,,,,,,,,,,joacoC,001,b,2019_Oct_10_1236,Experimento,3.2.3,60.16507865748587,
8,14,14,999,0.5,0:10,3,Blue,['space'],0,0,1,20:50,./completed_changuitos/montage_nyplc_310.29_346.39.jpg,right,0,0,0,0,,,,,0,8,8,8,,,,,,,,,0,0,0,0,0,1,1,1,,,,,,,,,,,,,,,,,,303.7779364409944,304.2779010840022,None,0,303.7779364409944,303.7779364409944,,,,,,,,,,,,,,,,,,,,,,,,,,,,,,,,,,,,,,,,,,,,,,,,,,,,,,,,,,,,,joacoC,001,b,2019_Oct_10_1236,Experimento,3.2.3,60.16507865748587,
8,14,14,999,0.5,0:10,3,Cyan,None,0,0,1,20:50,./completed_changuitos/montage_nyplc_310.29_346.39.jpg,right,0,0,0,0,,,,,0,8,8,8,,,,,,,,,0,0,0,0,0,2,2,2,,,,,,,,,,,,,,,,,,305.7773420230078,306.2771830959973,None,1,305.7773420230078,305.7773420230078,,,,,,,,,,,,,,,,,,,,,,,,,,,,,,,,,,,,,,,,,,,,,,,,,,,,,,,,,,,,,joacoC,001,b,2019_Oct_10_1236,Experimento,3.2.3,60.16507865748587,
8,14,14,999,0.5,0:10,3,Yellow,None,0,0,1,20:50,./completed_changuitos/montage_nyplc_310.29_346.39.jpg,right,0,0,0,0,,,,,0,8,8,8,,,,,,,,,0,0,0,0,0,3,3,3,,,,,,,,,,,,,,,,,,307.7790575889958,308.2931602989993,None,1,307.7790575889958,307.7790575889958,,,,,,,,,,,,,,,,,,,,,,,,,,,,,,,,,,,,,,,,,,,,,,,,,,,,,,,,,,,,,joacoC,001,b,2019_Oct_10_1236,Experimento,3.2.3,60.16507865748587,
8,14,14,999,0.5,0:10,3,Cyan,None,0,0,1,20:50,./completed_changuitos/montage_nyplc_310.29_346.39.jpg,right,0,0,0,0,,,,,0,8,8,8,,,,,,,,,0,0,0,0,0,4,4,4,,,,,,,,,,,,,,,,,,309.7923133029981,310.29209545999765,['return'],0,309.7923133029981,309.7923133029981,[0.8830528609978501],,,,,,,,,,,,,,,,,,,,,,,,,,,,,,,,,,,,,,,,,,,,,,,,,,,,,,,,,,,,joacoC,001,b,2019_Oct_10_1236,Experimento,3.2.3,60.16507865748587,
8,14,14,999,0.5,0:10,3,Blue,None,0,0,1,20:50,./completed_changuitos/montage_nyplc_310.29_346.39.jpg,right,0,0,0,0,,,,,0,8,8,8,,,,,,,,,0,0,0,0,0,5,5,5,,,,,,,,,,,,,,,,,,311.7916124170006,312.29141438100487,None,1,311.7916124170006,311.7916124170006,,,,,,,,,,,,,,,,,,,,,,,,,,,,,,,,,,,,,,,,,,,,,,,,,,,,,,,,,,,,,joacoC,001,b,2019_Oct_10_1236,Experimento,3.2.3,60.16507865748587,
8,14,14,999,0.5,0:10,3,Cyan,['space'],0,0,1,20:50,./completed_changuitos/montage_nyplc_310.29_346.39.jpg,right,0,0,0,0,,,,,0,8,8,8,,,,,,,,,0,0,0,0,0,6,6,6,,,,,,,,,,,,,,,,,,313.7912568710017,314.2911264160066,['return'],0,313.7912568710017,313.7912568710017,[0.967157363993465],,,,,,,,,,,,,,,,,,,,,,,,,,,,,,,,,,,,,,,,,,,,,,,,,,,,,,,,,,,,joacoC,001,b,2019_Oct_10_1236,Experimento,3.2.3,60.16507865748587,
8,14,14,999,0.5,0:10,3,Magenta,None,0,0,1,20:50,./completed_changuitos/montage_nyplc_310.29_346.39.jpg,right,0,0,0,0,,,,,0,8,8,8,,,,,,,,,0,0,0,0,0,7,7,7,,,,,,,,,,,,,,,,,,315.75726341580594,None,None,1,315.75726341580594,None,,,,,,,,,,,,,,,,,,,,,,,,,,,,,,,,,,,,,,,,,,,,,,,,,,,,,,,,,,,,,joacoC,001,b,2019_Oct_10_1236,Experimento,3.2.3,60.16507865748587,
8,14,14,999,0.5,0:10,3,Red,None,0,0,1,20:50,./completed_changuitos/montage_nyplc_310.29_346.39.jpg,right,0,0,0,0,,,,,0,8,8,8,,,,,,,,,0,0,0,0,0,8,8,8,,,,,,,,,,,,,,,,,,315.75726341580594,None,None,1,315.75726341580594,None,,,,,,,,,,,,,,,,,,,,,,,,,,,,,,,,,,,,,,,,,,,,,,,,,,,,,,,,,,,,,joacoC,001,b,2019_Oct_10_1236,Experimento,3.2.3,60.16507865748587,
8,14,14,999,0.5,0:10,3,Magenta,['space'],0,0,1,20:50,./completed_changuitos/montage_nyplc_310.29_346.39.jpg,right,0,0,0,0,,,,,0,8,8,8,,,,,,,,,0,0,0,0,0,9,9,9,,,,,,,,,,,,,,,,,,315.75726341580594,None,None,0,315.75726341580594,None,,,,,,,,,,,,,,,,,,,,,,,,,,,,,,,,,,,,,,,,,,,,,,,,,,,,,,,,,,,,,joacoC,001,b,2019_Oct_10_1236,Experimento,3.2.3,60.16507865748587,
8,14,14,999,0.5,0:10,3,Green,None,0,0,1,20:50,./completed_changuitos/montage_nyplc_310.29_346.39.jpg,right,0,0,0,0,,,,,0,8,8,8,,,,,,,,,0,0,0,0,0,10,10,10,,,,,,,,,,,,,,,,,,315.75726341580594,None,None,1,315.75726341580594,None,,,,,,,,,,,,,,,,,,,,,,,,,,,,,,,,,,,,,,,,,,,,,,,,,,,,,,,,,,,,,joacoC,001,b,2019_Oct_10_1236,Experimento,3.2.3,60.16507865748587,
8,14,14,999,0.5,0:10,3,Yellow,['space'],0,0,1,20:50,./completed_changuitos/montage_nyplc_310.29_346.39.jpg,right,0,0,0,0,,,,,0,8,8,8,,,,,,,,,0,0,0,0,0,11,11,11,,,,,,,,,,,,,,,,,,315.7739306776057,None,None,0,315.7739306776057,None,,,,,,,,,,,,,,,,,,,,,,,,,,,,,,,,,,,,,,,,,,,,,,,,,,,,,,,,,,,,,joacoC,001,b,2019_Oct_10_1236,Experimento,3.2.3,60.16507865748587,
8,14,14,999,0.5,0:10,3,Blue,None,0,0,1,20:50,./completed_changuitos/montage_nyplc_310.29_346.39.jpg,right,0,0,0,0,,,,,0,8,8,8,,,,,,,,,0,0,0,0,0,12,12,12,,,,,,,,,,,,,,,,,,315.7739306776057,None,None,1,315.7739306776057,None,,,,,,,,,,,,,,,,,,,,,,,,,,,,,,,,,,,,,,,,,,,,,,,,,,,,,,,,,,,,,joacoC,001,b,2019_Oct_10_1236,Experimento,3.2.3,60.16507865748587,
8,14,14,999,0.5,0:10,3,Cyan,None,0,0,1,20:50,./completed_changuitos/montage_nyplc_310.29_346.39.jpg,right,0,0,0,0,,,,,0,8,8,8,,,,,,,,,0,0,0,0,0,13,13,13,,,,,,,,,,,,,,,,,,315.7739306776057,None,None,1,315.7739306776057,None,,,,,,,,,,,,,,,,,,,,,,,,,,,,,,,,,,,,,,,,,,,,,,,,,,,,,,,,,,,,,joacoC,001,b,2019_Oct_10_1236,Experimento,3.2.3,60.16507865748587,
8,14,14,999,0.5,0:10,3,Blue,['space'],0,0,1,20:50,./completed_changuitos/montage_nyplc_310.29_346.39.jpg,right,0,0,0,0,,,,,0,8,8,8,,,,,,,,,0,0,0,0,0,14,14,14,,,,,,,,,,,,,,,,,,315.7739306776057,None,None,0,315.7739306776057,None,,,,,,,,,,,,,,,,,,,,,,,,,,,,,,,,,,,,,,,,,,,,,,,,,,,,,,,,,,,,,joacoC,001,b,2019_Oct_10_1236,Experimento,3.2.3,60.16507865748587,
8,14,14,999,0.5,0:10,3,Yellow,None,0,0,1,20:50,./completed_changuitos/montage_nyplc_310.29_346.39.jpg,right,0,0,0,0,,,,,0,8,8,8,,,,,,,,,0,0,0,0,0,15,15,15,,,,,,,,,,,,,,,,,,315.7739306776057,None,None,1,315.7739306776057,None,,,,,,,,,,,,,,,,,,,,,,,,,,,,,,,,,,,,,,,,,,,,,,,,,,,,,,,,,,,,,joacoC,001,b,2019_Oct_10_1236,Experimento,3.2.3,60.16507865748587,
8,14,14,999,0.5,0:10,3,Cyan,None,0,0,1,20:50,./completed_changuitos/montage_nyplc_310.29_346.39.jpg,right,0,0,0,0,,,,,0,8,8,8,,,,,,,,,0,0,0,0,0,16,16,16,,,,,,,,,,,,,,,,,,315.7739306776057,None,None,1,315.7739306776057,None,,,,,,,,,,,,,,,,,,,,,,,,,,,,,,,,,,,,,,,,,,,,,,,,,,,,,,,,,,,,,joacoC,001,b,2019_Oct_10_1236,Experimento,3.2.3,60.16507865748587,
8,14,14,999,0.5,0:10,3,Yellow,['space'],0,0,1,20:50,./completed_changuitos/montage_nyplc_310.29_346.39.jpg,right,0,0,0,0,,,,,0,8,8,8,,,,,,,,,0,0,0,0,0,17,17,17,,,,,,,,,,,,,,,,,,315.7905979394054,None,None,0,315.7905979394054,None,,,,,,,,,,,,,,,,,,,,,,,,,,,,,,,,,,,,,,,,,,,,,,,,,,,,,,,,,,,,,joacoC,001,b,2019_Oct_10_1236,Experimento,3.2.3,60.16507865748587,
8,14,14,999,0.5,0:10,3,Magenta,None,0,0,1,20:50,./completed_changuitos/montage_nyplc_310.29_346.39.jpg,right,0,0,0,0,,,,,0,8,8,8,,,,,,,,,0,0,0,0,0,18,18,18,,,,,,,,,,,,,,,,,,315.7905979394054,None,None,1,315.7905979394054,None,,,,,,,,,,,,,,,,,,,,,,,,,,,,,,,,,,,,,,,,,,,,,,,,,,,,,,,,,,,,,joacoC,001,b,2019_Oct_10_1236,Experimento,3.2.3,60.16507865748587,
8,14,14,999,0.5,0:10,3,Red,None,0,0,1,20:50,./completed_changuitos/montage_nyplc_310.29_346.39.jpg,right,0,0,0,0,,,,,0,8,8,8,,,,,,,,,0,0,0,0,0,19,19,19,,,,,,,,,,,,,,,,,,315.7905979394054,None,None,1,315.7905979394054,None,,,,,,,,,,,,,,,,,,,,,,,,,,,,,,,,,,,,,,,,,,,,,,,,,,,,,,,,,,,,,joacoC,001,b,2019_Oct_10_1236,Experimento,3.2.3,60.16507865748587,
8,14,14,999,0.5,0:10,3,Magenta,['space'],0,0,1,20:50,./completed_changuitos/montage_nyplc_310.29_346.39.jpg,right,0,0,0,0,,,,,0,8,8,8,,,,,,,,,0,0,0,0,0,20,20,20,,,,,,,,,,,,,,,,,,315.7905979394054,None,None,0,315.7905979394054,None,,,,,,,,,,,,,,,,,,,,,,,,,,,,,,,,,,,,,,,,,,,,,,,,,,,,,,,,,,,,,joacoC,001,b,2019_Oct_10_1236,Experimento,3.2.3,60.16507865748587,
8,14,14,999,0.5,0:10,3,Red,['space'],0,0,1,20:50,./completed_changuitos/montage_nyplc_310.29_346.39.jpg,right,0,0,0,0,,,,,0,8,8,8,,,,,,,,,0,0,0,0,0,21,21,21,,,,,,,,,,,,,,,,,,315.7905979394054,None,None,0,315.7905979394054,None,,,,,,,,,,,,,,,,,,,,,,,,,,,,,,,,,,,,,,,,,,,,,,,,,,,,,,,,,,,,,joacoC,001,b,2019_Oct_10_1236,Experimento,3.2.3,60.16507865748587,
8,14,14,999,0.5,0:10,3,Yellow,None,0,0,1,20:50,./completed_changuitos/montage_nyplc_310.29_346.39.jpg,right,0,0,0,0,,,,,0,8,8,8,,,,,,,,,0,0,0,0,0,22,22,22,,,,,,,,,,,,,,,,,,315.7905979394054,None,None,1,315.7905979394054,None,,,,,,,,,,,,,,,,,,,,,,,,,,,,,,,,,,,,,,,,,,,,,,,,,,,,,,,,,,,,,joacoC,001,b,2019_Oct_10_1236,Experimento,3.2.3,60.16507865748587,
8,14,14,999,0.5,0:10,3,Cyan,None,0,0,1,20:50,./completed_changuitos/montage_nyplc_310.29_346.39.jpg,right,0,0,0,0,,,,,0,8,8,8,,,,,,,,,0,0,0,0,0,23,23,23,,,,,,,,,,,,,,,,,,315.7905979394054,None,None,1,315.7905979394054,None,,,,,,,,,,,,,,,,,,,,,,,,,,,,,,,,,,,,,,,,,,,,,,,,,,,,,,,,,,,,,joacoC,001,b,2019_Oct_10_1236,Experimento,3.2.3,60.16507865748587,
8,14,14,999,0.5,0:10,3,Green,None,0,0,1,20:50,./completed_changuitos/montage_nyplc_310.29_346.39.jpg,right,0,0,0,0,,,,,0,8,8,8,,,,,,,,,0,0,0,0,0,24,24,24,,,,,,,,,,,,,,,,,,315.7905979394054,None,None,1,315.7905979394054,None,,,,,,,,,,,,,,,,,,,,,,,,,,,,,,,,,,,,,,,,,,,,,,,,,,,,,,,,,,,,,joacoC,001,b,2019_Oct_10_1236,Experimento,3.2.3,60.16507865748587,
8,14,14,999,0.5,0:10,3,White,None,0,0,1,20:50,./completed_changuitos/montage_nyplc_310.29_346.39.jpg,right,0,0,0,0,,,,,0,8,8,8,,,,,,,,,0,0,0,0,0,25,25,25,,,,,,,,,,,,,,,,,,315.7905979394054,None,None,1,315.7905979394054,None,,,,,,,,,,,,,,,,,,,,,,,,,,,,,,,,,,,,,,,,,,,,,,,,,,,,,,,,,,,,,joacoC,001,b,2019_Oct_10_1236,Experimento,3.2.3,60.16507865748587,
8,14,14,999,0.5,0:10,3,Green,['space'],0,0,1,20:50,./completed_changuitos/montage_nyplc_310.29_346.39.jpg,right,0,0,0,0,,,,,0,8,8,8,,,,,,,,,0,0,0,0,0,26,26,26,,,,,,,,,,,,,,,,,,315.7905979394054,None,None,0,315.7905979394054,None,,,,,,,,,,,,,,,,,,,,,,,,,,,,,,,,,,,,,,,,,,,,,,,,,,,,,,,,,,,,,joacoC,001,b,2019_Oct_10_1236,Experimento,3.2.3,60.16507865748587,
8,14,14,999,0.5,0:10,3,Red,None,0,0,1,20:50,./completed_changuitos/montage_nyplc_310.29_346.39.jpg,right,0,0,0,0,,,,,0,8,8,8,,,,,,,,,0,0,0,0,0,27,27,27,,,,,,,,,,,,,,,,,,315.7905979394054,None,None,1,315.7905979394054,None,,,,,,,,,,,,,,,,,,,,,,,,,,,,,,,,,,,,,,,,,,,,,,,,,,,,,,,,,,,,,joacoC,001,b,2019_Oct_10_1236,Experimento,3.2.3,60.16507865748587,
8,14,14,999,0.5,0:10,3,Blue,None,0,0,1,20:50,./completed_changuitos/montage_nyplc_310.29_346.39.jpg,right,0,0,0,0,,,,,0,8,8,8,,,,,,,,,0,0,0,0,0,28,28,28,,,,,,,,,,,,,,,,,,315.7905979394054,None,None,1,315.7905979394054,None,,,,,,,,,,,,,,,,,,,,,,,,,,,,,,,,,,,,,,,,,,,,,,,,,,,,,,,,,,,,,joacoC,001,b,2019_Oct_10_1236,Experimento,3.2.3,60.16507865748587,
8,14,14,999,0.5,0:10,3,Green,None,0,0,1,20:50,./completed_changuitos/montage_nyplc_310.29_346.39.jpg,right,0,0,0,0,,,,,0,8,8,8,,,,,,,,,0,0,0,0,0,29,29,29,,,,,,,,,,,,,,,,,,315.80726520120515,None,None,1,315.80726520120515,None,,,,,,,,,,,,,,,,,,,,,,,,,,,,,,,,,,,,,,,,,,,,,,,,,,,,,,,,,,,,,joacoC,001,b,2019_Oct_10_1236,Experimento,3.2.3,60.16507865748587,
8,14,14,999,0.5,0:10,3,,,0,0,1,20:50,./completed_changuitos/montage_nyplc_310.29_346.39.jpg,right,0,0,0,0,,,,,0,8,8,8,,,,,,,,,0,0,0,0,,,,,,,,,,,,,,,,,,,,,,,,,,,,,315.837800770998,None,left,0,0.6018909210106358,315.837800770998,None,315.837800770998,None,,,,,,,,,,,,,,,,,,,,,,,,,,,,,,,,,,,,,,,,,,,,,,,,,,,joacoC,001,b,2019_Oct_10_1236,Experimento,3.2.3,60.16507865748587,
8,14,14,999,0.5,0:10,3,,,0,0,1,20:50,,,0,0,0,0,,,,,0,8,8,8,,,,,,,,,,,,,,,,,,,,,,,,,,,,,,,,,,,,,,,,,,,,,,,,,,,,,,,,,,,,,,,,,,,,,,,,,,,,,,,,,,,,,,,,,,,,,,,,,,,,joacoC,001,b,2019_Oct_10_1236,Experimento,3.2.3,60.16507865748587,
8,14,14,999,0.5,0:10,3,,,0,1,0,25:50,./completed_changuitos/montage_ciynx_84.55_96.85.jpg,right,0,0,0,0,,,,,0,9,9,9,,,,,0,0,0,0,,,,,,,,,,,,,,,,,,,,,,,,,,,,,,,,,,,,,,,,,,316.5793265530083,317.88968896599545,317.88968896599545,325.9035187029949,325.9035187029949,339.9155729060003,left,0,1.050131500000134,339.9155729060003,None,339.9155729060003,None,339.9155729060003,None,,,,,,,,,,,,,,,,,,,,,,,,,,,,,,,,,,,,joacoC,001,b,2019_Oct_10_1236,Experimento,3.2.3,60.16507865748587,
8,14,14,999,0.5,0:10,3,,,0,1,0,25:50,,,0,0,0,0,,,,,0,9,9,9,,,,,,,,,,,,,,,,,,,,,,,,,,,,,,,,,,,,,,,,,,,,,,,,,,,,,,,,,,,,,,,,,,,,,,,,,,,,,,,,,,,,,,,,,,,,,,,,,,,,joacoC,001,b,2019_Oct_10_1236,Experimento,3.2.3,60.16507865748587,
8,14,14,999,0.5,0:10,3,Red,None,0,0,1,28:50,./completed_changuitos/montage_zkqit_176.55_148.39.jpg,left,0,0,0,0,,,,,0,10,10,10,,,,,,,,,0,0,0,0,0,0,0,0,,,,,,,,,,,,,,341.11521943000844,342.3314509299962,342.3314509299962,None,350.3617131880019,350.8618776950025,None,1,350.3617131880019,None,,,,,,,,,,,,,,,,,,,,,,,,,,,,,,,,,,,,,,,,,,,,,,,,,,,,,,,,,,,,,joacoC,001,b,2019_Oct_10_1236,Experimento,3.2.3,60.16507865748587,
8,14,14,999,0.5,0:10,3,Magenta,['space'],0,0,1,28:50,./completed_changuitos/montage_zkqit_176.55_148.39.jpg,left,0,0,0,0,,,,,0,10,10,10,,,,,,,,,0,0,0,0,0,1,1,1,,,,,,,,,,,,,,,,,,352.36129761100165,352.86113562999526,None,0,352.36129761100165,352.36129761100165,,,,,,,,,,,,,,,,,,,,,,,,,,,,,,,,,,,,,,,,,,,,,,,,,,,,,,,,,,,,,joacoC,001,b,2019_Oct_10_1236,Experimento,3.2.3,60.16507865748587,
8,14,14,999,0.5,0:10,3,Green,None,0,0,1,28:50,./completed_changuitos/montage_zkqit_176.55_148.39.jpg,left,0,0,0,0,,,,,0,10,10,10,,,,,,,,,0,0,0,0,0,2,2,2,,,,,,,,,,,,,,,,,,354.3605983029993,354.86017365800217,None,1,354.3605983029993,354.3605983029993,,,,,,,,,,,,,,,,,,,,,,,,,,,,,,,,,,,,,,,,,,,,,,,,,,,,,,,,,,,,,joacoC,001,b,2019_Oct_10_1236,Experimento,3.2.3,60.16507865748587,
8,14,14,999,0.5,0:10,3,Yellow,['space'],0,0,1,28:50,./completed_changuitos/montage_zkqit_176.55_148.39.jpg,left,0,0,0,0,,,,,0,10,10,10,,,,,,,,,0,0,0,0,0,3,3,3,,,,,,,,,,,,,,,,,,356.3599874960055,356.8597651040036,None,0,356.3599874960055,356.3599874960055,,,,,,,,,,,,,,,,,,,,,,,,,,,,,,,,,,,,,,,,,,,,,,,,,,,,,,,,,,,,,joacoC,001,b,2019_Oct_10_1236,Experimento,3.2.3,60.16507865748587,
8,14,14,999,0.5,0:10,3,Blue,None,0,0,1,28:50,./completed_changuitos/montage_zkqit_176.55_148.39.jpg,left,0,0,0,0,,,,,0,10,10,10,,,,,,,,,0,0,0,0,0,4,4,4,,,,,,,,,,,,,,,,,,358.3589041619998,358.86027120100334,None,1,358.3589041619998,358.3589041619998,,,,,,,,,,,,,,,,,,,,,,,,,,,,,,,,,,,,,,,,,,,,,,,,,,,,,,,,,,,,,joacoC,001,b,2019_Oct_10_1236,Experimento,3.2.3,60.16507865748587,
8,14,14,999,0.5,0:10,3,Cyan,None,0,0,1,28:50,./completed_changuitos/montage_zkqit_176.55_148.39.jpg,left,0,0,0,0,,,,,0,10,10,10,,,,,,,,,0,0,0,0,0,5,5,5,,,,,,,,,,,,,,,,,,360.35850503100664,360.8584139540035,None,1,360.35850503100664,360.35850503100664,,,,,,,,,,,,,,,,,,,,,,,,,,,,,,,,,,,,,,,,,,,,,,,,,,,,,,,,,,,,,joacoC,001,b,2019_Oct_10_1236,Experimento,3.2.3,60.16507865748587,
8,14,14,999,0.5,0:10,3,Blue,['space'],0,0,1,28:50,./completed_changuitos/montage_zkqit_176.55_148.39.jpg,left,0,0,0,0,,,,,0,10,10,10,,,,,,,,,0,0,0,0,0,6,6,6,,,,,,,,,,,,,,,,,,362.3578836569941,362.8578556209977,['return'],0,362.3578836569941,362.3578836569941,[0.9670264169981238],,,,,,,,,,,,,,,,,,,,,,,,,,,,,,,,,,,,,,,,,,,,,,,,,,,,,,,,,,,,joacoC,001,b,2019_Oct_10_1236,Experimento,3.2.3,60.16507865748587,
8,14,14,999,0.5,0:10,3,Yellow,None,0,0,1,28:50,./completed_changuitos/montage_zkqit_176.55_148.39.jpg,left,0,0,0,0,,,,,0,10,10,10,,,,,,,,,0,0,0,0,0,7,7,7,,,,,,,,,,,,,,,,,,364.3572150178006,None,None,1,364.3572150178006,None,,,,,,,,,,,,,,,,,,,,,,,,,,,,,,,,,,,,,,,,,,,,,,,,,,,,,,,,,,,,,joacoC,001,b,2019_Oct_10_1236,Experimento,3.2.3,60.16507865748587,
8,14,14,999,0.5,0:10,3,Cyan,None,0,0,1,28:50,./completed_changuitos/montage_zkqit_176.55_148.39.jpg,left,0,0,0,0,,,,,0,10,10,10,,,,,,,,,0,0,0,0,0,8,8,8,,,,,,,,,,,,,,,,,,364.3572150178006,None,None,1,364.3572150178006,None,,,,,,,,,,,,,,,,,,,,,,,,,,,,,,,,,,,,,,,,,,,,,,,,,,,,,,,,,,,,,joacoC,001,b,2019_Oct_10_1236,Experimento,3.2.3,60.16507865748587,
8,14,14,999,0.5,0:10,3,Yellow,['space'],0,0,1,28:50,./completed_changuitos/montage_zkqit_176.55_148.39.jpg,left,0,0,0,0,,,,,0,10,10,10,,,,,,,,,0,0,0,0,0,9,9,9,,,,,,,,,,,,,,,,,,364.3572150178006,None,None,0,364.3572150178006,None,,,,,,,,,,,,,,,,,,,,,,,,,,,,,,,,,,,,,,,,,,,,,,,,,,,,,,,,,,,,,joacoC,001,b,2019_Oct_10_1236,Experimento,3.2.3,60.16507865748587,
8,14,14,999,0.5,0:10,3,Magenta,None,0,0,1,28:50,./completed_changuitos/montage_zkqit_176.55_148.39.jpg,left,0,0,0,0,,,,,0,10,10,10,,,,,,,,,0,0,0,0,0,10,10,10,,,,,,,,,,,,,,,,,,364.3572150178006,None,None,1,364.3572150178006,None,,,,,,,,,,,,,,,,,,,,,,,,,,,,,,,,,,,,,,,,,,,,,,,,,,,,,,,,,,,,,joacoC,001,b,2019_Oct_10_1236,Experimento,3.2.3,60.16507865748587,
8,14,14,999,0.5,0:10,3,Red,None,0,0,1,28:50,./completed_changuitos/montage_zkqit_176.55_148.39.jpg,left,0,0,0,0,,,,,0,10,10,10,,,,,,,,,0,0,0,0,0,11,11,11,,,,,,,,,,,,,,,,,,364.37388227960037,None,None,1,364.37388227960037,None,,,,,,,,,,,,,,,,,,,,,,,,,,,,,,,,,,,,,,,,,,,,,,,,,,,,,,,,,,,,,joacoC,001,b,2019_Oct_10_1236,Experimento,3.2.3,60.16507865748587,
8,14,14,999,0.5,0:10,3,Magenta,['space'],0,0,1,28:50,./completed_changuitos/montage_zkqit_176.55_148.39.jpg,left,0,0,0,0,,,,,0,10,10,10,,,,,,,,,0,0,0,0,0,12,12,12,,,,,,,,,,,,,,,,,,364.37388227960037,None,None,0,364.37388227960037,None,,,,,,,,,,,,,,,,,,,,,,,,,,,,,,,,,,,,,,,,,,,,,,,,,,,,,,,,,,,,,joacoC,001,b,2019_Oct_10_1236,Experimento,3.2.3,60.16507865748587,
8,14,14,999,0.5,0:10,3,Red,['space'],0,0,1,28:50,./completed_changuitos/montage_zkqit_176.55_148.39.jpg,left,0,0,0,0,,,,,0,10,10,10,,,,,,,,,0,0,0,0,0,13,13,13,,,,,,,,,,,,,,,,,,364.37388227960037,None,None,0,364.37388227960037,None,,,,,,,,,,,,,,,,,,,,,,,,,,,,,,,,,,,,,,,,,,,,,,,,,,,,,,,,,,,,,joacoC,001,b,2019_Oct_10_1236,Experimento,3.2.3,60.16507865748587,
8,14,14,999,0.5,0:10,3,Yellow,None,0,0,1,28:50,./completed_changuitos/montage_zkqit_176.55_148.39.jpg,left,0,0,0,0,,,,,0,10,10,10,,,,,,,,,0,0,0,0,0,14,14,14,,,,,,,,,,,,,,,,,,364.37388227960037,None,None,1,364.37388227960037,None,,,,,,,,,,,,,,,,,,,,,,,,,,,,,,,,,,,,,,,,,,,,,,,,,,,,,,,,,,,,,joacoC,001,b,2019_Oct_10_1236,Experimento,3.2.3,60.16507865748587,
8,14,14,999,0.5,0:10,3,Cyan,None,0,0,1,28:50,./completed_changuitos/montage_zkqit_176.55_148.39.jpg,left,0,0,0,0,,,,,0,10,10,10,,,,,,,,,0,0,0,0,0,15,15,15,,,,,,,,,,,,,,,,,,364.37388227960037,None,None,1,364.37388227960037,None,,,,,,,,,,,,,,,,,,,,,,,,,,,,,,,,,,,,,,,,,,,,,,,,,,,,,,,,,,,,,joacoC,001,b,2019_Oct_10_1236,Experimento,3.2.3,60.16507865748587,
8,14,14,999,0.5,0:10,3,Green,None,0,0,1,28:50,./completed_changuitos/montage_zkqit_176.55_148.39.jpg,left,0,0,0,0,,,,,0,10,10,10,,,,,,,,,0,0,0,0,0,16,16,16,,,,,,,,,,,,,,,,,,364.37388227960037,None,None,1,364.37388227960037,None,,,,,,,,,,,,,,,,,,,,,,,,,,,,,,,,,,,,,,,,,,,,,,,,,,,,,,,,,,,,,joacoC,001,b,2019_Oct_10_1236,Experimento,3.2.3,60.16507865748587,
8,14,14,999,0.5,0:10,3,White,None,0,0,1,28:50,./completed_changuitos/montage_zkqit_176.55_148.39.jpg,left,0,0,0,0,,,,,0,10,10,10,,,,,,,,,0,0,0,0,0,17,17,17,,,,,,,,,,,,,,,,,,364.3905495414001,None,None,1,364.3905495414001,None,,,,,,,,,,,,,,,,,,,,,,,,,,,,,,,,,,,,,,,,,,,,,,,,,,,,,,,,,,,,,joacoC,001,b,2019_Oct_10_1236,Experimento,3.2.3,60.16507865748587,
8,14,14,999,0.5,0:10,3,Green,['space'],0,0,1,28:50,./completed_changuitos/montage_zkqit_176.55_148.39.jpg,left,0,0,0,0,,,,,0,10,10,10,,,,,,,,,0,0,0,0,0,18,18,18,,,,,,,,,,,,,,,,,,364.3905495414001,None,None,0,364.3905495414001,None,,,,,,,,,,,,,,,,,,,,,,,,,,,,,,,,,,,,,,,,,,,,,,,,,,,,,,,,,,,,,joacoC,001,b,2019_Oct_10_1236,Experimento,3.2.3,60.16507865748587,
8,14,14,999,0.5,0:10,3,Red,None,0,0,1,28:50,./completed_changuitos/montage_zkqit_176.55_148.39.jpg,left,0,0,0,0,,,,,0,10,10,10,,,,,,,,,0,0,0,0,0,19,19,19,,,,,,,,,,,,,,,,,,364.3905495414001,None,None,1,364.3905495414001,None,,,,,,,,,,,,,,,,,,,,,,,,,,,,,,,,,,,,,,,,,,,,,,,,,,,,,,,,,,,,,joacoC,001,b,2019_Oct_10_1236,Experimento,3.2.3,60.16507865748587,
8,14,14,999,0.5,0:10,3,Blue,None,0,0,1,28:50,./completed_changuitos/montage_zkqit_176.55_148.39.jpg,left,0,0,0,0,,,,,0,10,10,10,,,,,,,,,0,0,0,0,0,20,20,20,,,,,,,,,,,,,,,,,,364.3905495414001,None,None,1,364.3905495414001,None,,,,,,,,,,,,,,,,,,,,,,,,,,,,,,,,,,,,,,,,,,,,,,,,,,,,,,,,,,,,,joacoC,001,b,2019_Oct_10_1236,Experimento,3.2.3,60.16507865748587,
8,14,14,999,0.5,0:10,3,Green,None,0,0,1,28:50,./completed_changuitos/montage_zkqit_176.55_148.39.jpg,left,0,0,0,0,,,,,0,10,10,10,,,,,,,,,0,0,0,0,0,21,21,21,,,,,,,,,,,,,,,,,,364.3905495414001,None,None,1,364.3905495414001,None,,,,,,,,,,,,,,,,,,,,,,,,,,,,,,,,,,,,,,,,,,,,,,,,,,,,,,,,,,,,,joacoC,001,b,2019_Oct_10_1236,Experimento,3.2.3,60.16507865748587,
8,14,14,999,0.5,0:10,3,,,0,0,1,28:50,./completed_changuitos/montage_zkqit_176.55_148.39.jpg,left,0,0,0,0,,,,,0,10,10,10,,,,,,,,,0,0,0,0,,,,,,,,,,,,,,,,,,,,,,,,,,,,,364.440305533004,None,left,1,1.1836110839940375,364.440305533004,None,364.440305533004,None,,,,,,,,,,,,,,,,,,,,,,,,,,,,,,,,,,,,,,,,,,,,,,,,,,,joacoC,001,b,2019_Oct_10_1236,Experimento,3.2.3,60.16507865748587,
8,14,14,999,0.5,0:10,3,,,0,0,1,28:50,,,0,0,0,0,,,,,0,10,10,10,,,,,,,,,,,,,,,,,,,,,,,,,,,,,,,,,,,,,,,,,,,,,,,,,,,,,,,,,,,,,,,,,,,,,,,,,,,,,,,,,,,,,,,,,,,,,,,,,,,,joacoC,001,b,2019_Oct_10_1236,Experimento,3.2.3,60.16507865748587,
8,14,14,999,0.5,0:10,3,,,0,1,0,10:50,./completed_changuitos/montage_oupln_75.99_67.4.jpg,left,0,0,0,0,,,,,0,11,11,11,,,,,0,0,0,0,,,,,,,,,,,,,,,,,,,,,,,,,,,,,,,,,,,,,,,,,,365.7732389099983,366.88974620599765,366.88974620599765,374.9036047170084,374.9036047170084,388.91511967200495,left,1,0.750030915995012,388.91511967200495,None,388.91511967200495,None,388.91511967200495,None,,,,,,,,,,,,,,,,,,,,,,,,,,,,,,,,,,,,joacoC,001,b,2019_Oct_10_1236,Experimento,3.2.3,60.16507865748587,
8,14,14,999,0.5,0:10,3,,,0,1,0,10:50,,,0,0,0,0,,,,,0,11,11,11,,,,,,,,,,,,,,,,,,,,,,,,,,,,,,,,,,,,,,,,,,,,,,,,,,,,,,,,,,,,,,,,,,,,,,,,,,,,,,,,,,,,,,,,,,,,,,,,,,,,joacoC,001,b,2019_Oct_10_1236,Experimento,3.2.3,60.16507865748587,
8,14,14,999,0.5,0:10,3,,,1,0,0,30:50,./completed_changuitos/montage_bajlz_178.05_153.89.jpg,left,0,0,0,0,,,,,0,12,12,12,0,0,0,0,,,,,,,,,,,,,,,,,,,,,,,,,,,,,,,,,,,,,,,,,,,,,,,,,,,,,,,,,,,,,390.2984104549978,391.4313118179998,391.4313118179998,399.4451524830074,right,0,1.1498349590110593,399.4451524830074,None,399.4451524830074,None,399.4451524830074,None,,,,,,,,,,,,,,,,,,,,,,,joacoC,001,b,2019_Oct_10_1236,Experimento,3.2.3,60.16507865748587,
8,14,14,999,0.5,0:10,3,,,1,0,0,30:50,,,0,0,0,0,,,,,0,12,12,12,,,,,,,,,,,,,,,,,,,,,,,,,,,,,,,,,,,,,,,,,,,,,,,,,,,,,,,,,,,,,,,,,,,,,,,,,,,,,,,,,,,,,,,,,,,,,,,,,,,,joacoC,001,b,2019_Oct_10_1236,Experimento,3.2.3,60.16507865748587,
8,14,14,999,0.5,0:10,3,,,1,0,0,32:50,./completed_changuitos/montage_qoeme_32.55_36.39.jpg,right,0,0,0,0,,,,,0,13,13,13,0,0,0,0,,,,,,,,,,,,,,,,,,,,,,,,,,,,,,,,,,,,,,,,,,,,,,,,,,,,,,,,,,,,,401.22778819300584,402.39393160700274,402.39393160700274,410.4078588639968,left,0,0.0001245219900738448,410.4078588639968,None,410.4078588639968,None,410.4078588639968,None,,,,,,,,,,,,,,,,,,,,,,,joacoC,001,b,2019_Oct_10_1236,Experimento,3.2.3,60.16507865748587,
8,14,14,999,0.5,0:10,3,,,1,0,0,32:50,,,0,0,0,0,,,,,0,13,13,13,,,,,,,,,,,,,,,,,,,,,,,,,,,,,,,,,,,,,,,,,,,,,,,,,,,,,,,,,,,,,,,,,,,,,,,,,,,,,,,,,,,,,,,,,,,,,,,,,,,,joacoC,001,b,2019_Oct_10_1236,Experimento,3.2.3,60.16507865748587,
8,14,14,999,0.5,0:10,3,,,1,0,0,34:50,./completed_changuitos/montage_bvdsd_67.19_59.19.jpg,left,0,0,0,0,,,,,0,14,14,14,0,0,0,0,,,,,,,,,,,,,,,,,,,,,,,,,,,,,,,,,,,,,,,,,,,,,,,,,,,,,,,,,,,,,411.02460346600856,412.207524655998,412.207524655998,420.22118337699794,left,1,0.6499695600068662,420.22118337699794,None,420.22118337699794,None,420.22118337699794,None,,,,,,,,,,,,,,,,,,,,,,,joacoC,001,b,2019_Oct_10_1236,Experimento,3.2.3,60.16507865748587,
8,14,14,999,0.5,0:10,3,,,1,0,0,34:50,,,0,0,0,0,,,,,0,14,14,14,,,,,,,,,,,,,,,,,,,,,,,,,,,,,,,,,,,,,,,,,,,,,,,,,,,,,,,,,,,,,,,,,,,,,,,,,,,,,,,,,,,,,,,,,,,,,,,,,,,,joacoC,001,b,2019_Oct_10_1236,Experimento,3.2.3,60.16507865748587,
8,14,14,999,0.5,0:10,3,,,1,0,0,30:50,./completed_changuitos/montage_rcnrm_249.3_213.99.jpg,left,0,0,0,0,,,,,0,15,15,15,0,0,0,0,,,,,,,,,,,,,,,,,,,,,,,,,,,,,,,,,,,,,,,,,,,,,,,,,,,,,,,,,,,,,421.4876660699956,422.58731807000004,422.58731807000004,430.6011453240062,right,0,0.6831576020049397,430.6011453240062,None,430.6011453240062,None,430.6011453240062,None,,,,,,,,,,,,,,,,,,,,,,,joacoC,001,b,2019_Oct_10_1236,Experimento,3.2.3,60.16507865748587,
8,14,14,999,0.5,0:10,3,,,1,0,0,30:50,,,0,0,0,0,,,,,0,15,15,15,,,,,,,,,,,,,,,,,,,,,,,,,,,,,,,,,,,,,,,,,,,,,,,,,,,,,,,,,,,,,,,,,,,,,,,,,,,,,,,,,,,,,,,,,,,,,,,,,,,,joacoC,001,b,2019_Oct_10_1236,Experimento,3.2.3,60.16507865748587,
8,14,14,999,0.5,0:10,3,,,1,0,0,32:50,./completed_changuitos/montage_pdrzm_36.9_41.09.jpg,right,0,0,0,0,,,,,0,16,16,16,0,0,0,0,,,,,,,,,,,,,,,,,,,,,,,,,,,,,,,,,,,,,,,,,,,,,,,,,,,,,,,,,,,,,431.9174957780051,433.083757579996,433.083757579996,441.0976978550025,right,1,0.6335469810001086,441.0976978550025,None,441.0976978550025,None,441.0976978550025,None,,,,,,,,,,,,,,,,,,,,,,,joacoC,001,b,2019_Oct_10_1236,Experimento,3.2.3,60.16507865748587,
8,14,14,999,0.5,0:10,3,,,1,0,0,32:50,,,0,0,0,0,,,,,0,16,16,16,,,,,,,,,,,,,,,,,,,,,,,,,,,,,,,,,,,,,,,,,,,,,,,,,,,,,,,,,,,,,,,,,,,,,,,,,,,,,,,,,,,,,,,,,,,,,,,,,,,,joacoC,001,b,2019_Oct_10_1236,Experimento,3.2.3,60.16507865748587,
8,14,14,999,0.5,0:10,3,,,1,0,0,34:50,./completed_changuitos/montage_dhnnx_103.79_117.7.jpg,right,0,0,0,0,,,,,0,17,17,17,0,0,0,0,,,,,,,,,,,,,,,,,,,,,,,,,,,,,,,,,,,,,,,,,,,,,,,,,,,,,,,,,,,,,442.3805529920064,442.5969150029996,442.5969150029996,450.6112031770026,left,0,0.5002117729891324,450.6112031770026,None,450.6112031770026,None,450.6112031770026,None,,,,,,,,,,,,,,,,,,,,,,,joacoC,001,b,2019_Oct_10_1236,Experimento,3.2.3,60.16507865748587,
8,14,14,999,0.5,0:10,3,,,1,0,0,34:50,,,0,0,0,0,,,,,0,17,17,17,,,,,,,,,,,,,,,,,,,,,,,,,,,,,,,,,,,,,,,,,,,,,,,,,,,,,,,,,,,,,,,,,,,,,,,,,,,,,,,,,,,,,,,,,,,,,,,,,,,,joacoC,001,b,2019_Oct_10_1236,Experimento,3.2.3,60.16507865748587,
8,14,14,999,0.5,0:10,3,,,,,,,,,0,0,0,0,,,,,,,,,,,,,,,,,,,,,,,,,,,,,,,,,,,,,,,,,,,,,,,,,,,,,,,,,,,,,,,,,,,,,,,,,,,,,,,,,,,,,,451.1940824360063,452.94360197900096,3,6.031805153004825,452.94360197900096,None,452.94360197900096,None,b,11.846419352994417,459.0081984080025,None,459.0081984080025,None,459.0081984080025,None,470.87075954199827,None,2,6.181354551008553,470.87075954199827,None,joacoC,001,b,2019_Oct_10_1236,Experimento,3.2.3,60.16507865748587,
