changuito_time_to_show,time_to_think,time_to_play,total_items,nback_stimulus_time,nback_training,time_to_show_tiny_stimulus,colourtest,corresp,inmediato,consciente,inconsciente,nback_slice,imagen,correcta,trials_5.thisRepN,trials_5.thisTrialN,trials_5.thisN,trials_5.thisIndex,nback_train.thisRepN,nback_train.thisTrialN,nback_train.thisN,nback_train.thisIndex,treatment_order.thisRepN,treatment_order.thisTrialN,treatment_order.thisN,treatment_order.thisIndex,trials.thisRepN,trials.thisTrialN,trials.thisN,trials.thisIndex,trials_2.thisRepN,trials_2.thisTrialN,trials_2.thisN,trials_2.thisIndex,trials_3.thisRepN,trials_3.thisTrialN,trials_3.thisN,trials_3.thisIndex,trials_4.thisRepN,trials_4.thisTrialN,trials_4.thisN,trials_4.thisIndex,Presentacion.started,Presentacion.stopped,Juego.started,Juego.stopped,image_6.started,image_6.stopped,polygon.started,polygon.stopped,nback_train_resp.keys,nback_train_resp.corr,nback_train_resp.started,nback_train_resp.stopped,nback_train_resp.rt,holi.started,holi.stopped,image_3.started,image_3.stopped,polygon_2.started,polygon_2.stopped,nback_train_resp_2.keys,nback_train_resp_2.corr,nback_train_resp_2.started,nback_train_resp_2.stopped,nback_train_resp_2.rt,text_2.started,text_2.stopped,key_resp.keys,key_resp.corr,key_resp.rt,key_resp.started,key_resp.stopped,image_5.started,image_5.stopped,hola.started,hola.stopped,image_2.started,image_2.stopped,tiempo_para_pensar.started,tiempo_para_pensar.stopped,respuesta_consciente.keys,respuesta_consciente.corr,respuesta_consciente.rt,respuesta_consciente.started,respuesta_consciente.stopped,cual_es_la_mas_barata.started,cual_es_la_mas_barata.stopped,image_4.started,image_4.stopped,text.started,text.stopped,image.started,image.stopped,respuesta_inmediato.keys,respuesta_inmediato.corr,respuesta_inmediato.rt,respuesta_inmediato.started,respuesta_inmediato.stopped,pregunta_cual_es_el_mas_barato.started,pregunta_cual_es_el_mas_barato.stopped,short_stim1.started,short_stim1.stopped,gracias.started,gracias.stopped,respuesta1.keys,respuesta1.rt,respuesta1.started,respuesta1.stopped,pregunta1.started,pregunta1.stopped,respuesta3bis_3.keys,respuesta3bis_3.rt,respuesta3bis_3.started,respuesta3bis_3.stopped,pregunta3_3.started,pregunta3_3.stopped,productoCon3RANGOSabc_3.started,productoCon3RANGOSabc_3.stopped,text_3.started,text_3.stopped,key_resp_2.keys,key_resp_2.rt,key_resp_2.started,key_resp_2.stopped,participant,session,group,date,expName,psychopyVersion,frameRate,
8,14,14,999,0.5,0:10,3,White,None,,,,,,,0,0,0,0,0,0,0,0,,,,,,,,,,,,,,,,,,,,,17.16679147099785,None,43.30358522098686,None,43.30358522098686,None,66.05639894599153,66.5626297199924,None,1,66.05639894599153,None,,,,,,,,,,,,,,,,,,,,,,,,,,,,,,,,,,,,,,,,,,,,,,,,,,,,,,,,,,,,,,,,,,,,,,,,camila_s,001,d,2019_Oct_10_1257,Experimento,3.2.3,59.98270686789826,
8,14,14,999,0.5,0:10,3,Red,None,,,,,,,0,0,0,0,0,1,1,1,,,,,,,,,,,,,,,,,,,,,,,,,,,68.06170230699354,68.56189366699255,None,1,68.06170230699354,68.06170230699354,,,,,,,,,,,,,,,,,,,,,,,,,,,,,,,,,,,,,,,,,,,,,,,,,,,,,,,,,,,,,,,,,,,,,,,,camila_s,001,d,2019_Oct_10_1257,Experimento,3.2.3,59.98270686789826,
8,14,14,999,0.5,0:10,3,Magenta,None,,,,,,,0,0,0,0,0,2,2,2,,,,,,,,,,,,,,,,,,,,,,,,,,,70.0613636719936,70.56123857699276,None,1,70.0613636719936,70.0613636719936,,,,,,,,,,,,,,,,,,,,,,,,,,,,,,,,,,,,,,,,,,,,,,,,,,,,,,,,,,,,,,,,,,,,,,,,camila_s,001,d,2019_Oct_10_1257,Experimento,3.2.3,59.98270686789826,
8,14,14,999,0.5,0:10,3,Cyan,None,,,,,,,0,0,0,0,0,3,3,3,,,,,,,,,,,,,,,,,,,,,,,,,,,72.06068836999475,72.56060845599859,None,1,72.06068836999475,72.06068836999475,,,,,,,,,,,,,,,,,,,,,,,,,,,,,,,,,,,,,,,,,,,,,,,,,,,,,,,,,,,,,,,,,,,,,,,,camila_s,001,d,2019_Oct_10_1257,Experimento,3.2.3,59.98270686789826,
8,14,14,999,0.5,0:10,3,Magenta,['space'],,,,,,,0,0,0,0,0,4,4,4,,,,,,,,,,,,,,,,,,,,,,,,,,,74.06001622499025,74.55988615298702,['return'],0,74.06001622499025,74.06001622499025,[0.6996856649930123],,,,,,,,,,,,,,,,,,,,,,,,,,,,,,,,,,,,,,,,,,,,,,,,,,,,,,,,,,,,,,,,,,,,,,,camila_s,001,d,2019_Oct_10_1257,Experimento,3.2.3,59.98270686789826,
8,14,14,999,0.5,0:10,3,Green,None,,,,,,,0,0,0,0,0,5,5,5,,,,,,,,,,,,,,,,,,,,,,,,,,,76.05904838499555,76.5591947449866,None,1,76.05904838499555,76.05904838499555,,,,,,,,,,,,,,,,,,,,,,,,,,,,,,,,,,,,,,,,,,,,,,,,,,,,,,,,,,,,,,,,,,,,,,,,camila_s,001,d,2019_Oct_10_1257,Experimento,3.2.3,59.98270686789826,
8,14,14,999,0.5,0:10,3,White,None,,,,,,,0,0,0,0,0,6,6,6,,,,,,,,,,,,,,,,,,,,,,,,,,,78.05870029899233,78.55852159699134,None,1,78.05870029899233,78.05870029899233,,,,,,,,,,,,,,,,,,,,,,,,,,,,,,,,,,,,,,,,,,,,,,,,,,,,,,,,,,,,,,,,,,,,,,,,camila_s,001,d,2019_Oct_10_1257,Experimento,3.2.3,59.98270686789826,
8,14,14,999,0.5,0:10,3,Green,['space'],,,,,,,0,0,0,0,0,7,7,7,,,,,,,,,,,,,,,,,,,,,,,,,,,80.0579510069947,80.55787938799767,['return'],0,80.0579510069947,80.0579510069947,[0.4331029749882873],,,,,,,,,,,,,,,,,,,,,,,,,,,,,,,,,,,,,,,,,,,,,,,,,,,,,,,,,,,,,,,,,,,,,,,camila_s,001,d,2019_Oct_10_1257,Experimento,3.2.3,59.98270686789826,
8,14,14,999,0.5,0:10,3,Blue,None,,,,,,,0,0,0,0,0,8,8,8,,,,,,,,,,,,,,,,,,,,,,,,,,,82.0573010849912,82.55714103298669,None,1,82.0573010849912,82.0573010849912,,,,,,,,,,,,,,,,,,,,,,,,,,,,,,,,,,,,,,,,,,,,,,,,,,,,,,,,,,,,,,,,,,,,,,,,camila_s,001,d,2019_Oct_10_1257,Experimento,3.2.3,59.98270686789826,
8,14,14,999,0.5,0:10,3,Green,['space'],,,,,,,0,0,0,0,0,9,9,9,,,,,,,,,,,,,,,,,,,,,,,,,,,84.05659419299627,84.55611868499545,['return'],0,84.05659419299627,84.05659419299627,[1.033567417995073],,,,,,,,,,,,,,,,,,,,,,,,,,,,,,,,,,,,,,,,,,,,,,,,,,,,,,,,,,,,,,,,,,,,,,,camila_s,001,d,2019_Oct_10_1257,Experimento,3.2.3,59.98270686789826,
8,14,14,999,0.5,0:10,3,Magenta,None,0,0,1,20:50,./completed_changuitos/montage_mpame_40.25_35.2.jpg,left,0,0,0,0,,,,,0,0,0,0,,,,,,,,,0,0,0,0,0,0,0,0,,,,,,,,,,,,,,86.17896442799247,102.15048079799453,102.15048079799453,None,110.19208709198574,110.69755630999862,None,1,110.19208709198574,None,,,,,,,,,,,,,,,,,,,,,,,,,,,,,,,,,,,,,,,,,,,,,,,,,,,,,,,,,,,,,camila_s,001,d,2019_Oct_10_1257,Experimento,3.2.3,59.98270686789826,
8,14,14,999,0.5,0:10,3,Blue,['space'],0,0,1,20:50,./completed_changuitos/montage_mpame_40.25_35.2.jpg,left,0,0,0,0,,,,,0,0,0,0,,,,,,,,,0,0,0,0,0,1,1,1,,,,,,,,,,,,,,,,,,112.19690088699281,112.6968532059982,None,0,112.19690088699281,112.19690088699281,,,,,,,,,,,,,,,,,,,,,,,,,,,,,,,,,,,,,,,,,,,,,,,,,,,,,,,,,,,,,camila_s,001,d,2019_Oct_10_1257,Experimento,3.2.3,59.98270686789826,
8,14,14,999,0.5,0:10,3,Cyan,None,0,0,1,20:50,./completed_changuitos/montage_mpame_40.25_35.2.jpg,left,0,0,0,0,,,,,0,0,0,0,,,,,,,,,0,0,0,0,0,2,2,2,,,,,,,,,,,,,,,,,,114.19631482799014,114.69615272298688,None,1,114.19631482799014,114.19631482799014,,,,,,,,,,,,,,,,,,,,,,,,,,,,,,,,,,,,,,,,,,,,,,,,,,,,,,,,,,,,,camila_s,001,d,2019_Oct_10_1257,Experimento,3.2.3,59.98270686789826,
8,14,14,999,0.5,0:10,3,Yellow,None,0,0,1,20:50,./completed_changuitos/montage_mpame_40.25_35.2.jpg,left,0,0,0,0,,,,,0,0,0,0,,,,,,,,,0,0,0,0,0,3,3,3,,,,,,,,,,,,,,,,,,116.1952870549867,116.69523148199369,None,1,116.1952870549867,116.1952870549867,,,,,,,,,,,,,,,,,,,,,,,,,,,,,,,,,,,,,,,,,,,,,,,,,,,,,,,,,,,,,camila_s,001,d,2019_Oct_10_1257,Experimento,3.2.3,59.98270686789826,
8,14,14,999,0.5,0:10,3,Cyan,None,0,0,1,20:50,./completed_changuitos/montage_mpame_40.25_35.2.jpg,left,0,0,0,0,,,,,0,0,0,0,,,,,,,,,0,0,0,0,0,4,4,4,,,,,,,,,,,,,,,,,,118.19489114599128,118.69478940099361,['return'],0,118.19489114599128,118.19489114599128,[0.783849226005259],,,,,,,,,,,,,,,,,,,,,,,,,,,,,,,,,,,,,,,,,,,,,,,,,,,,,,,,,,,,camila_s,001,d,2019_Oct_10_1257,Experimento,3.2.3,59.98270686789826,
8,14,14,999,0.5,0:10,3,Blue,None,0,0,1,20:50,./completed_changuitos/montage_mpame_40.25_35.2.jpg,left,0,0,0,0,,,,,0,0,0,0,,,,,,,,,0,0,0,0,0,5,5,5,,,,,,,,,,,,,,,,,,120.19420817599166,120.69413674499083,None,1,120.19420817599166,120.19420817599166,,,,,,,,,,,,,,,,,,,,,,,,,,,,,,,,,,,,,,,,,,,,,,,,,,,,,,,,,,,,,camila_s,001,d,2019_Oct_10_1257,Experimento,3.2.3,59.98270686789826,
8,14,14,999,0.5,0:10,3,Cyan,['space'],0,0,1,20:50,./completed_changuitos/montage_mpame_40.25_35.2.jpg,left,0,0,0,0,,,,,0,0,0,0,,,,,,,,,0,0,0,0,0,6,6,6,,,,,,,,,,,,,,,,,,122.19353608498932,122.6934681799903,['return'],0,122.19353608498932,122.19353608498932,[0.6504257479973603],,,,,,,,,,,,,,,,,,,,,,,,,,,,,,,,,,,,,,,,,,,,,,,,,,,,,,,,,,,,camila_s,001,d,2019_Oct_10_1257,Experimento,3.2.3,59.98270686789826,
8,14,14,999,0.5,0:10,3,Magenta,None,0,0,1,20:50,./completed_changuitos/montage_mpame_40.25_35.2.jpg,left,0,0,0,0,,,,,0,0,0,0,,,,,,,,,0,0,0,0,0,7,7,7,,,,,,,,,,,,,,,,,,124.17593622248823,None,None,1,124.17593622248823,None,,,,,,,,,,,,,,,,,,,,,,,,,,,,,,,,,,,,,,,,,,,,,,,,,,,,,,,,,,,,,camila_s,001,d,2019_Oct_10_1257,Experimento,3.2.3,59.98270686789826,
8,14,14,999,0.5,0:10,3,Red,None,0,0,1,20:50,./completed_changuitos/montage_mpame_40.25_35.2.jpg,left,0,0,0,0,,,,,0,0,0,0,,,,,,,,,0,0,0,0,0,8,8,8,,,,,,,,,,,,,,,,,,124.17593622248823,None,None,1,124.17593622248823,None,,,,,,,,,,,,,,,,,,,,,,,,,,,,,,,,,,,,,,,,,,,,,,,,,,,,,,,,,,,,,camila_s,001,d,2019_Oct_10_1257,Experimento,3.2.3,59.98270686789826,
8,14,14,999,0.5,0:10,3,Magenta,['space'],0,0,1,20:50,./completed_changuitos/montage_mpame_40.25_35.2.jpg,left,0,0,0,0,,,,,0,0,0,0,,,,,,,,,0,0,0,0,0,9,9,9,,,,,,,,,,,,,,,,,,124.17593622248823,None,None,0,124.17593622248823,None,,,,,,,,,,,,,,,,,,,,,,,,,,,,,,,,,,,,,,,,,,,,,,,,,,,,,,,,,,,,,camila_s,001,d,2019_Oct_10_1257,Experimento,3.2.3,59.98270686789826,
8,14,14,999,0.5,0:10,3,Green,None,0,0,1,20:50,./completed_changuitos/montage_mpame_40.25_35.2.jpg,left,0,0,0,0,,,,,0,0,0,0,,,,,,,,,0,0,0,0,0,10,10,10,,,,,,,,,,,,,,,,,,124.17593622248823,None,None,1,124.17593622248823,None,,,,,,,,,,,,,,,,,,,,,,,,,,,,,,,,,,,,,,,,,,,,,,,,,,,,,,,,,,,,,camila_s,001,d,2019_Oct_10_1257,Experimento,3.2.3,59.98270686789826,
8,14,14,999,0.5,0:10,3,Yellow,['space'],0,0,1,20:50,./completed_changuitos/montage_mpame_40.25_35.2.jpg,left,0,0,0,0,,,,,0,0,0,0,,,,,,,,,0,0,0,0,0,11,11,11,,,,,,,,,,,,,,,,,,124.17593622248823,None,None,0,124.17593622248823,None,,,,,,,,,,,,,,,,,,,,,,,,,,,,,,,,,,,,,,,,,,,,,,,,,,,,,,,,,,,,,camila_s,001,d,2019_Oct_10_1257,Experimento,3.2.3,59.98270686789826,
8,14,14,999,0.5,0:10,3,Blue,None,0,0,1,20:50,./completed_changuitos/montage_mpame_40.25_35.2.jpg,left,0,0,0,0,,,,,0,0,0,0,,,,,,,,,0,0,0,0,0,12,12,12,,,,,,,,,,,,,,,,,,124.17593622248823,None,None,1,124.17593622248823,None,,,,,,,,,,,,,,,,,,,,,,,,,,,,,,,,,,,,,,,,,,,,,,,,,,,,,,,,,,,,,camila_s,001,d,2019_Oct_10_1257,Experimento,3.2.3,59.98270686789826,
8,14,14,999,0.5,0:10,3,Cyan,None,0,0,1,20:50,./completed_changuitos/montage_mpame_40.25_35.2.jpg,left,0,0,0,0,,,,,0,0,0,0,,,,,,,,,0,0,0,0,0,13,13,13,,,,,,,,,,,,,,,,,,124.17593622248823,None,None,1,124.17593622248823,None,,,,,,,,,,,,,,,,,,,,,,,,,,,,,,,,,,,,,,,,,,,,,,,,,,,,,,,,,,,,,camila_s,001,d,2019_Oct_10_1257,Experimento,3.2.3,59.98270686789826,
8,14,14,999,0.5,0:10,3,Blue,['space'],0,0,1,20:50,./completed_changuitos/montage_mpame_40.25_35.2.jpg,left,0,0,0,0,,,,,0,0,0,0,,,,,,,,,0,0,0,0,0,14,14,14,,,,,,,,,,,,,,,,,,124.17593622248823,None,None,0,124.17593622248823,None,,,,,,,,,,,,,,,,,,,,,,,,,,,,,,,,,,,,,,,,,,,,,,,,,,,,,,,,,,,,,camila_s,001,d,2019_Oct_10_1257,Experimento,3.2.3,59.98270686789826,
8,14,14,999,0.5,0:10,3,Yellow,None,0,0,1,20:50,./completed_changuitos/montage_mpame_40.25_35.2.jpg,left,0,0,0,0,,,,,0,0,0,0,,,,,,,,,0,0,0,0,0,15,15,15,,,,,,,,,,,,,,,,,,124.17593622248823,None,None,1,124.17593622248823,None,,,,,,,,,,,,,,,,,,,,,,,,,,,,,,,,,,,,,,,,,,,,,,,,,,,,,,,,,,,,,camila_s,001,d,2019_Oct_10_1257,Experimento,3.2.3,59.98270686789826,
8,14,14,999,0.5,0:10,3,Cyan,None,0,0,1,20:50,./completed_changuitos/montage_mpame_40.25_35.2.jpg,left,0,0,0,0,,,,,0,0,0,0,,,,,,,,,0,0,0,0,0,16,16,16,,,,,,,,,,,,,,,,,,124.17593622248823,None,None,1,124.17593622248823,None,,,,,,,,,,,,,,,,,,,,,,,,,,,,,,,,,,,,,,,,,,,,,,,,,,,,,,,,,,,,,camila_s,001,d,2019_Oct_10_1257,Experimento,3.2.3,59.98270686789826,
8,14,14,999,0.5,0:10,3,Yellow,['space'],0,0,1,20:50,./completed_changuitos/montage_mpame_40.25_35.2.jpg,left,0,0,0,0,,,,,0,0,0,0,,,,,,,,,0,0,0,0,0,17,17,17,,,,,,,,,,,,,,,,,,124.17593622248823,None,None,0,124.17593622248823,None,,,,,,,,,,,,,,,,,,,,,,,,,,,,,,,,,,,,,,,,,,,,,,,,,,,,,,,,,,,,,camila_s,001,d,2019_Oct_10_1257,Experimento,3.2.3,59.98270686789826,
8,14,14,999,0.5,0:10,3,Magenta,None,0,0,1,20:50,./completed_changuitos/montage_mpame_40.25_35.2.jpg,left,0,0,0,0,,,,,0,0,0,0,,,,,,,,,0,0,0,0,0,18,18,18,,,,,,,,,,,,,,,,,,124.17593622248823,None,None,1,124.17593622248823,None,,,,,,,,,,,,,,,,,,,,,,,,,,,,,,,,,,,,,,,,,,,,,,,,,,,,,,,,,,,,,camila_s,001,d,2019_Oct_10_1257,Experimento,3.2.3,59.98270686789826,
8,14,14,999,0.5,0:10,3,Red,None,0,0,1,20:50,./completed_changuitos/montage_mpame_40.25_35.2.jpg,left,0,0,0,0,,,,,0,0,0,0,,,,,,,,,0,0,0,0,0,19,19,19,,,,,,,,,,,,,,,,,,124.17593622248823,None,None,1,124.17593622248823,None,,,,,,,,,,,,,,,,,,,,,,,,,,,,,,,,,,,,,,,,,,,,,,,,,,,,,,,,,,,,,camila_s,001,d,2019_Oct_10_1257,Experimento,3.2.3,59.98270686789826,
8,14,14,999,0.5,0:10,3,Magenta,['space'],0,0,1,20:50,./completed_changuitos/montage_mpame_40.25_35.2.jpg,left,0,0,0,0,,,,,0,0,0,0,,,,,,,,,0,0,0,0,0,20,20,20,,,,,,,,,,,,,,,,,,124.17593622248823,None,None,0,124.17593622248823,None,,,,,,,,,,,,,,,,,,,,,,,,,,,,,,,,,,,,,,,,,,,,,,,,,,,,,,,,,,,,,camila_s,001,d,2019_Oct_10_1257,Experimento,3.2.3,59.98270686789826,
8,14,14,999,0.5,0:10,3,Red,['space'],0,0,1,20:50,./completed_changuitos/montage_mpame_40.25_35.2.jpg,left,0,0,0,0,,,,,0,0,0,0,,,,,,,,,0,0,0,0,0,21,21,21,,,,,,,,,,,,,,,,,,124.17593622248823,None,None,0,124.17593622248823,None,,,,,,,,,,,,,,,,,,,,,,,,,,,,,,,,,,,,,,,,,,,,,,,,,,,,,,,,,,,,,camila_s,001,d,2019_Oct_10_1257,Experimento,3.2.3,59.98270686789826,
8,14,14,999,0.5,0:10,3,Yellow,None,0,0,1,20:50,./completed_changuitos/montage_mpame_40.25_35.2.jpg,left,0,0,0,0,,,,,0,0,0,0,,,,,,,,,0,0,0,0,0,22,22,22,,,,,,,,,,,,,,,,,,124.1926351659873,None,None,1,124.1926351659873,None,,,,,,,,,,,,,,,,,,,,,,,,,,,,,,,,,,,,,,,,,,,,,,,,,,,,,,,,,,,,,camila_s,001,d,2019_Oct_10_1257,Experimento,3.2.3,59.98270686789826,
8,14,14,999,0.5,0:10,3,Cyan,None,0,0,1,20:50,./completed_changuitos/montage_mpame_40.25_35.2.jpg,left,0,0,0,0,,,,,0,0,0,0,,,,,,,,,0,0,0,0,0,23,23,23,,,,,,,,,,,,,,,,,,124.1926351659873,None,None,1,124.1926351659873,None,,,,,,,,,,,,,,,,,,,,,,,,,,,,,,,,,,,,,,,,,,,,,,,,,,,,,,,,,,,,,camila_s,001,d,2019_Oct_10_1257,Experimento,3.2.3,59.98270686789826,
8,14,14,999,0.5,0:10,3,Green,None,0,0,1,20:50,./completed_changuitos/montage_mpame_40.25_35.2.jpg,left,0,0,0,0,,,,,0,0,0,0,,,,,,,,,0,0,0,0,0,24,24,24,,,,,,,,,,,,,,,,,,124.1926351659873,None,None,1,124.1926351659873,None,,,,,,,,,,,,,,,,,,,,,,,,,,,,,,,,,,,,,,,,,,,,,,,,,,,,,,,,,,,,,camila_s,001,d,2019_Oct_10_1257,Experimento,3.2.3,59.98270686789826,
8,14,14,999,0.5,0:10,3,White,None,0,0,1,20:50,./completed_changuitos/montage_mpame_40.25_35.2.jpg,left,0,0,0,0,,,,,0,0,0,0,,,,,,,,,0,0,0,0,0,25,25,25,,,,,,,,,,,,,,,,,,124.1926351659873,None,None,1,124.1926351659873,None,,,,,,,,,,,,,,,,,,,,,,,,,,,,,,,,,,,,,,,,,,,,,,,,,,,,,,,,,,,,,camila_s,001,d,2019_Oct_10_1257,Experimento,3.2.3,59.98270686789826,
8,14,14,999,0.5,0:10,3,Green,['space'],0,0,1,20:50,./completed_changuitos/montage_mpame_40.25_35.2.jpg,left,0,0,0,0,,,,,0,0,0,0,,,,,,,,,0,0,0,0,0,26,26,26,,,,,,,,,,,,,,,,,,124.1926351659873,None,None,0,124.1926351659873,None,,,,,,,,,,,,,,,,,,,,,,,,,,,,,,,,,,,,,,,,,,,,,,,,,,,,,,,,,,,,,camila_s,001,d,2019_Oct_10_1257,Experimento,3.2.3,59.98270686789826,
8,14,14,999,0.5,0:10,3,Red,None,0,0,1,20:50,./completed_changuitos/montage_mpame_40.25_35.2.jpg,left,0,0,0,0,,,,,0,0,0,0,,,,,,,,,0,0,0,0,0,27,27,27,,,,,,,,,,,,,,,,,,124.1926351659873,None,None,1,124.1926351659873,None,,,,,,,,,,,,,,,,,,,,,,,,,,,,,,,,,,,,,,,,,,,,,,,,,,,,,,,,,,,,,camila_s,001,d,2019_Oct_10_1257,Experimento,3.2.3,59.98270686789826,
8,14,14,999,0.5,0:10,3,Blue,None,0,0,1,20:50,./completed_changuitos/montage_mpame_40.25_35.2.jpg,left,0,0,0,0,,,,,0,0,0,0,,,,,,,,,0,0,0,0,0,28,28,28,,,,,,,,,,,,,,,,,,124.1926351659873,None,None,1,124.1926351659873,None,,,,,,,,,,,,,,,,,,,,,,,,,,,,,,,,,,,,,,,,,,,,,,,,,,,,,,,,,,,,,camila_s,001,d,2019_Oct_10_1257,Experimento,3.2.3,59.98270686789826,
8,14,14,999,0.5,0:10,3,Green,None,0,0,1,20:50,./completed_changuitos/montage_mpame_40.25_35.2.jpg,left,0,0,0,0,,,,,0,0,0,0,,,,,,,,,0,0,0,0,0,29,29,29,,,,,,,,,,,,,,,,,,124.1926351659873,None,None,1,124.1926351659873,None,,,,,,,,,,,,,,,,,,,,,,,,,,,,,,,,,,,,,,,,,,,,,,,,,,,,,,,,,,,,,camila_s,001,d,2019_Oct_10_1257,Experimento,3.2.3,59.98270686789826,
8,14,14,999,0.5,0:10,3,,,0,0,1,20:50,./completed_changuitos/montage_mpame_40.25_35.2.jpg,left,0,0,0,0,,,,,0,0,0,0,,,,,,,,,0,0,0,0,,,,,,,,,,,,,,,,,,,,,,,,,,,,,124.23193075299787,None,right,0,8.29073800399783,124.23193075299787,None,124.23193075299787,127.24181931099156,,,,,,,,,,,,,,,,,,,,,,,,,,,,,,,,,,,,,,,,,,,,,,,,,,,camila_s,001,d,2019_Oct_10_1257,Experimento,3.2.3,59.98270686789826,
8,14,14,999,0.5,0:10,3,,,0,0,1,20:50,,,0,0,0,0,,,,,0,0,0,0,,,,,,,,,,,,,,,,,,,,,,,,,,,,,,,,,,,,,,,,,,,,,,,,,,,,,,,,,,,,,,,,,,,,,,,,,,,,,,,,,,,,,,,,,,,,,,,,,,,,camila_s,001,d,2019_Oct_10_1257,Experimento,3.2.3,59.98270686789826,
8,14,14,999,0.5,0:10,3,,,0,1,0,10:50,./completed_changuitos/montage_evimo_501.49_435.49.jpg,left,0,0,0,0,,,,,0,1,1,1,,,,,0,0,0,0,,,,,,,,,,,,,,,,,,,,,,,,,,,,,,,,,,,,,,,,,,132.6678100539866,138.7213176729856,138.7213176729856,146.7352134519897,146.7352134519897,160.74708254198777,right,0,2.499652911996236,160.74708254198777,None,160.74708254198777,None,160.74708254198777,None,,,,,,,,,,,,,,,,,,,,,,,,,,,,,,,,,,,,camila_s,001,d,2019_Oct_10_1257,Experimento,3.2.3,59.98270686789826,
8,14,14,999,0.5,0:10,3,,,0,1,0,10:50,,,0,0,0,0,,,,,0,1,1,1,,,,,,,,,,,,,,,,,,,,,,,,,,,,,,,,,,,,,,,,,,,,,,,,,,,,,,,,,,,,,,,,,,,,,,,,,,,,,,,,,,,,,,,,,,,,,,,,,,,,camila_s,001,d,2019_Oct_10_1257,Experimento,3.2.3,59.98270686789826,
8,14,14,999,0.5,0:10,3,,,0,1,0,25:50,./completed_changuitos/montage_pcmbj_163.7_146.59.jpg,left,0,0,0,0,,,,,0,2,2,2,,,,,0,0,0,0,,,,,,,,,,,,,,,,,,,,,,,,,,,,,,,,,,,,,,,,,,163.41026926299674,168.12791950599058,168.12791950599058,176.14185457599524,176.14185457599524,190.13643000299635,left,1,1.1001610109960893,190.13643000299635,None,190.13643000299635,None,190.13643000299635,None,,,,,,,,,,,,,,,,,,,,,,,,,,,,,,,,,,,,camila_s,001,d,2019_Oct_10_1257,Experimento,3.2.3,59.98270686789826,
8,14,14,999,0.5,0:10,3,,,0,1,0,25:50,,,0,0,0,0,,,,,0,2,2,2,,,,,,,,,,,,,,,,,,,,,,,,,,,,,,,,,,,,,,,,,,,,,,,,,,,,,,,,,,,,,,,,,,,,,,,,,,,,,,,,,,,,,,,,,,,,,,,,,,,,camila_s,001,d,2019_Oct_10_1257,Experimento,3.2.3,59.98270686789826,
8,14,14,999,0.5,0:10,3,Yellow,None,0,0,1,15:50,./completed_changuitos/montage_lveyu_38.0_32.09.jpg,left,0,0,0,0,,,,,0,3,3,3,,,,,,,,,0,0,0,0,0,0,0,0,,,,,,,,,,,,,,191.3890207779914,199.80040289899625,199.80040289899625,None,207.84195931299473,208.3475326669868,None,1,207.84195931299473,None,,,,,,,,,,,,,,,,,,,,,,,,,,,,,,,,,,,,,,,,,,,,,,,,,,,,,,,,,,,,,camila_s,001,d,2019_Oct_10_1257,Experimento,3.2.3,59.98270686789826,
8,14,14,999,0.5,0:10,3,White,['space'],0,0,1,15:50,./completed_changuitos/montage_lveyu_38.0_32.09.jpg,left,0,0,0,0,,,,,0,3,3,3,,,,,,,,,0,0,0,0,0,1,1,1,,,,,,,,,,,,,,,,,,209.84684442299476,210.34679546399275,None,0,209.84684442299476,209.84684442299476,,,,,,,,,,,,,,,,,,,,,,,,,,,,,,,,,,,,,,,,,,,,,,,,,,,,,,,,,,,,,camila_s,001,d,2019_Oct_10_1257,Experimento,3.2.3,59.98270686789826,
8,14,14,999,0.5,0:10,3,Magenta,None,0,0,1,15:50,./completed_changuitos/montage_lveyu_38.0_32.09.jpg,left,0,0,0,0,,,,,0,3,3,3,,,,,,,,,0,0,0,0,0,2,2,2,,,,,,,,,,,,,,,,,,211.845900092987,212.34610891698685,None,1,211.845900092987,211.845900092987,,,,,,,,,,,,,,,,,,,,,,,,,,,,,,,,,,,,,,,,,,,,,,,,,,,,,,,,,,,,,camila_s,001,d,2019_Oct_10_1257,Experimento,3.2.3,59.98270686789826,
8,14,14,999,0.5,0:10,3,Cyan,None,0,0,1,15:50,./completed_changuitos/montage_lveyu_38.0_32.09.jpg,left,0,0,0,0,,,,,0,3,3,3,,,,,,,,,0,0,0,0,0,3,3,3,,,,,,,,,,,,,,,,,,213.84556015398994,214.34545398699993,None,1,213.84556015398994,213.84556015398994,,,,,,,,,,,,,,,,,,,,,,,,,,,,,,,,,,,,,,,,,,,,,,,,,,,,,,,,,,,,,camila_s,001,d,2019_Oct_10_1257,Experimento,3.2.3,59.98270686789826,
8,14,14,999,0.5,0:10,3,Blue,None,0,0,1,15:50,./completed_changuitos/montage_lveyu_38.0_32.09.jpg,left,0,0,0,0,,,,,0,3,3,3,,,,,,,,,0,0,0,0,0,4,4,4,,,,,,,,,,,,,,,,,,215.84487125399755,216.34475920299883,None,1,215.84487125399755,215.84487125399755,,,,,,,,,,,,,,,,,,,,,,,,,,,,,,,,,,,,,,,,,,,,,,,,,,,,,,,,,,,,,camila_s,001,d,2019_Oct_10_1257,Experimento,3.2.3,59.98270686789826,
8,14,14,999,0.5,0:10,3,Magenta,None,0,0,1,15:50,./completed_changuitos/montage_lveyu_38.0_32.09.jpg,left,0,0,0,0,,,,,0,3,3,3,,,,,,,,,0,0,0,0,0,5,5,5,,,,,,,,,,,,,,,,,,217.84415425598854,218.34405671799323,['return'],0,217.84415425598854,217.84415425598854,[0.5838450890005333],,,,,,,,,,,,,,,,,,,,,,,,,,,,,,,,,,,,,,,,,,,,,,,,,,,,,,,,,,,,camila_s,001,d,2019_Oct_10_1257,Experimento,3.2.3,59.98270686789826,
8,14,14,999,0.5,0:10,3,Blue,['space'],0,0,1,15:50,./completed_changuitos/montage_lveyu_38.0_32.09.jpg,left,0,0,0,0,,,,,0,3,3,3,,,,,,,,,0,0,0,0,0,6,6,6,,,,,,,,,,,,,,,,,,219.84342868899694,220.34337911799958,['return'],0,219.84342868899694,219.84342868899694,[1.0003002529992955],,,,,,,,,,,,,,,,,,,,,,,,,,,,,,,,,,,,,,,,,,,,,,,,,,,,,,,,,,,,camila_s,001,d,2019_Oct_10_1257,Experimento,3.2.3,59.98270686789826,
8,14,14,999,0.5,0:10,3,Cyan,None,0,0,1,15:50,./completed_changuitos/montage_lveyu_38.0_32.09.jpg,left,0,0,0,0,,,,,0,3,3,3,,,,,,,,,0,0,0,0,0,7,7,7,,,,,,,,,,,,,,,,,,221.82588464448492,None,None,1,221.82588464448492,None,,,,,,,,,,,,,,,,,,,,,,,,,,,,,,,,,,,,,,,,,,,,,,,,,,,,,,,,,,,,,camila_s,001,d,2019_Oct_10_1257,Experimento,3.2.3,59.98270686789826,
8,14,14,999,0.5,0:10,3,Yellow,None,0,0,1,15:50,./completed_changuitos/montage_lveyu_38.0_32.09.jpg,left,0,0,0,0,,,,,0,3,3,3,,,,,,,,,0,0,0,0,0,8,8,8,,,,,,,,,,,,,,,,,,221.82588464448492,None,None,1,221.82588464448492,None,,,,,,,,,,,,,,,,,,,,,,,,,,,,,,,,,,,,,,,,,,,,,,,,,,,,,,,,,,,,,camila_s,001,d,2019_Oct_10_1257,Experimento,3.2.3,59.98270686789826,
8,14,14,999,0.5,0:10,3,Cyan,None,0,0,1,15:50,./completed_changuitos/montage_lveyu_38.0_32.09.jpg,left,0,0,0,0,,,,,0,3,3,3,,,,,,,,,0,0,0,0,0,9,9,9,,,,,,,,,,,,,,,,,,221.82588464448492,None,None,1,221.82588464448492,None,,,,,,,,,,,,,,,,,,,,,,,,,,,,,,,,,,,,,,,,,,,,,,,,,,,,,,,,,,,,,camila_s,001,d,2019_Oct_10_1257,Experimento,3.2.3,59.98270686789826,
8,14,14,999,0.5,0:10,3,Blue,None,0,0,1,15:50,./completed_changuitos/montage_lveyu_38.0_32.09.jpg,left,0,0,0,0,,,,,0,3,3,3,,,,,,,,,0,0,0,0,0,10,10,10,,,,,,,,,,,,,,,,,,221.82588464448492,None,None,1,221.82588464448492,None,,,,,,,,,,,,,,,,,,,,,,,,,,,,,,,,,,,,,,,,,,,,,,,,,,,,,,,,,,,,,camila_s,001,d,2019_Oct_10_1257,Experimento,3.2.3,59.98270686789826,
8,14,14,999,0.5,0:10,3,Cyan,['space'],0,0,1,15:50,./completed_changuitos/montage_lveyu_38.0_32.09.jpg,left,0,0,0,0,,,,,0,3,3,3,,,,,,,,,0,0,0,0,0,11,11,11,,,,,,,,,,,,,,,,,,221.82588464448492,None,None,0,221.82588464448492,None,,,,,,,,,,,,,,,,,,,,,,,,,,,,,,,,,,,,,,,,,,,,,,,,,,,,,,,,,,,,,camila_s,001,d,2019_Oct_10_1257,Experimento,3.2.3,59.98270686789826,
8,14,14,999,0.5,0:10,3,Magenta,None,0,0,1,15:50,./completed_changuitos/montage_lveyu_38.0_32.09.jpg,left,0,0,0,0,,,,,0,3,3,3,,,,,,,,,0,0,0,0,0,12,12,12,,,,,,,,,,,,,,,,,,221.82588464448492,None,None,1,221.82588464448492,None,,,,,,,,,,,,,,,,,,,,,,,,,,,,,,,,,,,,,,,,,,,,,,,,,,,,,,,,,,,,,camila_s,001,d,2019_Oct_10_1257,Experimento,3.2.3,59.98270686789826,
8,14,14,999,0.5,0:10,3,Red,None,0,0,1,15:50,./completed_changuitos/montage_lveyu_38.0_32.09.jpg,left,0,0,0,0,,,,,0,3,3,3,,,,,,,,,0,0,0,0,0,13,13,13,,,,,,,,,,,,,,,,,,221.82588464448492,None,None,1,221.82588464448492,None,,,,,,,,,,,,,,,,,,,,,,,,,,,,,,,,,,,,,,,,,,,,,,,,,,,,,,,,,,,,,camila_s,001,d,2019_Oct_10_1257,Experimento,3.2.3,59.98270686789826,
8,14,14,999,0.5,0:10,3,Magenta,['space'],0,0,1,15:50,./completed_changuitos/montage_lveyu_38.0_32.09.jpg,left,0,0,0,0,,,,,0,3,3,3,,,,,,,,,0,0,0,0,0,14,14,14,,,,,,,,,,,,,,,,,,221.82588464448492,None,None,0,221.82588464448492,None,,,,,,,,,,,,,,,,,,,,,,,,,,,,,,,,,,,,,,,,,,,,,,,,,,,,,,,,,,,,,camila_s,001,d,2019_Oct_10_1257,Experimento,3.2.3,59.98270686789826,
8,14,14,999,0.5,0:10,3,Green,None,0,0,1,15:50,./completed_changuitos/montage_lveyu_38.0_32.09.jpg,left,0,0,0,0,,,,,0,3,3,3,,,,,,,,,0,0,0,0,0,15,15,15,,,,,,,,,,,,,,,,,,221.82588464448492,None,None,1,221.82588464448492,None,,,,,,,,,,,,,,,,,,,,,,,,,,,,,,,,,,,,,,,,,,,,,,,,,,,,,,,,,,,,,camila_s,001,d,2019_Oct_10_1257,Experimento,3.2.3,59.98270686789826,
8,14,14,999,0.5,0:10,3,Yellow,['space'],0,0,1,15:50,./completed_changuitos/montage_lveyu_38.0_32.09.jpg,left,0,0,0,0,,,,,0,3,3,3,,,,,,,,,0,0,0,0,0,16,16,16,,,,,,,,,,,,,,,,,,221.82588464448492,None,None,0,221.82588464448492,None,,,,,,,,,,,,,,,,,,,,,,,,,,,,,,,,,,,,,,,,,,,,,,,,,,,,,,,,,,,,,camila_s,001,d,2019_Oct_10_1257,Experimento,3.2.3,59.98270686789826,
8,14,14,999,0.5,0:10,3,Blue,None,0,0,1,15:50,./completed_changuitos/montage_lveyu_38.0_32.09.jpg,left,0,0,0,0,,,,,0,3,3,3,,,,,,,,,0,0,0,0,0,17,17,17,,,,,,,,,,,,,,,,,,221.82588464448492,None,None,1,221.82588464448492,None,,,,,,,,,,,,,,,,,,,,,,,,,,,,,,,,,,,,,,,,,,,,,,,,,,,,,,,,,,,,,camila_s,001,d,2019_Oct_10_1257,Experimento,3.2.3,59.98270686789826,
8,14,14,999,0.5,0:10,3,Cyan,None,0,0,1,15:50,./completed_changuitos/montage_lveyu_38.0_32.09.jpg,left,0,0,0,0,,,,,0,3,3,3,,,,,,,,,0,0,0,0,0,18,18,18,,,,,,,,,,,,,,,,,,221.82588464448492,None,None,1,221.82588464448492,None,,,,,,,,,,,,,,,,,,,,,,,,,,,,,,,,,,,,,,,,,,,,,,,,,,,,,,,,,,,,,camila_s,001,d,2019_Oct_10_1257,Experimento,3.2.3,59.98270686789826,
8,14,14,999,0.5,0:10,3,Blue,['space'],0,0,1,15:50,./completed_changuitos/montage_lveyu_38.0_32.09.jpg,left,0,0,0,0,,,,,0,3,3,3,,,,,,,,,0,0,0,0,0,19,19,19,,,,,,,,,,,,,,,,,,221.82588464448492,None,None,0,221.82588464448492,None,,,,,,,,,,,,,,,,,,,,,,,,,,,,,,,,,,,,,,,,,,,,,,,,,,,,,,,,,,,,,camila_s,001,d,2019_Oct_10_1257,Experimento,3.2.3,59.98270686789826,
8,14,14,999,0.5,0:10,3,Yellow,None,0,0,1,15:50,./completed_changuitos/montage_lveyu_38.0_32.09.jpg,left,0,0,0,0,,,,,0,3,3,3,,,,,,,,,0,0,0,0,0,20,20,20,,,,,,,,,,,,,,,,,,221.842583587984,None,None,1,221.842583587984,None,,,,,,,,,,,,,,,,,,,,,,,,,,,,,,,,,,,,,,,,,,,,,,,,,,,,,,,,,,,,,camila_s,001,d,2019_Oct_10_1257,Experimento,3.2.3,59.98270686789826,
8,14,14,999,0.5,0:10,3,Cyan,None,0,0,1,15:50,./completed_changuitos/montage_lveyu_38.0_32.09.jpg,left,0,0,0,0,,,,,0,3,3,3,,,,,,,,,0,0,0,0,0,21,21,21,,,,,,,,,,,,,,,,,,221.842583587984,None,None,1,221.842583587984,None,,,,,,,,,,,,,,,,,,,,,,,,,,,,,,,,,,,,,,,,,,,,,,,,,,,,,,,,,,,,,camila_s,001,d,2019_Oct_10_1257,Experimento,3.2.3,59.98270686789826,
8,14,14,999,0.5,0:10,3,Yellow,['space'],0,0,1,15:50,./completed_changuitos/montage_lveyu_38.0_32.09.jpg,left,0,0,0,0,,,,,0,3,3,3,,,,,,,,,0,0,0,0,0,22,22,22,,,,,,,,,,,,,,,,,,221.842583587984,None,None,0,221.842583587984,None,,,,,,,,,,,,,,,,,,,,,,,,,,,,,,,,,,,,,,,,,,,,,,,,,,,,,,,,,,,,,camila_s,001,d,2019_Oct_10_1257,Experimento,3.2.3,59.98270686789826,
8,14,14,999,0.5,0:10,3,Magenta,None,0,0,1,15:50,./completed_changuitos/montage_lveyu_38.0_32.09.jpg,left,0,0,0,0,,,,,0,3,3,3,,,,,,,,,0,0,0,0,0,23,23,23,,,,,,,,,,,,,,,,,,221.842583587984,None,None,1,221.842583587984,None,,,,,,,,,,,,,,,,,,,,,,,,,,,,,,,,,,,,,,,,,,,,,,,,,,,,,,,,,,,,,camila_s,001,d,2019_Oct_10_1257,Experimento,3.2.3,59.98270686789826,
8,14,14,999,0.5,0:10,3,Red,None,0,0,1,15:50,./completed_changuitos/montage_lveyu_38.0_32.09.jpg,left,0,0,0,0,,,,,0,3,3,3,,,,,,,,,0,0,0,0,0,24,24,24,,,,,,,,,,,,,,,,,,221.842583587984,None,None,1,221.842583587984,None,,,,,,,,,,,,,,,,,,,,,,,,,,,,,,,,,,,,,,,,,,,,,,,,,,,,,,,,,,,,,camila_s,001,d,2019_Oct_10_1257,Experimento,3.2.3,59.98270686789826,
8,14,14,999,0.5,0:10,3,Magenta,['space'],0,0,1,15:50,./completed_changuitos/montage_lveyu_38.0_32.09.jpg,left,0,0,0,0,,,,,0,3,3,3,,,,,,,,,0,0,0,0,0,25,25,25,,,,,,,,,,,,,,,,,,221.842583587984,None,None,0,221.842583587984,None,,,,,,,,,,,,,,,,,,,,,,,,,,,,,,,,,,,,,,,,,,,,,,,,,,,,,,,,,,,,,camila_s,001,d,2019_Oct_10_1257,Experimento,3.2.3,59.98270686789826,
8,14,14,999,0.5,0:10,3,Red,['space'],0,0,1,15:50,./completed_changuitos/montage_lveyu_38.0_32.09.jpg,left,0,0,0,0,,,,,0,3,3,3,,,,,,,,,0,0,0,0,0,26,26,26,,,,,,,,,,,,,,,,,,221.842583587984,None,None,0,221.842583587984,None,,,,,,,,,,,,,,,,,,,,,,,,,,,,,,,,,,,,,,,,,,,,,,,,,,,,,,,,,,,,,camila_s,001,d,2019_Oct_10_1257,Experimento,3.2.3,59.98270686789826,
8,14,14,999,0.5,0:10,3,Yellow,None,0,0,1,15:50,./completed_changuitos/montage_lveyu_38.0_32.09.jpg,left,0,0,0,0,,,,,0,3,3,3,,,,,,,,,0,0,0,0,0,27,27,27,,,,,,,,,,,,,,,,,,221.842583587984,None,None,1,221.842583587984,None,,,,,,,,,,,,,,,,,,,,,,,,,,,,,,,,,,,,,,,,,,,,,,,,,,,,,,,,,,,,,camila_s,001,d,2019_Oct_10_1257,Experimento,3.2.3,59.98270686789826,
8,14,14,999,0.5,0:10,3,Cyan,None,0,0,1,15:50,./completed_changuitos/montage_lveyu_38.0_32.09.jpg,left,0,0,0,0,,,,,0,3,3,3,,,,,,,,,0,0,0,0,0,28,28,28,,,,,,,,,,,,,,,,,,221.842583587984,None,None,1,221.842583587984,None,,,,,,,,,,,,,,,,,,,,,,,,,,,,,,,,,,,,,,,,,,,,,,,,,,,,,,,,,,,,,camila_s,001,d,2019_Oct_10_1257,Experimento,3.2.3,59.98270686789826,
8,14,14,999,0.5,0:10,3,Green,None,0,0,1,15:50,./completed_changuitos/montage_lveyu_38.0_32.09.jpg,left,0,0,0,0,,,,,0,3,3,3,,,,,,,,,0,0,0,0,0,29,29,29,,,,,,,,,,,,,,,,,,221.842583587984,None,None,1,221.842583587984,None,,,,,,,,,,,,,,,,,,,,,,,,,,,,,,,,,,,,,,,,,,,,,,,,,,,,,,,,,,,,,camila_s,001,d,2019_Oct_10_1257,Experimento,3.2.3,59.98270686789826,
8,14,14,999,0.5,0:10,3,White,None,0,0,1,15:50,./completed_changuitos/montage_lveyu_38.0_32.09.jpg,left,0,0,0,0,,,,,0,3,3,3,,,,,,,,,0,0,0,0,0,30,30,30,,,,,,,,,,,,,,,,,,221.842583587984,None,None,1,221.842583587984,None,,,,,,,,,,,,,,,,,,,,,,,,,,,,,,,,,,,,,,,,,,,,,,,,,,,,,,,,,,,,,camila_s,001,d,2019_Oct_10_1257,Experimento,3.2.3,59.98270686789826,
8,14,14,999,0.5,0:10,3,Green,['space'],0,0,1,15:50,./completed_changuitos/montage_lveyu_38.0_32.09.jpg,left,0,0,0,0,,,,,0,3,3,3,,,,,,,,,0,0,0,0,0,31,31,31,,,,,,,,,,,,,,,,,,221.842583587984,None,None,0,221.842583587984,None,,,,,,,,,,,,,,,,,,,,,,,,,,,,,,,,,,,,,,,,,,,,,,,,,,,,,,,,,,,,,camila_s,001,d,2019_Oct_10_1257,Experimento,3.2.3,59.98270686789826,
8,14,14,999,0.5,0:10,3,Red,None,0,0,1,15:50,./completed_changuitos/montage_lveyu_38.0_32.09.jpg,left,0,0,0,0,,,,,0,3,3,3,,,,,,,,,0,0,0,0,0,32,32,32,,,,,,,,,,,,,,,,,,221.842583587984,None,None,1,221.842583587984,None,,,,,,,,,,,,,,,,,,,,,,,,,,,,,,,,,,,,,,,,,,,,,,,,,,,,,,,,,,,,,camila_s,001,d,2019_Oct_10_1257,Experimento,3.2.3,59.98270686789826,
8,14,14,999,0.5,0:10,3,Blue,None,0,0,1,15:50,./completed_changuitos/montage_lveyu_38.0_32.09.jpg,left,0,0,0,0,,,,,0,3,3,3,,,,,,,,,0,0,0,0,0,33,33,33,,,,,,,,,,,,,,,,,,221.842583587984,None,None,1,221.842583587984,None,,,,,,,,,,,,,,,,,,,,,,,,,,,,,,,,,,,,,,,,,,,,,,,,,,,,,,,,,,,,,camila_s,001,d,2019_Oct_10_1257,Experimento,3.2.3,59.98270686789826,
8,14,14,999,0.5,0:10,3,Green,None,0,0,1,15:50,./completed_changuitos/montage_lveyu_38.0_32.09.jpg,left,0,0,0,0,,,,,0,3,3,3,,,,,,,,,0,0,0,0,0,34,34,34,,,,,,,,,,,,,,,,,,221.842583587984,None,None,1,221.842583587984,None,,,,,,,,,,,,,,,,,,,,,,,,,,,,,,,,,,,,,,,,,,,,,,,,,,,,,,,,,,,,,camila_s,001,d,2019_Oct_10_1257,Experimento,3.2.3,59.98270686789826,
8,14,14,999,0.5,0:10,3,,,0,0,1,15:50,./completed_changuitos/montage_lveyu_38.0_32.09.jpg,left,0,0,0,0,,,,,0,3,3,3,,,,,,,,,0,0,0,0,,,,,,,,,,,,,,,,,,,,,,,,,,,,,221.886894611991,None,left,1,2.338490294991061,221.886894611991,None,221.886894611991,None,,,,,,,,,,,,,,,,,,,,,,,,,,,,,,,,,,,,,,,,,,,,,,,,,,,camila_s,001,d,2019_Oct_10_1257,Experimento,3.2.3,59.98270686789826,
8,14,14,999,0.5,0:10,3,,,0,0,1,15:50,,,0,0,0,0,,,,,0,3,3,3,,,,,,,,,,,,,,,,,,,,,,,,,,,,,,,,,,,,,,,,,,,,,,,,,,,,,,,,,,,,,,,,,,,,,,,,,,,,,,,,,,,,,,,,,,,,,,,,,,,,camila_s,001,d,2019_Oct_10_1257,Experimento,3.2.3,59.98270686789826,
8,14,14,999,0.5,0:10,3,,,0,1,0,10:50,./completed_changuitos/montage_fxokt_104.85_120.79.jpg,right,0,0,0,0,,,,,0,4,4,4,,,,,0,0,0,0,,,,,,,,,,,,,,,,,,,,,,,,,,,,,,,,,,,,,,,,,,224.37498446099926,227.69089170299412,227.69089170299412,235.70483103398874,235.70483103398874,249.71661288299947,right,1,0.7503516159922583,249.71661288299947,None,249.71661288299947,None,249.71661288299947,None,,,,,,,,,,,,,,,,,,,,,,,,,,,,,,,,,,,,camila_s,001,d,2019_Oct_10_1257,Experimento,3.2.3,59.98270686789826,
8,14,14,999,0.5,0:10,3,,,0,1,0,10:50,,,0,0,0,0,,,,,0,4,4,4,,,,,,,,,,,,,,,,,,,,,,,,,,,,,,,,,,,,,,,,,,,,,,,,,,,,,,,,,,,,,,,,,,,,,,,,,,,,,,,,,,,,,,,,,,,,,,,,,,,,camila_s,001,d,2019_Oct_10_1257,Experimento,3.2.3,59.98270686789826,
8,14,14,999,0.5,0:10,3,Red,None,0,0,1,28:50,./completed_changuitos/montage_ukogj_41.09_47.09.jpg,right,0,0,0,0,,,,,0,5,5,5,,,,,,,,,0,0,0,0,0,0,0,0,,,,,,,,,,,,,,250.59950247699453,252.79854882099607,252.79854882099607,None,260.8398353879893,261.34604307598784,None,1,260.8398353879893,None,,,,,,,,,,,,,,,,,,,,,,,,,,,,,,,,,,,,,,,,,,,,,,,,,,,,,,,,,,,,,camila_s,001,d,2019_Oct_10_1257,Experimento,3.2.3,59.98270686789826,
8,14,14,999,0.5,0:10,3,Magenta,['space'],0,0,1,28:50,./completed_changuitos/montage_ukogj_41.09_47.09.jpg,right,0,0,0,0,,,,,0,5,5,5,,,,,,,,,0,0,0,0,0,1,1,1,,,,,,,,,,,,,,,,,,262.84544820399606,263.3453424239997,None,0,262.84544820399606,262.84544820399606,,,,,,,,,,,,,,,,,,,,,,,,,,,,,,,,,,,,,,,,,,,,,,,,,,,,,,,,,,,,,camila_s,001,d,2019_Oct_10_1257,Experimento,3.2.3,59.98270686789826,
8,14,14,999,0.5,0:10,3,Green,None,0,0,1,28:50,./completed_changuitos/montage_ukogj_41.09_47.09.jpg,right,0,0,0,0,,,,,0,5,5,5,,,,,,,,,0,0,0,0,0,2,2,2,,,,,,,,,,,,,,,,,,264.8447776249959,265.344615635986,None,1,264.8447776249959,264.8447776249959,,,,,,,,,,,,,,,,,,,,,,,,,,,,,,,,,,,,,,,,,,,,,,,,,,,,,,,,,,,,,camila_s,001,d,2019_Oct_10_1257,Experimento,3.2.3,59.98270686789826,
8,14,14,999,0.5,0:10,3,Yellow,['space'],0,0,1,28:50,./completed_changuitos/montage_ukogj_41.09_47.09.jpg,right,0,0,0,0,,,,,0,5,5,5,,,,,,,,,0,0,0,0,0,3,3,3,,,,,,,,,,,,,,,,,,266.8437393889908,267.34397636899666,None,0,266.8437393889908,266.8437393889908,,,,,,,,,,,,,,,,,,,,,,,,,,,,,,,,,,,,,,,,,,,,,,,,,,,,,,,,,,,,,camila_s,001,d,2019_Oct_10_1257,Experimento,3.2.3,59.98270686789826,
8,14,14,999,0.5,0:10,3,Blue,None,0,0,1,28:50,./completed_changuitos/montage_ukogj_41.09_47.09.jpg,right,0,0,0,0,,,,,0,5,5,5,,,,,,,,,0,0,0,0,0,4,4,4,,,,,,,,,,,,,,,,,,268.8430993219954,269.3433000619989,None,1,268.8430993219954,268.8430993219954,,,,,,,,,,,,,,,,,,,,,,,,,,,,,,,,,,,,,,,,,,,,,,,,,,,,,,,,,,,,,camila_s,001,d,2019_Oct_10_1257,Experimento,3.2.3,59.98270686789826,
8,14,14,999,0.5,0:10,3,Cyan,None,0,0,1,28:50,./completed_changuitos/montage_ukogj_41.09_47.09.jpg,right,0,0,0,0,,,,,0,5,5,5,,,,,,,,,0,0,0,0,0,5,5,5,,,,,,,,,,,,,,,,,,270.8426807999931,271.3422461639857,None,1,270.8426807999931,270.8426807999931,,,,,,,,,,,,,,,,,,,,,,,,,,,,,,,,,,,,,,,,,,,,,,,,,,,,,,,,,,,,,camila_s,001,d,2019_Oct_10_1257,Experimento,3.2.3,59.98270686789826,
8,14,14,999,0.5,0:10,3,Blue,['space'],0,0,1,28:50,./completed_changuitos/montage_ukogj_41.09_47.09.jpg,right,0,0,0,0,,,,,0,5,5,5,,,,,,,,,0,0,0,0,0,6,6,6,,,,,,,,,,,,,,,,,,272.84202041199023,273.3419246679987,['return'],0,272.84202041199023,272.84202041199023,[0.7838530620065285],,,,,,,,,,,,,,,,,,,,,,,,,,,,,,,,,,,,,,,,,,,,,,,,,,,,,,,,,,,,camila_s,001,d,2019_Oct_10_1257,Experimento,3.2.3,59.98270686789826,
8,14,14,999,0.5,0:10,3,Yellow,None,0,0,1,28:50,./completed_changuitos/montage_ukogj_41.09_47.09.jpg,right,0,0,0,0,,,,,0,5,5,5,,,,,,,,,0,0,0,0,0,7,7,7,,,,,,,,,,,,,,,,,,274.82477611149517,None,None,1,274.82477611149517,None,,,,,,,,,,,,,,,,,,,,,,,,,,,,,,,,,,,,,,,,,,,,,,,,,,,,,,,,,,,,,camila_s,001,d,2019_Oct_10_1257,Experimento,3.2.3,59.98270686789826,
8,14,14,999,0.5,0:10,3,Cyan,None,0,0,1,28:50,./completed_changuitos/montage_ukogj_41.09_47.09.jpg,right,0,0,0,0,,,,,0,5,5,5,,,,,,,,,0,0,0,0,0,8,8,8,,,,,,,,,,,,,,,,,,274.82477611149517,None,None,1,274.82477611149517,None,,,,,,,,,,,,,,,,,,,,,,,,,,,,,,,,,,,,,,,,,,,,,,,,,,,,,,,,,,,,,camila_s,001,d,2019_Oct_10_1257,Experimento,3.2.3,59.98270686789826,
8,14,14,999,0.5,0:10,3,Yellow,['space'],0,0,1,28:50,./completed_changuitos/montage_ukogj_41.09_47.09.jpg,right,0,0,0,0,,,,,0,5,5,5,,,,,,,,,0,0,0,0,0,9,9,9,,,,,,,,,,,,,,,,,,274.82477611149517,None,None,0,274.82477611149517,None,,,,,,,,,,,,,,,,,,,,,,,,,,,,,,,,,,,,,,,,,,,,,,,,,,,,,,,,,,,,,camila_s,001,d,2019_Oct_10_1257,Experimento,3.2.3,59.98270686789826,
8,14,14,999,0.5,0:10,3,Magenta,None,0,0,1,28:50,./completed_changuitos/montage_ukogj_41.09_47.09.jpg,right,0,0,0,0,,,,,0,5,5,5,,,,,,,,,0,0,0,0,0,10,10,10,,,,,,,,,,,,,,,,,,274.82477611149517,None,None,1,274.82477611149517,None,,,,,,,,,,,,,,,,,,,,,,,,,,,,,,,,,,,,,,,,,,,,,,,,,,,,,,,,,,,,,camila_s,001,d,2019_Oct_10_1257,Experimento,3.2.3,59.98270686789826,
8,14,14,999,0.5,0:10,3,Red,None,0,0,1,28:50,./completed_changuitos/montage_ukogj_41.09_47.09.jpg,right,0,0,0,0,,,,,0,5,5,5,,,,,,,,,0,0,0,0,0,11,11,11,,,,,,,,,,,,,,,,,,274.84147505499425,None,None,1,274.84147505499425,None,,,,,,,,,,,,,,,,,,,,,,,,,,,,,,,,,,,,,,,,,,,,,,,,,,,,,,,,,,,,,camila_s,001,d,2019_Oct_10_1257,Experimento,3.2.3,59.98270686789826,
8,14,14,999,0.5,0:10,3,Magenta,['space'],0,0,1,28:50,./completed_changuitos/montage_ukogj_41.09_47.09.jpg,right,0,0,0,0,,,,,0,5,5,5,,,,,,,,,0,0,0,0,0,12,12,12,,,,,,,,,,,,,,,,,,274.84147505499425,None,None,0,274.84147505499425,None,,,,,,,,,,,,,,,,,,,,,,,,,,,,,,,,,,,,,,,,,,,,,,,,,,,,,,,,,,,,,camila_s,001,d,2019_Oct_10_1257,Experimento,3.2.3,59.98270686789826,
8,14,14,999,0.5,0:10,3,Red,['space'],0,0,1,28:50,./completed_changuitos/montage_ukogj_41.09_47.09.jpg,right,0,0,0,0,,,,,0,5,5,5,,,,,,,,,0,0,0,0,0,13,13,13,,,,,,,,,,,,,,,,,,274.84147505499425,None,None,0,274.84147505499425,None,,,,,,,,,,,,,,,,,,,,,,,,,,,,,,,,,,,,,,,,,,,,,,,,,,,,,,,,,,,,,camila_s,001,d,2019_Oct_10_1257,Experimento,3.2.3,59.98270686789826,
8,14,14,999,0.5,0:10,3,Yellow,None,0,0,1,28:50,./completed_changuitos/montage_ukogj_41.09_47.09.jpg,right,0,0,0,0,,,,,0,5,5,5,,,,,,,,,0,0,0,0,0,14,14,14,,,,,,,,,,,,,,,,,,274.84147505499425,None,None,1,274.84147505499425,None,,,,,,,,,,,,,,,,,,,,,,,,,,,,,,,,,,,,,,,,,,,,,,,,,,,,,,,,,,,,,camila_s,001,d,2019_Oct_10_1257,Experimento,3.2.3,59.98270686789826,
8,14,14,999,0.5,0:10,3,Cyan,None,0,0,1,28:50,./completed_changuitos/montage_ukogj_41.09_47.09.jpg,right,0,0,0,0,,,,,0,5,5,5,,,,,,,,,0,0,0,0,0,15,15,15,,,,,,,,,,,,,,,,,,274.84147505499425,None,None,1,274.84147505499425,None,,,,,,,,,,,,,,,,,,,,,,,,,,,,,,,,,,,,,,,,,,,,,,,,,,,,,,,,,,,,,camila_s,001,d,2019_Oct_10_1257,Experimento,3.2.3,59.98270686789826,
8,14,14,999,0.5,0:10,3,Green,None,0,0,1,28:50,./completed_changuitos/montage_ukogj_41.09_47.09.jpg,right,0,0,0,0,,,,,0,5,5,5,,,,,,,,,0,0,0,0,0,16,16,16,,,,,,,,,,,,,,,,,,274.8581739984933,None,None,1,274.8581739984933,None,,,,,,,,,,,,,,,,,,,,,,,,,,,,,,,,,,,,,,,,,,,,,,,,,,,,,,,,,,,,,camila_s,001,d,2019_Oct_10_1257,Experimento,3.2.3,59.98270686789826,
8,14,14,999,0.5,0:10,3,White,None,0,0,1,28:50,./completed_changuitos/montage_ukogj_41.09_47.09.jpg,right,0,0,0,0,,,,,0,5,5,5,,,,,,,,,0,0,0,0,0,17,17,17,,,,,,,,,,,,,,,,,,274.8581739984933,None,None,1,274.8581739984933,None,,,,,,,,,,,,,,,,,,,,,,,,,,,,,,,,,,,,,,,,,,,,,,,,,,,,,,,,,,,,,camila_s,001,d,2019_Oct_10_1257,Experimento,3.2.3,59.98270686789826,
8,14,14,999,0.5,0:10,3,Green,['space'],0,0,1,28:50,./completed_changuitos/montage_ukogj_41.09_47.09.jpg,right,0,0,0,0,,,,,0,5,5,5,,,,,,,,,0,0,0,0,0,18,18,18,,,,,,,,,,,,,,,,,,274.8581739984933,None,None,0,274.8581739984933,None,,,,,,,,,,,,,,,,,,,,,,,,,,,,,,,,,,,,,,,,,,,,,,,,,,,,,,,,,,,,,camila_s,001,d,2019_Oct_10_1257,Experimento,3.2.3,59.98270686789826,
8,14,14,999,0.5,0:10,3,Red,None,0,0,1,28:50,./completed_changuitos/montage_ukogj_41.09_47.09.jpg,right,0,0,0,0,,,,,0,5,5,5,,,,,,,,,0,0,0,0,0,19,19,19,,,,,,,,,,,,,,,,,,274.8581739984933,None,None,1,274.8581739984933,None,,,,,,,,,,,,,,,,,,,,,,,,,,,,,,,,,,,,,,,,,,,,,,,,,,,,,,,,,,,,,camila_s,001,d,2019_Oct_10_1257,Experimento,3.2.3,59.98270686789826,
8,14,14,999,0.5,0:10,3,Blue,None,0,0,1,28:50,./completed_changuitos/montage_ukogj_41.09_47.09.jpg,right,0,0,0,0,,,,,0,5,5,5,,,,,,,,,0,0,0,0,0,20,20,20,,,,,,,,,,,,,,,,,,274.8581739984933,None,None,1,274.8581739984933,None,,,,,,,,,,,,,,,,,,,,,,,,,,,,,,,,,,,,,,,,,,,,,,,,,,,,,,,,,,,,,camila_s,001,d,2019_Oct_10_1257,Experimento,3.2.3,59.98270686789826,
8,14,14,999,0.5,0:10,3,Green,None,0,0,1,28:50,./completed_changuitos/montage_ukogj_41.09_47.09.jpg,right,0,0,0,0,,,,,0,5,5,5,,,,,,,,,0,0,0,0,0,21,21,21,,,,,,,,,,,,,,,,,,274.8581739984933,None,None,1,274.8581739984933,None,,,,,,,,,,,,,,,,,,,,,,,,,,,,,,,,,,,,,,,,,,,,,,,,,,,,,,,,,,,,,camila_s,001,d,2019_Oct_10_1257,Experimento,3.2.3,59.98270686789826,
8,14,14,999,0.5,0:10,3,,,0,0,1,28:50,./completed_changuitos/montage_ukogj_41.09_47.09.jpg,right,0,0,0,0,,,,,0,5,5,5,,,,,,,,,0,0,0,0,,,,,,,,,,,,,,,,,,,,,,,,,,,,,274.8937028759974,None,left,0,1.1475976200017612,274.8937028759974,None,274.8937028759974,None,,,,,,,,,,,,,,,,,,,,,,,,,,,,,,,,,,,,,,,,,,,,,,,,,,,camila_s,001,d,2019_Oct_10_1257,Experimento,3.2.3,59.98270686789826,
8,14,14,999,0.5,0:10,3,,,0,0,1,28:50,,,0,0,0,0,,,,,0,5,5,5,,,,,,,,,,,,,,,,,,,,,,,,,,,,,,,,,,,,,,,,,,,,,,,,,,,,,,,,,,,,,,,,,,,,,,,,,,,,,,,,,,,,,,,,,,,,,,,,,,,,camila_s,001,d,2019_Oct_10_1257,Experimento,3.2.3,59.98270686789826,
8,14,14,999,0.5,0:10,3,,,0,1,0,19:50,./completed_changuitos/montage_htmhs_213.29_189.6.jpg,left,0,0,0,0,,,,,0,6,6,6,,,,,0,0,0,0,,,,,,,,,,,,,,,,,,,,,,,,,,,,,,,,,,,,,,,,,,276.183551515991,278.24030188999313,278.24030188999313,286.25427958699584,286.25427958699584,300.2660730699863,right,0,0.7835546610003803,300.2660730699863,None,300.2660730699863,None,300.2660730699863,None,,,,,,,,,,,,,,,,,,,,,,,,,,,,,,,,,,,,camila_s,001,d,2019_Oct_10_1257,Experimento,3.2.3,59.98270686789826,
8,14,14,999,0.5,0:10,3,,,0,1,0,19:50,,,0,0,0,0,,,,,0,6,6,6,,,,,,,,,,,,,,,,,,,,,,,,,,,,,,,,,,,,,,,,,,,,,,,,,,,,,,,,,,,,,,,,,,,,,,,,,,,,,,,,,,,,,,,,,,,,,,,,,,,,camila_s,001,d,2019_Oct_10_1257,Experimento,3.2.3,59.98270686789826,
8,14,14,999,0.5,0:10,3,,,0,1,0,19:50,./completed_changuitos/montage_dwwdf_149.79_131.5.jpg,left,0,0,0,0,,,,,0,7,7,7,,,,,0,0,0,0,,,,,,,,,,,,,,,,,,,,,,,,,,,,,,,,,,,,,,,,,,301.1971663569857,304.3810377849877,304.3810377849877,312.39521159599826,312.39521159599826,326.4071584889898,right,0,0.6662485629931325,326.4071584889898,None,326.4071584889898,None,326.4071584889898,None,,,,,,,,,,,,,,,,,,,,,,,,,,,,,,,,,,,,camila_s,001,d,2019_Oct_10_1257,Experimento,3.2.3,59.98270686789826,
8,14,14,999,0.5,0:10,3,,,0,1,0,19:50,,,0,0,0,0,,,,,0,7,7,7,,,,,,,,,,,,,,,,,,,,,,,,,,,,,,,,,,,,,,,,,,,,,,,,,,,,,,,,,,,,,,,,,,,,,,,,,,,,,,,,,,,,,,,,,,,,,,,,,,,,camila_s,001,d,2019_Oct_10_1257,Experimento,3.2.3,59.98270686789826,
8,14,14,999,0.5,0:10,3,Yellow,None,0,0,1,15:50,./completed_changuitos/montage_cqwgs_125.19_107.99.jpg,left,0,0,0,0,,,,,0,8,8,8,,,,,,,,,0,0,0,0,0,0,0,0,,,,,,,,,,,,,,327.2024396689958,329.28949035199184,329.28949035199184,None,337.30846463098715,337.8198866409948,None,1,337.30846463098715,None,,,,,,,,,,,,,,,,,,,,,,,,,,,,,,,,,,,,,,,,,,,,,,,,,,,,,,,,,,,,,camila_s,001,d,2019_Oct_10_1257,Experimento,3.2.3,59.98270686789826,
8,14,14,999,0.5,0:10,3,White,['space'],0,0,1,15:50,./completed_changuitos/montage_cqwgs_125.19_107.99.jpg,left,0,0,0,0,,,,,0,8,8,8,,,,,,,,,0,0,0,0,0,1,1,1,,,,,,,,,,,,,,,,,,339.31928955498734,339.81920049998735,None,0,339.31928955498734,339.31928955498734,,,,,,,,,,,,,,,,,,,,,,,,,,,,,,,,,,,,,,,,,,,,,,,,,,,,,,,,,,,,,camila_s,001,d,2019_Oct_10_1257,Experimento,3.2.3,59.98270686789826,
8,14,14,999,0.5,0:10,3,Magenta,None,0,0,1,15:50,./completed_changuitos/montage_cqwgs_125.19_107.99.jpg,left,0,0,0,0,,,,,0,8,8,8,,,,,,,,,0,0,0,0,0,2,2,2,,,,,,,,,,,,,,,,,,341.3185928699968,341.81852605698805,None,1,341.3185928699968,341.3185928699968,,,,,,,,,,,,,,,,,,,,,,,,,,,,,,,,,,,,,,,,,,,,,,,,,,,,,,,,,,,,,camila_s,001,d,2019_Oct_10_1257,Experimento,3.2.3,59.98270686789826,
8,14,14,999,0.5,0:10,3,Cyan,None,0,0,1,15:50,./completed_changuitos/montage_cqwgs_125.19_107.99.jpg,left,0,0,0,0,,,,,0,8,8,8,,,,,,,,,0,0,0,0,0,3,3,3,,,,,,,,,,,,,,,,,,343.3176601469895,343.8178574189951,None,1,343.3176601469895,343.3176601469895,,,,,,,,,,,,,,,,,,,,,,,,,,,,,,,,,,,,,,,,,,,,,,,,,,,,,,,,,,,,,camila_s,001,d,2019_Oct_10_1257,Experimento,3.2.3,59.98270686789826,
8,14,14,999,0.5,0:10,3,Blue,None,0,0,1,15:50,./completed_changuitos/montage_cqwgs_125.19_107.99.jpg,left,0,0,0,0,,,,,0,8,8,8,,,,,,,,,0,0,0,0,0,4,4,4,,,,,,,,,,,,,,,,,,345.31729811499827,345.8171510809916,None,1,345.31729811499827,345.31729811499827,,,,,,,,,,,,,,,,,,,,,,,,,,,,,,,,,,,,,,,,,,,,,,,,,,,,,,,,,,,,,camila_s,001,d,2019_Oct_10_1257,Experimento,3.2.3,59.98270686789826,
8,14,14,999,0.5,0:10,3,Magenta,None,0,0,1,15:50,./completed_changuitos/montage_cqwgs_125.19_107.99.jpg,left,0,0,0,0,,,,,0,8,8,8,,,,,,,,,0,0,0,0,0,5,5,5,,,,,,,,,,,,,,,,,,347.3163328469964,347.8164809959999,['return'],0,347.3163328469964,347.3163328469964,[1.2838358050066745],,,,,,,,,,,,,,,,,,,,,,,,,,,,,,,,,,,,,,,,,,,,,,,,,,,,,,,,,,,,camila_s,001,d,2019_Oct_10_1257,Experimento,3.2.3,59.98270686789826,
8,14,14,999,0.5,0:10,3,Blue,['space'],0,0,1,15:50,./completed_changuitos/montage_cqwgs_125.19_107.99.jpg,left,0,0,0,0,,,,,0,8,8,8,,,,,,,,,0,0,0,0,0,6,6,6,,,,,,,,,,,,,,,,,,349.3158634589927,349.8158102939924,['return'],0,349.3158634589927,349.3158634589927,[0.6667754250083817],,,,,,,,,,,,,,,,,,,,,,,,,,,,,,,,,,,,,,,,,,,,,,,,,,,,,,,,,,,,camila_s,001,d,2019_Oct_10_1257,Experimento,3.2.3,59.98270686789826,
8,14,14,999,0.5,0:10,3,Cyan,None,0,0,1,15:50,./completed_changuitos/montage_cqwgs_125.19_107.99.jpg,left,0,0,0,0,,,,,0,8,8,8,,,,,,,,,0,0,0,0,0,7,7,7,,,,,,,,,,,,,,,,,,351.31531193349366,None,None,1,351.31531193349366,None,,,,,,,,,,,,,,,,,,,,,,,,,,,,,,,,,,,,,,,,,,,,,,,,,,,,,,,,,,,,,camila_s,001,d,2019_Oct_10_1257,Experimento,3.2.3,59.98270686789826,
8,14,14,999,0.5,0:10,3,Yellow,None,0,0,1,15:50,./completed_changuitos/montage_cqwgs_125.19_107.99.jpg,left,0,0,0,0,,,,,0,8,8,8,,,,,,,,,0,0,0,0,0,8,8,8,,,,,,,,,,,,,,,,,,351.31531193349366,None,None,1,351.31531193349366,None,,,,,,,,,,,,,,,,,,,,,,,,,,,,,,,,,,,,,,,,,,,,,,,,,,,,,,,,,,,,,camila_s,001,d,2019_Oct_10_1257,Experimento,3.2.3,59.98270686789826,
8,14,14,999,0.5,0:10,3,Cyan,None,0,0,1,15:50,./completed_changuitos/montage_cqwgs_125.19_107.99.jpg,left,0,0,0,0,,,,,0,8,8,8,,,,,,,,,0,0,0,0,0,9,9,9,,,,,,,,,,,,,,,,,,351.31531193349366,None,None,1,351.31531193349366,None,,,,,,,,,,,,,,,,,,,,,,,,,,,,,,,,,,,,,,,,,,,,,,,,,,,,,,,,,,,,,camila_s,001,d,2019_Oct_10_1257,Experimento,3.2.3,59.98270686789826,
8,14,14,999,0.5,0:10,3,Blue,None,0,0,1,15:50,./completed_changuitos/montage_cqwgs_125.19_107.99.jpg,left,0,0,0,0,,,,,0,8,8,8,,,,,,,,,0,0,0,0,0,10,10,10,,,,,,,,,,,,,,,,,,351.31531193349366,None,None,1,351.31531193349366,None,,,,,,,,,,,,,,,,,,,,,,,,,,,,,,,,,,,,,,,,,,,,,,,,,,,,,,,,,,,,,camila_s,001,d,2019_Oct_10_1257,Experimento,3.2.3,59.98270686789826,
8,14,14,999,0.5,0:10,3,Cyan,['space'],0,0,1,15:50,./completed_changuitos/montage_cqwgs_125.19_107.99.jpg,left,0,0,0,0,,,,,0,8,8,8,,,,,,,,,0,0,0,0,0,11,11,11,,,,,,,,,,,,,,,,,,351.33201087699274,None,None,0,351.33201087699274,None,,,,,,,,,,,,,,,,,,,,,,,,,,,,,,,,,,,,,,,,,,,,,,,,,,,,,,,,,,,,,camila_s,001,d,2019_Oct_10_1257,Experimento,3.2.3,59.98270686789826,
8,14,14,999,0.5,0:10,3,Magenta,None,0,0,1,15:50,./completed_changuitos/montage_cqwgs_125.19_107.99.jpg,left,0,0,0,0,,,,,0,8,8,8,,,,,,,,,0,0,0,0,0,12,12,12,,,,,,,,,,,,,,,,,,351.33201087699274,None,None,1,351.33201087699274,None,,,,,,,,,,,,,,,,,,,,,,,,,,,,,,,,,,,,,,,,,,,,,,,,,,,,,,,,,,,,,camila_s,001,d,2019_Oct_10_1257,Experimento,3.2.3,59.98270686789826,
8,14,14,999,0.5,0:10,3,Red,None,0,0,1,15:50,./completed_changuitos/montage_cqwgs_125.19_107.99.jpg,left,0,0,0,0,,,,,0,8,8,8,,,,,,,,,0,0,0,0,0,13,13,13,,,,,,,,,,,,,,,,,,351.33201087699274,None,None,1,351.33201087699274,None,,,,,,,,,,,,,,,,,,,,,,,,,,,,,,,,,,,,,,,,,,,,,,,,,,,,,,,,,,,,,camila_s,001,d,2019_Oct_10_1257,Experimento,3.2.3,59.98270686789826,
8,14,14,999,0.5,0:10,3,Magenta,['space'],0,0,1,15:50,./completed_changuitos/montage_cqwgs_125.19_107.99.jpg,left,0,0,0,0,,,,,0,8,8,8,,,,,,,,,0,0,0,0,0,14,14,14,,,,,,,,,,,,,,,,,,351.33201087699274,None,None,0,351.33201087699274,None,,,,,,,,,,,,,,,,,,,,,,,,,,,,,,,,,,,,,,,,,,,,,,,,,,,,,,,,,,,,,camila_s,001,d,2019_Oct_10_1257,Experimento,3.2.3,59.98270686789826,
8,14,14,999,0.5,0:10,3,Green,None,0,0,1,15:50,./completed_changuitos/montage_cqwgs_125.19_107.99.jpg,left,0,0,0,0,,,,,0,8,8,8,,,,,,,,,0,0,0,0,0,15,15,15,,,,,,,,,,,,,,,,,,351.33201087699274,None,None,1,351.33201087699274,None,,,,,,,,,,,,,,,,,,,,,,,,,,,,,,,,,,,,,,,,,,,,,,,,,,,,,,,,,,,,,camila_s,001,d,2019_Oct_10_1257,Experimento,3.2.3,59.98270686789826,
8,14,14,999,0.5,0:10,3,Yellow,['space'],0,0,1,15:50,./completed_changuitos/montage_cqwgs_125.19_107.99.jpg,left,0,0,0,0,,,,,0,8,8,8,,,,,,,,,0,0,0,0,0,16,16,16,,,,,,,,,,,,,,,,,,351.3487098204918,None,None,0,351.3487098204918,None,,,,,,,,,,,,,,,,,,,,,,,,,,,,,,,,,,,,,,,,,,,,,,,,,,,,,,,,,,,,,camila_s,001,d,2019_Oct_10_1257,Experimento,3.2.3,59.98270686789826,
8,14,14,999,0.5,0:10,3,Blue,None,0,0,1,15:50,./completed_changuitos/montage_cqwgs_125.19_107.99.jpg,left,0,0,0,0,,,,,0,8,8,8,,,,,,,,,0,0,0,0,0,17,17,17,,,,,,,,,,,,,,,,,,351.3487098204918,None,None,1,351.3487098204918,None,,,,,,,,,,,,,,,,,,,,,,,,,,,,,,,,,,,,,,,,,,,,,,,,,,,,,,,,,,,,,camila_s,001,d,2019_Oct_10_1257,Experimento,3.2.3,59.98270686789826,
8,14,14,999,0.5,0:10,3,Cyan,None,0,0,1,15:50,./completed_changuitos/montage_cqwgs_125.19_107.99.jpg,left,0,0,0,0,,,,,0,8,8,8,,,,,,,,,0,0,0,0,0,18,18,18,,,,,,,,,,,,,,,,,,351.3487098204918,None,None,1,351.3487098204918,None,,,,,,,,,,,,,,,,,,,,,,,,,,,,,,,,,,,,,,,,,,,,,,,,,,,,,,,,,,,,,camila_s,001,d,2019_Oct_10_1257,Experimento,3.2.3,59.98270686789826,
8,14,14,999,0.5,0:10,3,Blue,['space'],0,0,1,15:50,./completed_changuitos/montage_cqwgs_125.19_107.99.jpg,left,0,0,0,0,,,,,0,8,8,8,,,,,,,,,0,0,0,0,0,19,19,19,,,,,,,,,,,,,,,,,,351.3487098204918,None,None,0,351.3487098204918,None,,,,,,,,,,,,,,,,,,,,,,,,,,,,,,,,,,,,,,,,,,,,,,,,,,,,,,,,,,,,,camila_s,001,d,2019_Oct_10_1257,Experimento,3.2.3,59.98270686789826,
8,14,14,999,0.5,0:10,3,Yellow,None,0,0,1,15:50,./completed_changuitos/montage_cqwgs_125.19_107.99.jpg,left,0,0,0,0,,,,,0,8,8,8,,,,,,,,,0,0,0,0,0,20,20,20,,,,,,,,,,,,,,,,,,351.3487098204918,None,None,1,351.3487098204918,None,,,,,,,,,,,,,,,,,,,,,,,,,,,,,,,,,,,,,,,,,,,,,,,,,,,,,,,,,,,,,camila_s,001,d,2019_Oct_10_1257,Experimento,3.2.3,59.98270686789826,
8,14,14,999,0.5,0:10,3,Cyan,None,0,0,1,15:50,./completed_changuitos/montage_cqwgs_125.19_107.99.jpg,left,0,0,0,0,,,,,0,8,8,8,,,,,,,,,0,0,0,0,0,21,21,21,,,,,,,,,,,,,,,,,,351.3487098204918,None,None,1,351.3487098204918,None,,,,,,,,,,,,,,,,,,,,,,,,,,,,,,,,,,,,,,,,,,,,,,,,,,,,,,,,,,,,,camila_s,001,d,2019_Oct_10_1257,Experimento,3.2.3,59.98270686789826,
8,14,14,999,0.5,0:10,3,Yellow,['space'],0,0,1,15:50,./completed_changuitos/montage_cqwgs_125.19_107.99.jpg,left,0,0,0,0,,,,,0,8,8,8,,,,,,,,,0,0,0,0,0,22,22,22,,,,,,,,,,,,,,,,,,351.3487098204918,None,None,0,351.3487098204918,None,,,,,,,,,,,,,,,,,,,,,,,,,,,,,,,,,,,,,,,,,,,,,,,,,,,,,,,,,,,,,camila_s,001,d,2019_Oct_10_1257,Experimento,3.2.3,59.98270686789826,
8,14,14,999,0.5,0:10,3,Magenta,None,0,0,1,15:50,./completed_changuitos/montage_cqwgs_125.19_107.99.jpg,left,0,0,0,0,,,,,0,8,8,8,,,,,,,,,0,0,0,0,0,23,23,23,,,,,,,,,,,,,,,,,,351.3487098204918,None,None,1,351.3487098204918,None,,,,,,,,,,,,,,,,,,,,,,,,,,,,,,,,,,,,,,,,,,,,,,,,,,,,,,,,,,,,,camila_s,001,d,2019_Oct_10_1257,Experimento,3.2.3,59.98270686789826,
8,14,14,999,0.5,0:10,3,Red,None,0,0,1,15:50,./completed_changuitos/montage_cqwgs_125.19_107.99.jpg,left,0,0,0,0,,,,,0,8,8,8,,,,,,,,,0,0,0,0,0,24,24,24,,,,,,,,,,,,,,,,,,351.3487098204918,None,None,1,351.3487098204918,None,,,,,,,,,,,,,,,,,,,,,,,,,,,,,,,,,,,,,,,,,,,,,,,,,,,,,,,,,,,,,camila_s,001,d,2019_Oct_10_1257,Experimento,3.2.3,59.98270686789826,
8,14,14,999,0.5,0:10,3,Magenta,['space'],0,0,1,15:50,./completed_changuitos/montage_cqwgs_125.19_107.99.jpg,left,0,0,0,0,,,,,0,8,8,8,,,,,,,,,0,0,0,0,0,25,25,25,,,,,,,,,,,,,,,,,,351.3487098204918,None,None,0,351.3487098204918,None,,,,,,,,,,,,,,,,,,,,,,,,,,,,,,,,,,,,,,,,,,,,,,,,,,,,,,,,,,,,,camila_s,001,d,2019_Oct_10_1257,Experimento,3.2.3,59.98270686789826,
8,14,14,999,0.5,0:10,3,Red,['space'],0,0,1,15:50,./completed_changuitos/montage_cqwgs_125.19_107.99.jpg,left,0,0,0,0,,,,,0,8,8,8,,,,,,,,,0,0,0,0,0,26,26,26,,,,,,,,,,,,,,,,,,351.3487098204918,None,None,0,351.3487098204918,None,,,,,,,,,,,,,,,,,,,,,,,,,,,,,,,,,,,,,,,,,,,,,,,,,,,,,,,,,,,,,camila_s,001,d,2019_Oct_10_1257,Experimento,3.2.3,59.98270686789826,
8,14,14,999,0.5,0:10,3,Yellow,None,0,0,1,15:50,./completed_changuitos/montage_cqwgs_125.19_107.99.jpg,left,0,0,0,0,,,,,0,8,8,8,,,,,,,,,0,0,0,0,0,27,27,27,,,,,,,,,,,,,,,,,,351.36540876399084,None,None,1,351.36540876399084,None,,,,,,,,,,,,,,,,,,,,,,,,,,,,,,,,,,,,,,,,,,,,,,,,,,,,,,,,,,,,,camila_s,001,d,2019_Oct_10_1257,Experimento,3.2.3,59.98270686789826,
8,14,14,999,0.5,0:10,3,Cyan,None,0,0,1,15:50,./completed_changuitos/montage_cqwgs_125.19_107.99.jpg,left,0,0,0,0,,,,,0,8,8,8,,,,,,,,,0,0,0,0,0,28,28,28,,,,,,,,,,,,,,,,,,351.36540876399084,None,None,1,351.36540876399084,None,,,,,,,,,,,,,,,,,,,,,,,,,,,,,,,,,,,,,,,,,,,,,,,,,,,,,,,,,,,,,camila_s,001,d,2019_Oct_10_1257,Experimento,3.2.3,59.98270686789826,
8,14,14,999,0.5,0:10,3,Green,None,0,0,1,15:50,./completed_changuitos/montage_cqwgs_125.19_107.99.jpg,left,0,0,0,0,,,,,0,8,8,8,,,,,,,,,0,0,0,0,0,29,29,29,,,,,,,,,,,,,,,,,,351.36540876399084,None,None,1,351.36540876399084,None,,,,,,,,,,,,,,,,,,,,,,,,,,,,,,,,,,,,,,,,,,,,,,,,,,,,,,,,,,,,,camila_s,001,d,2019_Oct_10_1257,Experimento,3.2.3,59.98270686789826,
8,14,14,999,0.5,0:10,3,White,None,0,0,1,15:50,./completed_changuitos/montage_cqwgs_125.19_107.99.jpg,left,0,0,0,0,,,,,0,8,8,8,,,,,,,,,0,0,0,0,0,30,30,30,,,,,,,,,,,,,,,,,,351.36540876399084,None,None,1,351.36540876399084,None,,,,,,,,,,,,,,,,,,,,,,,,,,,,,,,,,,,,,,,,,,,,,,,,,,,,,,,,,,,,,camila_s,001,d,2019_Oct_10_1257,Experimento,3.2.3,59.98270686789826,
8,14,14,999,0.5,0:10,3,Green,['space'],0,0,1,15:50,./completed_changuitos/montage_cqwgs_125.19_107.99.jpg,left,0,0,0,0,,,,,0,8,8,8,,,,,,,,,0,0,0,0,0,31,31,31,,,,,,,,,,,,,,,,,,351.36540876399084,None,None,0,351.36540876399084,None,,,,,,,,,,,,,,,,,,,,,,,,,,,,,,,,,,,,,,,,,,,,,,,,,,,,,,,,,,,,,camila_s,001,d,2019_Oct_10_1257,Experimento,3.2.3,59.98270686789826,
8,14,14,999,0.5,0:10,3,Red,None,0,0,1,15:50,./completed_changuitos/montage_cqwgs_125.19_107.99.jpg,left,0,0,0,0,,,,,0,8,8,8,,,,,,,,,0,0,0,0,0,32,32,32,,,,,,,,,,,,,,,,,,351.36540876399084,None,None,1,351.36540876399084,None,,,,,,,,,,,,,,,,,,,,,,,,,,,,,,,,,,,,,,,,,,,,,,,,,,,,,,,,,,,,,camila_s,001,d,2019_Oct_10_1257,Experimento,3.2.3,59.98270686789826,
8,14,14,999,0.5,0:10,3,Blue,None,0,0,1,15:50,./completed_changuitos/montage_cqwgs_125.19_107.99.jpg,left,0,0,0,0,,,,,0,8,8,8,,,,,,,,,0,0,0,0,0,33,33,33,,,,,,,,,,,,,,,,,,351.36540876399084,None,None,1,351.36540876399084,None,,,,,,,,,,,,,,,,,,,,,,,,,,,,,,,,,,,,,,,,,,,,,,,,,,,,,,,,,,,,,camila_s,001,d,2019_Oct_10_1257,Experimento,3.2.3,59.98270686789826,
8,14,14,999,0.5,0:10,3,Green,None,0,0,1,15:50,./completed_changuitos/montage_cqwgs_125.19_107.99.jpg,left,0,0,0,0,,,,,0,8,8,8,,,,,,,,,0,0,0,0,0,34,34,34,,,,,,,,,,,,,,,,,,351.36540876399084,None,None,1,351.36540876399084,None,,,,,,,,,,,,,,,,,,,,,,,,,,,,,,,,,,,,,,,,,,,,,,,,,,,,,,,,,,,,,camila_s,001,d,2019_Oct_10_1257,Experimento,3.2.3,59.98270686789826,
8,14,14,999,0.5,0:10,3,,,0,0,1,15:50,./completed_changuitos/montage_cqwgs_125.19_107.99.jpg,left,0,0,0,0,,,,,0,8,8,8,,,,,,,,,0,0,0,0,,,,,,,,,,,,,,,,,,,,,,,,,,,,,351.39856789598707,None,left,1,1.165066724002827,351.39856789598707,None,351.39856789598707,None,,,,,,,,,,,,,,,,,,,,,,,,,,,,,,,,,,,,,,,,,,,,,,,,,,,camila_s,001,d,2019_Oct_10_1257,Experimento,3.2.3,59.98270686789826,
8,14,14,999,0.5,0:10,3,,,0,0,1,15:50,,,0,0,0,0,,,,,0,8,8,8,,,,,,,,,,,,,,,,,,,,,,,,,,,,,,,,,,,,,,,,,,,,,,,,,,,,,,,,,,,,,,,,,,,,,,,,,,,,,,,,,,,,,,,,,,,,,,,,,,,,camila_s,001,d,2019_Oct_10_1257,Experimento,3.2.3,59.98270686789826,
8,14,14,999,0.5,0:10,3,,,0,1,0,25:50,./completed_changuitos/montage_otdaq_121.0_135.89.jpg,right,0,0,0,0,,,,,0,9,9,9,,,,,0,0,0,0,,,,,,,,,,,,,,,,,,,,,,,,,,,,,,,,,,,,,,,,,,352.7043824789871,354.36405541699787,354.36405541699787,362.3781558269984,362.3781558269984,376.3900693339965,right,1,2.5325335420056945,376.3900693339965,None,376.3900693339965,None,376.3900693339965,None,,,,,,,,,,,,,,,,,,,,,,,,,,,,,,,,,,,,camila_s,001,d,2019_Oct_10_1257,Experimento,3.2.3,59.98270686789826,
8,14,14,999,0.5,0:10,3,,,0,1,0,25:50,,,0,0,0,0,,,,,0,9,9,9,,,,,,,,,,,,,,,,,,,,,,,,,,,,,,,,,,,,,,,,,,,,,,,,,,,,,,,,,,,,,,,,,,,,,,,,,,,,,,,,,,,,,,,,,,,,,,,,,,,,camila_s,001,d,2019_Oct_10_1257,Experimento,3.2.3,59.98270686789826,
8,14,14,999,0.5,0:10,3,Magenta,None,0,0,1,20:50,./completed_changuitos/montage_elnwo_236.49_203.3.jpg,left,0,0,0,0,,,,,0,10,10,10,,,,,,,,,0,0,0,0,0,0,0,0,,,,,,,,,,,,,,379.05045587199857,380.78854336499353,380.78854336499353,None,388.83183283999097,389.3355966969975,None,1,388.83183283999097,None,,,,,,,,,,,,,,,,,,,,,,,,,,,,,,,,,,,,,,,,,,,,,,,,,,,,,,,,,,,,,camila_s,001,d,2019_Oct_10_1257,Experimento,3.2.3,59.98270686789826,
8,14,14,999,0.5,0:10,3,Blue,['space'],0,0,1,20:50,./completed_changuitos/montage_elnwo_236.49_203.3.jpg,left,0,0,0,0,,,,,0,10,10,10,,,,,,,,,0,0,0,0,0,1,1,1,,,,,,,,,,,,,,,,,,390.8349978729966,391.3349114409939,None,0,390.8349978729966,390.8349978729966,,,,,,,,,,,,,,,,,,,,,,,,,,,,,,,,,,,,,,,,,,,,,,,,,,,,,,,,,,,,,camila_s,001,d,2019_Oct_10_1257,Experimento,3.2.3,59.98270686789826,
8,14,14,999,0.5,0:10,3,Cyan,None,0,0,1,20:50,./completed_changuitos/montage_elnwo_236.49_203.3.jpg,left,0,0,0,0,,,,,0,10,10,10,,,,,,,,,0,0,0,0,0,2,2,2,,,,,,,,,,,,,,,,,,392.83407752998755,393.334220736986,None,1,392.83407752998755,392.83407752998755,,,,,,,,,,,,,,,,,,,,,,,,,,,,,,,,,,,,,,,,,,,,,,,,,,,,,,,,,,,,,camila_s,001,d,2019_Oct_10_1257,Experimento,3.2.3,59.98270686789826,
8,14,14,999,0.5,0:10,3,Yellow,None,0,0,1,20:50,./completed_changuitos/montage_elnwo_236.49_203.3.jpg,left,0,0,0,0,,,,,0,10,10,10,,,,,,,,,0,0,0,0,0,3,3,3,,,,,,,,,,,,,,,,,,394.83365428599063,395.3335649139917,None,1,394.83365428599063,394.83365428599063,,,,,,,,,,,,,,,,,,,,,,,,,,,,,,,,,,,,,,,,,,,,,,,,,,,,,,,,,,,,,camila_s,001,d,2019_Oct_10_1257,Experimento,3.2.3,59.98270686789826,
8,14,14,999,0.5,0:10,3,Cyan,None,0,0,1,20:50,./completed_changuitos/montage_elnwo_236.49_203.3.jpg,left,0,0,0,0,,,,,0,10,10,10,,,,,,,,,0,0,0,0,0,4,4,4,,,,,,,,,,,,,,,,,,396.83265794099134,397.33247895799286,['return'],0,396.83265794099134,396.83265794099134,[0.3835247940005502],,,,,,,,,,,,,,,,,,,,,,,,,,,,,,,,,,,,,,,,,,,,,,,,,,,,,,,,,,,,camila_s,001,d,2019_Oct_10_1257,Experimento,3.2.3,59.98270686789826,
8,14,14,999,0.5,0:10,3,Blue,None,0,0,1,20:50,./completed_changuitos/montage_elnwo_236.49_203.3.jpg,left,0,0,0,0,,,,,0,10,10,10,,,,,,,,,0,0,0,0,0,5,5,5,,,,,,,,,,,,,,,,,,398.8319865109952,399.33223136099696,None,1,398.8319865109952,398.8319865109952,,,,,,,,,,,,,,,,,,,,,,,,,,,,,,,,,,,,,,,,,,,,,,,,,,,,,,,,,,,,,camila_s,001,d,2019_Oct_10_1257,Experimento,3.2.3,59.98270686789826,
8,14,14,999,0.5,0:10,3,Cyan,['space'],0,0,1,20:50,./completed_changuitos/montage_elnwo_236.49_203.3.jpg,left,0,0,0,0,,,,,0,10,10,10,,,,,,,,,0,0,0,0,0,6,6,6,,,,,,,,,,,,,,,,,,400.83163825598604,401.3311140059959,['return'],0,400.83163825598604,400.83163825598604,[0.8670534319971921],,,,,,,,,,,,,,,,,,,,,,,,,,,,,,,,,,,,,,,,,,,,,,,,,,,,,,,,,,,,camila_s,001,d,2019_Oct_10_1257,Experimento,3.2.3,59.98270686789826,
8,14,14,999,0.5,0:10,3,Magenta,None,0,0,1,20:50,./completed_changuitos/montage_elnwo_236.49_203.3.jpg,left,0,0,0,0,,,,,0,10,10,10,,,,,,,,,0,0,0,0,0,7,7,7,,,,,,,,,,,,,,,,,,402.8143947014949,None,None,1,402.8143947014949,None,,,,,,,,,,,,,,,,,,,,,,,,,,,,,,,,,,,,,,,,,,,,,,,,,,,,,,,,,,,,,camila_s,001,d,2019_Oct_10_1257,Experimento,3.2.3,59.98270686789826,
8,14,14,999,0.5,0:10,3,Red,None,0,0,1,20:50,./completed_changuitos/montage_elnwo_236.49_203.3.jpg,left,0,0,0,0,,,,,0,10,10,10,,,,,,,,,0,0,0,0,0,8,8,8,,,,,,,,,,,,,,,,,,402.8143947014949,None,None,1,402.8143947014949,None,,,,,,,,,,,,,,,,,,,,,,,,,,,,,,,,,,,,,,,,,,,,,,,,,,,,,,,,,,,,,camila_s,001,d,2019_Oct_10_1257,Experimento,3.2.3,59.98270686789826,
8,14,14,999,0.5,0:10,3,Magenta,['space'],0,0,1,20:50,./completed_changuitos/montage_elnwo_236.49_203.3.jpg,left,0,0,0,0,,,,,0,10,10,10,,,,,,,,,0,0,0,0,0,9,9,9,,,,,,,,,,,,,,,,,,402.8143947014949,None,None,0,402.8143947014949,None,,,,,,,,,,,,,,,,,,,,,,,,,,,,,,,,,,,,,,,,,,,,,,,,,,,,,,,,,,,,,camila_s,001,d,2019_Oct_10_1257,Experimento,3.2.3,59.98270686789826,
8,14,14,999,0.5,0:10,3,Green,None,0,0,1,20:50,./completed_changuitos/montage_elnwo_236.49_203.3.jpg,left,0,0,0,0,,,,,0,10,10,10,,,,,,,,,0,0,0,0,0,10,10,10,,,,,,,,,,,,,,,,,,402.831093644994,None,None,1,402.831093644994,None,,,,,,,,,,,,,,,,,,,,,,,,,,,,,,,,,,,,,,,,,,,,,,,,,,,,,,,,,,,,,camila_s,001,d,2019_Oct_10_1257,Experimento,3.2.3,59.98270686789826,
8,14,14,999,0.5,0:10,3,Yellow,['space'],0,0,1,20:50,./completed_changuitos/montage_elnwo_236.49_203.3.jpg,left,0,0,0,0,,,,,0,10,10,10,,,,,,,,,0,0,0,0,0,11,11,11,,,,,,,,,,,,,,,,,,402.831093644994,None,None,0,402.831093644994,None,,,,,,,,,,,,,,,,,,,,,,,,,,,,,,,,,,,,,,,,,,,,,,,,,,,,,,,,,,,,,camila_s,001,d,2019_Oct_10_1257,Experimento,3.2.3,59.98270686789826,
8,14,14,999,0.5,0:10,3,Blue,None,0,0,1,20:50,./completed_changuitos/montage_elnwo_236.49_203.3.jpg,left,0,0,0,0,,,,,0,10,10,10,,,,,,,,,0,0,0,0,0,12,12,12,,,,,,,,,,,,,,,,,,402.831093644994,None,None,1,402.831093644994,None,,,,,,,,,,,,,,,,,,,,,,,,,,,,,,,,,,,,,,,,,,,,,,,,,,,,,,,,,,,,,camila_s,001,d,2019_Oct_10_1257,Experimento,3.2.3,59.98270686789826,
8,14,14,999,0.5,0:10,3,Cyan,None,0,0,1,20:50,./completed_changuitos/montage_elnwo_236.49_203.3.jpg,left,0,0,0,0,,,,,0,10,10,10,,,,,,,,,0,0,0,0,0,13,13,13,,,,,,,,,,,,,,,,,,402.831093644994,None,None,1,402.831093644994,None,,,,,,,,,,,,,,,,,,,,,,,,,,,,,,,,,,,,,,,,,,,,,,,,,,,,,,,,,,,,,camila_s,001,d,2019_Oct_10_1257,Experimento,3.2.3,59.98270686789826,
8,14,14,999,0.5,0:10,3,Blue,['space'],0,0,1,20:50,./completed_changuitos/montage_elnwo_236.49_203.3.jpg,left,0,0,0,0,,,,,0,10,10,10,,,,,,,,,0,0,0,0,0,14,14,14,,,,,,,,,,,,,,,,,,402.831093644994,None,None,0,402.831093644994,None,,,,,,,,,,,,,,,,,,,,,,,,,,,,,,,,,,,,,,,,,,,,,,,,,,,,,,,,,,,,,camila_s,001,d,2019_Oct_10_1257,Experimento,3.2.3,59.98270686789826,
8,14,14,999,0.5,0:10,3,Yellow,None,0,0,1,20:50,./completed_changuitos/montage_elnwo_236.49_203.3.jpg,left,0,0,0,0,,,,,0,10,10,10,,,,,,,,,0,0,0,0,0,15,15,15,,,,,,,,,,,,,,,,,,402.831093644994,None,None,1,402.831093644994,None,,,,,,,,,,,,,,,,,,,,,,,,,,,,,,,,,,,,,,,,,,,,,,,,,,,,,,,,,,,,,camila_s,001,d,2019_Oct_10_1257,Experimento,3.2.3,59.98270686789826,
8,14,14,999,0.5,0:10,3,Cyan,None,0,0,1,20:50,./completed_changuitos/montage_elnwo_236.49_203.3.jpg,left,0,0,0,0,,,,,0,10,10,10,,,,,,,,,0,0,0,0,0,16,16,16,,,,,,,,,,,,,,,,,,402.831093644994,None,None,1,402.831093644994,None,,,,,,,,,,,,,,,,,,,,,,,,,,,,,,,,,,,,,,,,,,,,,,,,,,,,,,,,,,,,,camila_s,001,d,2019_Oct_10_1257,Experimento,3.2.3,59.98270686789826,
8,14,14,999,0.5,0:10,3,Yellow,['space'],0,0,1,20:50,./completed_changuitos/montage_elnwo_236.49_203.3.jpg,left,0,0,0,0,,,,,0,10,10,10,,,,,,,,,0,0,0,0,0,17,17,17,,,,,,,,,,,,,,,,,,402.84779258849306,None,None,0,402.84779258849306,None,,,,,,,,,,,,,,,,,,,,,,,,,,,,,,,,,,,,,,,,,,,,,,,,,,,,,,,,,,,,,camila_s,001,d,2019_Oct_10_1257,Experimento,3.2.3,59.98270686789826,
8,14,14,999,0.5,0:10,3,Magenta,None,0,0,1,20:50,./completed_changuitos/montage_elnwo_236.49_203.3.jpg,left,0,0,0,0,,,,,0,10,10,10,,,,,,,,,0,0,0,0,0,18,18,18,,,,,,,,,,,,,,,,,,402.84779258849306,None,None,1,402.84779258849306,None,,,,,,,,,,,,,,,,,,,,,,,,,,,,,,,,,,,,,,,,,,,,,,,,,,,,,,,,,,,,,camila_s,001,d,2019_Oct_10_1257,Experimento,3.2.3,59.98270686789826,
8,14,14,999,0.5,0:10,3,Red,None,0,0,1,20:50,./completed_changuitos/montage_elnwo_236.49_203.3.jpg,left,0,0,0,0,,,,,0,10,10,10,,,,,,,,,0,0,0,0,0,19,19,19,,,,,,,,,,,,,,,,,,402.84779258849306,None,None,1,402.84779258849306,None,,,,,,,,,,,,,,,,,,,,,,,,,,,,,,,,,,,,,,,,,,,,,,,,,,,,,,,,,,,,,camila_s,001,d,2019_Oct_10_1257,Experimento,3.2.3,59.98270686789826,
8,14,14,999,0.5,0:10,3,Magenta,['space'],0,0,1,20:50,./completed_changuitos/montage_elnwo_236.49_203.3.jpg,left,0,0,0,0,,,,,0,10,10,10,,,,,,,,,0,0,0,0,0,20,20,20,,,,,,,,,,,,,,,,,,402.84779258849306,None,None,0,402.84779258849306,None,,,,,,,,,,,,,,,,,,,,,,,,,,,,,,,,,,,,,,,,,,,,,,,,,,,,,,,,,,,,,camila_s,001,d,2019_Oct_10_1257,Experimento,3.2.3,59.98270686789826,
8,14,14,999,0.5,0:10,3,Red,['space'],0,0,1,20:50,./completed_changuitos/montage_elnwo_236.49_203.3.jpg,left,0,0,0,0,,,,,0,10,10,10,,,,,,,,,0,0,0,0,0,21,21,21,,,,,,,,,,,,,,,,,,402.84779258849306,None,None,0,402.84779258849306,None,,,,,,,,,,,,,,,,,,,,,,,,,,,,,,,,,,,,,,,,,,,,,,,,,,,,,,,,,,,,,camila_s,001,d,2019_Oct_10_1257,Experimento,3.2.3,59.98270686789826,
8,14,14,999,0.5,0:10,3,Yellow,None,0,0,1,20:50,./completed_changuitos/montage_elnwo_236.49_203.3.jpg,left,0,0,0,0,,,,,0,10,10,10,,,,,,,,,0,0,0,0,0,22,22,22,,,,,,,,,,,,,,,,,,402.84779258849306,None,None,1,402.84779258849306,None,,,,,,,,,,,,,,,,,,,,,,,,,,,,,,,,,,,,,,,,,,,,,,,,,,,,,,,,,,,,,camila_s,001,d,2019_Oct_10_1257,Experimento,3.2.3,59.98270686789826,
8,14,14,999,0.5,0:10,3,Cyan,None,0,0,1,20:50,./completed_changuitos/montage_elnwo_236.49_203.3.jpg,left,0,0,0,0,,,,,0,10,10,10,,,,,,,,,0,0,0,0,0,23,23,23,,,,,,,,,,,,,,,,,,402.84779258849306,None,None,1,402.84779258849306,None,,,,,,,,,,,,,,,,,,,,,,,,,,,,,,,,,,,,,,,,,,,,,,,,,,,,,,,,,,,,,camila_s,001,d,2019_Oct_10_1257,Experimento,3.2.3,59.98270686789826,
8,14,14,999,0.5,0:10,3,Green,None,0,0,1,20:50,./completed_changuitos/montage_elnwo_236.49_203.3.jpg,left,0,0,0,0,,,,,0,10,10,10,,,,,,,,,0,0,0,0,0,24,24,24,,,,,,,,,,,,,,,,,,402.84779258849306,None,None,1,402.84779258849306,None,,,,,,,,,,,,,,,,,,,,,,,,,,,,,,,,,,,,,,,,,,,,,,,,,,,,,,,,,,,,,camila_s,001,d,2019_Oct_10_1257,Experimento,3.2.3,59.98270686789826,
8,14,14,999,0.5,0:10,3,White,None,0,0,1,20:50,./completed_changuitos/montage_elnwo_236.49_203.3.jpg,left,0,0,0,0,,,,,0,10,10,10,,,,,,,,,0,0,0,0,0,25,25,25,,,,,,,,,,,,,,,,,,402.84779258849306,None,None,1,402.84779258849306,None,,,,,,,,,,,,,,,,,,,,,,,,,,,,,,,,,,,,,,,,,,,,,,,,,,,,,,,,,,,,,camila_s,001,d,2019_Oct_10_1257,Experimento,3.2.3,59.98270686789826,
8,14,14,999,0.5,0:10,3,Green,['space'],0,0,1,20:50,./completed_changuitos/montage_elnwo_236.49_203.3.jpg,left,0,0,0,0,,,,,0,10,10,10,,,,,,,,,0,0,0,0,0,26,26,26,,,,,,,,,,,,,,,,,,402.84779258849306,None,None,0,402.84779258849306,None,,,,,,,,,,,,,,,,,,,,,,,,,,,,,,,,,,,,,,,,,,,,,,,,,,,,,,,,,,,,,camila_s,001,d,2019_Oct_10_1257,Experimento,3.2.3,59.98270686789826,
8,14,14,999,0.5,0:10,3,Red,None,0,0,1,20:50,./completed_changuitos/montage_elnwo_236.49_203.3.jpg,left,0,0,0,0,,,,,0,10,10,10,,,,,,,,,0,0,0,0,0,27,27,27,,,,,,,,,,,,,,,,,,402.84779258849306,None,None,1,402.84779258849306,None,,,,,,,,,,,,,,,,,,,,,,,,,,,,,,,,,,,,,,,,,,,,,,,,,,,,,,,,,,,,,camila_s,001,d,2019_Oct_10_1257,Experimento,3.2.3,59.98270686789826,
8,14,14,999,0.5,0:10,3,Blue,None,0,0,1,20:50,./completed_changuitos/montage_elnwo_236.49_203.3.jpg,left,0,0,0,0,,,,,0,10,10,10,,,,,,,,,0,0,0,0,0,28,28,28,,,,,,,,,,,,,,,,,,402.84779258849306,None,None,1,402.84779258849306,None,,,,,,,,,,,,,,,,,,,,,,,,,,,,,,,,,,,,,,,,,,,,,,,,,,,,,,,,,,,,,camila_s,001,d,2019_Oct_10_1257,Experimento,3.2.3,59.98270686789826,
8,14,14,999,0.5,0:10,3,Green,None,0,0,1,20:50,./completed_changuitos/montage_elnwo_236.49_203.3.jpg,left,0,0,0,0,,,,,0,10,10,10,,,,,,,,,0,0,0,0,0,29,29,29,,,,,,,,,,,,,,,,,,402.84779258849306,None,None,1,402.84779258849306,None,,,,,,,,,,,,,,,,,,,,,,,,,,,,,,,,,,,,,,,,,,,,,,,,,,,,,,,,,,,,,camila_s,001,d,2019_Oct_10_1257,Experimento,3.2.3,59.98270686789826,
8,14,14,999,0.5,0:10,3,,,0,0,1,20:50,./completed_changuitos/montage_elnwo_236.49_203.3.jpg,left,0,0,0,0,,,,,0,10,10,10,,,,,,,,,0,0,0,0,,,,,,,,,,,,,,,,,,,,,,,,,,,,,402.891210597998,None,left,1,1.1894456469890429,402.891210597998,None,402.891210597998,None,,,,,,,,,,,,,,,,,,,,,,,,,,,,,,,,,,,,,,,,,,,,,,,,,,,camila_s,001,d,2019_Oct_10_1257,Experimento,3.2.3,59.98270686789826,
8,14,14,999,0.5,0:10,3,,,0,0,1,20:50,,,0,0,0,0,,,,,0,10,10,10,,,,,,,,,,,,,,,,,,,,,,,,,,,,,,,,,,,,,,,,,,,,,,,,,,,,,,,,,,,,,,,,,,,,,,,,,,,,,,,,,,,,,,,,,,,,,,,,,,,,camila_s,001,d,2019_Oct_10_1257,Experimento,3.2.3,59.98270686789826,
8,14,14,999,0.5,0:10,3,Red,None,0,0,1,28:50,./completed_changuitos/montage_pssky_35.5_40.55.jpg,right,0,0,0,0,,,,,0,11,11,11,,,,,,,,,0,0,0,0,0,0,0,0,,,,,,,,,,,,,,404.1981060609978,406.1298862149997,406.1298862149997,None,414.1723203249858,414.6769928799913,None,1,414.1723203249858,None,,,,,,,,,,,,,,,,,,,,,,,,,,,,,,,,,,,,,,,,,,,,,,,,,,,,,,,,,,,,,camila_s,001,d,2019_Oct_10_1257,Experimento,3.2.3,59.98270686789826,
8,14,14,999,0.5,0:10,3,Magenta,['space'],0,0,1,28:50,./completed_changuitos/montage_pssky_35.5_40.55.jpg,right,0,0,0,0,,,,,0,11,11,11,,,,,,,,,0,0,0,0,0,1,1,1,,,,,,,,,,,,,,,,,,416.17630486399867,416.67625964099716,None,0,416.17630486399867,416.17630486399867,,,,,,,,,,,,,,,,,,,,,,,,,,,,,,,,,,,,,,,,,,,,,,,,,,,,,,,,,,,,,camila_s,001,d,2019_Oct_10_1257,Experimento,3.2.3,59.98270686789826,
8,14,14,999,0.5,0:10,3,Green,None,0,0,1,28:50,./completed_changuitos/montage_pssky_35.5_40.55.jpg,right,0,0,0,0,,,,,0,11,11,11,,,,,,,,,0,0,0,0,0,2,2,2,,,,,,,,,,,,,,,,,,418.17573980099405,418.67557360698993,None,1,418.17573980099405,418.17573980099405,,,,,,,,,,,,,,,,,,,,,,,,,,,,,,,,,,,,,,,,,,,,,,,,,,,,,,,,,,,,,camila_s,001,d,2019_Oct_10_1257,Experimento,3.2.3,59.98270686789826,
8,14,14,999,0.5,0:10,3,Yellow,['space'],0,0,1,28:50,./completed_changuitos/montage_pssky_35.5_40.55.jpg,right,0,0,0,0,,,,,0,11,11,11,,,,,,,,,0,0,0,0,0,3,3,3,,,,,,,,,,,,,,,,,,420.17480620798597,420.6748963089922,None,0,420.17480620798597,420.17480620798597,,,,,,,,,,,,,,,,,,,,,,,,,,,,,,,,,,,,,,,,,,,,,,,,,,,,,,,,,,,,,camila_s,001,d,2019_Oct_10_1257,Experimento,3.2.3,59.98270686789826,
8,14,14,999,0.5,0:10,3,Blue,None,0,0,1,28:50,./completed_changuitos/montage_pssky_35.5_40.55.jpg,right,0,0,0,0,,,,,0,11,11,11,,,,,,,,,0,0,0,0,0,4,4,4,,,,,,,,,,,,,,,,,,422.1743275919871,422.67420379999385,None,1,422.1743275919871,422.1743275919871,,,,,,,,,,,,,,,,,,,,,,,,,,,,,,,,,,,,,,,,,,,,,,,,,,,,,,,,,,,,,camila_s,001,d,2019_Oct_10_1257,Experimento,3.2.3,59.98270686789826,
8,14,14,999,0.5,0:10,3,Cyan,None,0,0,1,28:50,./completed_changuitos/montage_pssky_35.5_40.55.jpg,right,0,0,0,0,,,,,0,11,11,11,,,,,,,,,0,0,0,0,0,5,5,5,,,,,,,,,,,,,,,,,,424.1736215159908,424.67349715899036,None,1,424.1736215159908,424.1736215159908,,,,,,,,,,,,,,,,,,,,,,,,,,,,,,,,,,,,,,,,,,,,,,,,,,,,,,,,,,,,,camila_s,001,d,2019_Oct_10_1257,Experimento,3.2.3,59.98270686789826,
8,14,14,999,0.5,0:10,3,Blue,['space'],0,0,1,28:50,./completed_changuitos/montage_pssky_35.5_40.55.jpg,right,0,0,0,0,,,,,0,11,11,11,,,,,,,,,0,0,0,0,0,6,6,6,,,,,,,,,,,,,,,,,,426.17293135599175,426.672842259999,['return'],0,426.17293135599175,426.17293135599175,[0.7004471920081414],,,,,,,,,,,,,,,,,,,,,,,,,,,,,,,,,,,,,,,,,,,,,,,,,,,,,,,,,,,,camila_s,001,d,2019_Oct_10_1257,Experimento,3.2.3,59.98270686789826,
8,14,14,999,0.5,0:10,3,Yellow,None,0,0,1,28:50,./completed_changuitos/montage_pssky_35.5_40.55.jpg,right,0,0,0,0,,,,,0,11,11,11,,,,,,,,,0,0,0,0,0,7,7,7,,,,,,,,,,,,,,,,,,428.15571416849417,None,None,1,428.15571416849417,None,,,,,,,,,,,,,,,,,,,,,,,,,,,,,,,,,,,,,,,,,,,,,,,,,,,,,,,,,,,,,camila_s,001,d,2019_Oct_10_1257,Experimento,3.2.3,59.98270686789826,
8,14,14,999,0.5,0:10,3,Cyan,None,0,0,1,28:50,./completed_changuitos/montage_pssky_35.5_40.55.jpg,right,0,0,0,0,,,,,0,11,11,11,,,,,,,,,0,0,0,0,0,8,8,8,,,,,,,,,,,,,,,,,,428.15571416849417,None,None,1,428.15571416849417,None,,,,,,,,,,,,,,,,,,,,,,,,,,,,,,,,,,,,,,,,,,,,,,,,,,,,,,,,,,,,,camila_s,001,d,2019_Oct_10_1257,Experimento,3.2.3,59.98270686789826,
8,14,14,999,0.5,0:10,3,Yellow,['space'],0,0,1,28:50,./completed_changuitos/montage_pssky_35.5_40.55.jpg,right,0,0,0,0,,,,,0,11,11,11,,,,,,,,,0,0,0,0,0,9,9,9,,,,,,,,,,,,,,,,,,428.15571416849417,None,None,0,428.15571416849417,None,,,,,,,,,,,,,,,,,,,,,,,,,,,,,,,,,,,,,,,,,,,,,,,,,,,,,,,,,,,,,camila_s,001,d,2019_Oct_10_1257,Experimento,3.2.3,59.98270686789826,
8,14,14,999,0.5,0:10,3,Magenta,None,0,0,1,28:50,./completed_changuitos/montage_pssky_35.5_40.55.jpg,right,0,0,0,0,,,,,0,11,11,11,,,,,,,,,0,0,0,0,0,10,10,10,,,,,,,,,,,,,,,,,,428.15571416849417,None,None,1,428.15571416849417,None,,,,,,,,,,,,,,,,,,,,,,,,,,,,,,,,,,,,,,,,,,,,,,,,,,,,,,,,,,,,,camila_s,001,d,2019_Oct_10_1257,Experimento,3.2.3,59.98270686789826,
8,14,14,999,0.5,0:10,3,Red,None,0,0,1,28:50,./completed_changuitos/montage_pssky_35.5_40.55.jpg,right,0,0,0,0,,,,,0,11,11,11,,,,,,,,,0,0,0,0,0,11,11,11,,,,,,,,,,,,,,,,,,428.17241311199325,None,None,1,428.17241311199325,None,,,,,,,,,,,,,,,,,,,,,,,,,,,,,,,,,,,,,,,,,,,,,,,,,,,,,,,,,,,,,camila_s,001,d,2019_Oct_10_1257,Experimento,3.2.3,59.98270686789826,
8,14,14,999,0.5,0:10,3,Magenta,['space'],0,0,1,28:50,./completed_changuitos/montage_pssky_35.5_40.55.jpg,right,0,0,0,0,,,,,0,11,11,11,,,,,,,,,0,0,0,0,0,12,12,12,,,,,,,,,,,,,,,,,,428.17241311199325,None,None,0,428.17241311199325,None,,,,,,,,,,,,,,,,,,,,,,,,,,,,,,,,,,,,,,,,,,,,,,,,,,,,,,,,,,,,,camila_s,001,d,2019_Oct_10_1257,Experimento,3.2.3,59.98270686789826,
8,14,14,999,0.5,0:10,3,Red,['space'],0,0,1,28:50,./completed_changuitos/montage_pssky_35.5_40.55.jpg,right,0,0,0,0,,,,,0,11,11,11,,,,,,,,,0,0,0,0,0,13,13,13,,,,,,,,,,,,,,,,,,428.17241311199325,None,None,0,428.17241311199325,None,,,,,,,,,,,,,,,,,,,,,,,,,,,,,,,,,,,,,,,,,,,,,,,,,,,,,,,,,,,,,camila_s,001,d,2019_Oct_10_1257,Experimento,3.2.3,59.98270686789826,
8,14,14,999,0.5,0:10,3,Yellow,None,0,0,1,28:50,./completed_changuitos/montage_pssky_35.5_40.55.jpg,right,0,0,0,0,,,,,0,11,11,11,,,,,,,,,0,0,0,0,0,14,14,14,,,,,,,,,,,,,,,,,,428.17241311199325,None,None,1,428.17241311199325,None,,,,,,,,,,,,,,,,,,,,,,,,,,,,,,,,,,,,,,,,,,,,,,,,,,,,,,,,,,,,,camila_s,001,d,2019_Oct_10_1257,Experimento,3.2.3,59.98270686789826,
8,14,14,999,0.5,0:10,3,Cyan,None,0,0,1,28:50,./completed_changuitos/montage_pssky_35.5_40.55.jpg,right,0,0,0,0,,,,,0,11,11,11,,,,,,,,,0,0,0,0,0,15,15,15,,,,,,,,,,,,,,,,,,428.17241311199325,None,None,1,428.17241311199325,None,,,,,,,,,,,,,,,,,,,,,,,,,,,,,,,,,,,,,,,,,,,,,,,,,,,,,,,,,,,,,camila_s,001,d,2019_Oct_10_1257,Experimento,3.2.3,59.98270686789826,
8,14,14,999,0.5,0:10,3,Green,None,0,0,1,28:50,./completed_changuitos/montage_pssky_35.5_40.55.jpg,right,0,0,0,0,,,,,0,11,11,11,,,,,,,,,0,0,0,0,0,16,16,16,,,,,,,,,,,,,,,,,,428.17241311199325,None,None,1,428.17241311199325,None,,,,,,,,,,,,,,,,,,,,,,,,,,,,,,,,,,,,,,,,,,,,,,,,,,,,,,,,,,,,,camila_s,001,d,2019_Oct_10_1257,Experimento,3.2.3,59.98270686789826,
8,14,14,999,0.5,0:10,3,White,None,0,0,1,28:50,./completed_changuitos/montage_pssky_35.5_40.55.jpg,right,0,0,0,0,,,,,0,11,11,11,,,,,,,,,0,0,0,0,0,17,17,17,,,,,,,,,,,,,,,,,,428.18911205549233,None,None,1,428.18911205549233,None,,,,,,,,,,,,,,,,,,,,,,,,,,,,,,,,,,,,,,,,,,,,,,,,,,,,,,,,,,,,,camila_s,001,d,2019_Oct_10_1257,Experimento,3.2.3,59.98270686789826,
8,14,14,999,0.5,0:10,3,Green,['space'],0,0,1,28:50,./completed_changuitos/montage_pssky_35.5_40.55.jpg,right,0,0,0,0,,,,,0,11,11,11,,,,,,,,,0,0,0,0,0,18,18,18,,,,,,,,,,,,,,,,,,428.18911205549233,None,None,0,428.18911205549233,None,,,,,,,,,,,,,,,,,,,,,,,,,,,,,,,,,,,,,,,,,,,,,,,,,,,,,,,,,,,,,camila_s,001,d,2019_Oct_10_1257,Experimento,3.2.3,59.98270686789826,
8,14,14,999,0.5,0:10,3,Red,None,0,0,1,28:50,./completed_changuitos/montage_pssky_35.5_40.55.jpg,right,0,0,0,0,,,,,0,11,11,11,,,,,,,,,0,0,0,0,0,19,19,19,,,,,,,,,,,,,,,,,,428.18911205549233,None,None,1,428.18911205549233,None,,,,,,,,,,,,,,,,,,,,,,,,,,,,,,,,,,,,,,,,,,,,,,,,,,,,,,,,,,,,,camila_s,001,d,2019_Oct_10_1257,Experimento,3.2.3,59.98270686789826,
8,14,14,999,0.5,0:10,3,Blue,None,0,0,1,28:50,./completed_changuitos/montage_pssky_35.5_40.55.jpg,right,0,0,0,0,,,,,0,11,11,11,,,,,,,,,0,0,0,0,0,20,20,20,,,,,,,,,,,,,,,,,,428.18911205549233,None,None,1,428.18911205549233,None,,,,,,,,,,,,,,,,,,,,,,,,,,,,,,,,,,,,,,,,,,,,,,,,,,,,,,,,,,,,,camila_s,001,d,2019_Oct_10_1257,Experimento,3.2.3,59.98270686789826,
8,14,14,999,0.5,0:10,3,Green,None,0,0,1,28:50,./completed_changuitos/montage_pssky_35.5_40.55.jpg,right,0,0,0,0,,,,,0,11,11,11,,,,,,,,,0,0,0,0,0,21,21,21,,,,,,,,,,,,,,,,,,428.18911205549233,None,None,1,428.18911205549233,None,,,,,,,,,,,,,,,,,,,,,,,,,,,,,,,,,,,,,,,,,,,,,,,,,,,,,,,,,,,,,camila_s,001,d,2019_Oct_10_1257,Experimento,3.2.3,59.98270686789826,
8,14,14,999,0.5,0:10,3,,,0,0,1,28:50,./completed_changuitos/montage_pssky_35.5_40.55.jpg,right,0,0,0,0,,,,,0,11,11,11,,,,,,,,,0,0,0,0,,,,,,,,,,,,,,,,,,,,,,,,,,,,,428.22397370499675,None,left,0,1.5309745400008978,428.22397370499675,None,428.22397370499675,None,,,,,,,,,,,,,,,,,,,,,,,,,,,,,,,,,,,,,,,,,,,,,,,,,,,camila_s,001,d,2019_Oct_10_1257,Experimento,3.2.3,59.98270686789826,
8,14,14,999,0.5,0:10,3,,,0,0,1,28:50,,,0,0,0,0,,,,,0,11,11,11,,,,,,,,,,,,,,,,,,,,,,,,,,,,,,,,,,,,,,,,,,,,,,,,,,,,,,,,,,,,,,,,,,,,,,,,,,,,,,,,,,,,,,,,,,,,,,,,,,,,camila_s,001,d,2019_Oct_10_1257,Experimento,3.2.3,59.98270686789826,
8,14,14,999,0.5,0:10,3,,,1,0,0,30:50,./completed_changuitos/montage_xwppc_79.19_92.9.jpg,right,0,0,0,0,,,,,0,12,12,12,0,0,0,0,,,,,,,,,,,,,,,,,,,,,,,,,,,,,,,,,,,,,,,,,,,,,,,,,,,,,,,,,,,,,430.3715895359928,431.75447691099544,431.75447691099544,439.76797437199275,right,1,0.8006925649970071,439.76797437199275,None,439.76797437199275,None,439.76797437199275,None,,,,,,,,,,,,,,,,,,,,,,,camila_s,001,d,2019_Oct_10_1257,Experimento,3.2.3,59.98270686789826,
8,14,14,999,0.5,0:10,3,,,1,0,0,30:50,,,0,0,0,0,,,,,0,12,12,12,,,,,,,,,,,,,,,,,,,,,,,,,,,,,,,,,,,,,,,,,,,,,,,,,,,,,,,,,,,,,,,,,,,,,,,,,,,,,,,,,,,,,,,,,,,,,,,,,,,,camila_s,001,d,2019_Oct_10_1257,Experimento,3.2.3,59.98270686789826,
8,14,14,999,0.5,0:10,3,,,1,0,0,32:50,./completed_changuitos/montage_kzmku_200.09_177.65.jpg,left,0,0,0,0,,,,,0,13,13,13,0,0,0,0,,,,,,,,,,,,,,,,,,,,,,,,,,,,,,,,,,,,,,,,,,,,,,,,,,,,,,,,,,,,,441.20122082899616,442.5340812409995,442.5340812409995,450.5479736549896,left,1,3.7174503699934576,450.5479736549896,None,450.5479736549896,None,450.5479736549896,453.56322844699025,,,,,,,,,,,,,,,,,,,,,,,camila_s,001,d,2019_Oct_10_1257,Experimento,3.2.3,59.98270686789826,
8,14,14,999,0.5,0:10,3,,,1,0,0,32:50,,,0,0,0,0,,,,,0,13,13,13,,,,,,,,,,,,,,,,,,,,,,,,,,,,,,,,,,,,,,,,,,,,,,,,,,,,,,,,,,,,,,,,,,,,,,,,,,,,,,,,,,,,,,,,,,,,,,,,,,,,camila_s,001,d,2019_Oct_10_1257,Experimento,3.2.3,59.98270686789826,
8,14,14,999,0.5,0:10,3,,,1,0,0,34:50,./completed_changuitos/montage_nznpz_345.6_294.25.jpg,left,0,0,0,0,,,,,0,14,14,14,0,0,0,0,,,,,,,,,,,,,,,,,,,,,,,,,,,,,,,,,,,,,,,,,,,,,,,,,,,,,,,,,,,,,454.8964288319985,456.52897939799004,456.52897939799004,464.54327169999306,left,1,0.916773065997404,464.54327169999306,None,464.54327169999306,None,464.54327169999306,None,,,,,,,,,,,,,,,,,,,,,,,camila_s,001,d,2019_Oct_10_1257,Experimento,3.2.3,59.98270686789826,
8,14,14,999,0.5,0:10,3,,,1,0,0,34:50,,,0,0,0,0,,,,,0,14,14,14,,,,,,,,,,,,,,,,,,,,,,,,,,,,,,,,,,,,,,,,,,,,,,,,,,,,,,,,,,,,,,,,,,,,,,,,,,,,,,,,,,,,,,,,,,,,,,,,,,,,camila_s,001,d,2019_Oct_10_1257,Experimento,3.2.3,59.98270686789826,
8,14,14,999,0.5,0:10,3,,,1,0,0,30:50,./completed_changuitos/montage_dwxbd_316.75_367.55.jpg,right,0,0,0,0,,,,,0,15,15,15,0,0,0,0,,,,,,,,,,,,,,,,,,,,,,,,,,,,,,,,,,,,,,,,,,,,,,,,,,,,,,,,,,,,,466.09266906899575,467.85876873300003,467.85876873300003,475.87270689799334,right,1,0.8676918790006312,475.87270689799334,None,475.87270689799334,None,475.87270689799334,None,,,,,,,,,,,,,,,,,,,,,,,camila_s,001,d,2019_Oct_10_1257,Experimento,3.2.3,59.98270686789826,
8,14,14,999,0.5,0:10,3,,,1,0,0,30:50,,,0,0,0,0,,,,,0,15,15,15,,,,,,,,,,,,,,,,,,,,,,,,,,,,,,,,,,,,,,,,,,,,,,,,,,,,,,,,,,,,,,,,,,,,,,,,,,,,,,,,,,,,,,,,,,,,,,,,,,,,camila_s,001,d,2019_Oct_10_1257,Experimento,3.2.3,59.98270686789826,
8,14,14,999,0.5,0:10,3,,,1,0,0,32:50,./completed_changuitos/montage_tgzqm_173.4_201.05.jpg,right,0,0,0,0,,,,,0,16,16,16,0,0,0,0,,,,,,,,,,,,,,,,,,,,,,,,,,,,,,,,,,,,,,,,,,,,,,,,,,,,,,,,,,,,,477.3888678349904,479.12158081099915,479.12158081099915,487.13513579498976,left,0,0.7006855379877379,487.13513579498976,None,487.13513579498976,None,487.13513579498976,None,,,,,,,,,,,,,,,,,,,,,,,camila_s,001,d,2019_Oct_10_1257,Experimento,3.2.3,59.98270686789826,
8,14,14,999,0.5,0:10,3,,,1,0,0,32:50,,,0,0,0,0,,,,,0,16,16,16,,,,,,,,,,,,,,,,,,,,,,,,,,,,,,,,,,,,,,,,,,,,,,,,,,,,,,,,,,,,,,,,,,,,,,,,,,,,,,,,,,,,,,,,,,,,,,,,,,,,camila_s,001,d,2019_Oct_10_1257,Experimento,3.2.3,59.98270686789826,
8,14,14,999,0.5,0:10,3,,,1,0,0,34:50,./completed_changuitos/montage_rqola_402.85_469.9.jpg,right,0,0,0,0,,,,,0,17,17,17,0,0,0,0,,,,,,,,,,,,,,,,,,,,,,,,,,,,,,,,,,,,,,,,,,,,,,,,,,,,,,,,,,,,,488.48756726698775,490.1341176459973,490.1341176459973,498.1483764329896,right,1,1.4168127869925229,498.1483764329896,None,498.1483764329896,None,498.1483764329896,None,,,,,,,,,,,,,,,,,,,,,,,camila_s,001,d,2019_Oct_10_1257,Experimento,3.2.3,59.98270686789826,
8,14,14,999,0.5,0:10,3,,,1,0,0,34:50,,,0,0,0,0,,,,,0,17,17,17,,,,,,,,,,,,,,,,,,,,,,,,,,,,,,,,,,,,,,,,,,,,,,,,,,,,,,,,,,,,,,,,,,,,,,,,,,,,,,,,,,,,,,,,,,,,,,,,,,,,camila_s,001,d,2019_Oct_10_1257,Experimento,3.2.3,59.98270686789826,
8,14,14,999,0.5,0:10,3,,,,,,,,,0,0,0,0,,,,,,,,,,,,,,,,,,,,,,,,,,,,,,,,,,,,,,,,,,,,,,,,,,,,,,,,,,,,,,,,,,,,,,,,,,,,,,,,,,,,,,499.63264170099865,502.7968253359868,2,5.2489538219961105,502.7968253359868,None,502.7968253359868,None,b,16.494524830006412,508.0614625559974,None,508.0614625559974,None,508.0614625559974,None,524.5723306189902,None,4,7.53180288799922,524.5723306189902,None,camila_s,001,d,2019_Oct_10_1257,Experimento,3.2.3,59.98270686789826,
