changuito_time_to_show,time_to_think,time_to_play,total_items,nback_stimulus_time,nback_training,time_to_show_tiny_stimulus,colourtest,corresp,inmediato,consciente,inconsciente,nback_slice,imagen,correcta,trials_5.thisRepN,trials_5.thisTrialN,trials_5.thisN,trials_5.thisIndex,nback_train.thisRepN,nback_train.thisTrialN,nback_train.thisN,nback_train.thisIndex,treatment_order.thisRepN,treatment_order.thisTrialN,treatment_order.thisN,treatment_order.thisIndex,trials.thisRepN,trials.thisTrialN,trials.thisN,trials.thisIndex,trials_2.thisRepN,trials_2.thisTrialN,trials_2.thisN,trials_2.thisIndex,trials_3.thisRepN,trials_3.thisTrialN,trials_3.thisN,trials_3.thisIndex,trials_4.thisRepN,trials_4.thisTrialN,trials_4.thisN,trials_4.thisIndex,Presentacion.started,Presentacion.stopped,Juego.started,Juego.stopped,image_6.started,image_6.stopped,polygon.started,polygon.stopped,nback_train_resp.keys,nback_train_resp.corr,nback_train_resp.started,nback_train_resp.stopped,nback_train_resp.rt,hola.started,hola.stopped,image_2.started,image_2.stopped,tiempo_para_pensar.started,tiempo_para_pensar.stopped,respuesta_consciente.keys,respuesta_consciente.corr,respuesta_consciente.rt,respuesta_consciente.started,respuesta_consciente.stopped,cual_es_la_mas_barata.started,cual_es_la_mas_barata.stopped,image_4.started,image_4.stopped,holi.started,holi.stopped,image_3.started,image_3.stopped,polygon_2.started,polygon_2.stopped,nback_train_resp_2.keys,nback_train_resp_2.corr,nback_train_resp_2.started,nback_train_resp_2.stopped,text_2.started,text_2.stopped,key_resp.keys,key_resp.corr,key_resp.rt,key_resp.started,key_resp.stopped,image_5.started,image_5.stopped,nback_train_resp_2.rt,text.started,text.stopped,image.started,image.stopped,respuesta_inmediato.keys,respuesta_inmediato.corr,respuesta_inmediato.rt,respuesta_inmediato.started,respuesta_inmediato.stopped,pregunta_cual_es_el_mas_barato.started,pregunta_cual_es_el_mas_barato.stopped,short_stim1.started,short_stim1.stopped,gracias.started,gracias.stopped,respuesta1.keys,respuesta1.rt,respuesta1.started,respuesta1.stopped,pregunta1.started,pregunta1.stopped,respuesta3bis_3.keys,respuesta3bis_3.rt,respuesta3bis_3.started,respuesta3bis_3.stopped,pregunta3_3.started,pregunta3_3.stopped,productoCon3RANGOSabc_3.started,productoCon3RANGOSabc_3.stopped,text_3.started,text_3.stopped,key_resp_2.keys,key_resp_2.rt,key_resp_2.started,key_resp_2.stopped,participant,session,group,date,expName,psychopyVersion,frameRate,
8,14,14,999,0.5,0:10,3,White,None,,,,,,,0,0,0,0,0,0,0,0,,,,,,,,,,,,,,,,,,,,,14.574065825989237,None,53.89349408198905,None,53.89349408198905,None,117.18898040699423,117.68864533399756,None,1,117.18898040699423,None,,,,,,,,,,,,,,,,,,,,,,,,,,,,,,,,,,,,,,,,,,,,,,,,,,,,,,,,,,,,,,,,,,,,,,,,juanP,001,a,2019_Oct_10_1347,Experimento,3.2.3,59.932124592127224,
8,14,14,999,0.5,0:10,3,Red,None,,,,,,,0,0,0,0,0,1,1,1,,,,,,,,,,,,,,,,,,,,,,,,,,,119.18802691198653,119.6879346009955,None,1,119.18802691198653,119.18802691198653,,,,,,,,,,,,,,,,,,,,,,,,,,,,,,,,,,,,,,,,,,,,,,,,,,,,,,,,,,,,,,,,,,,,,,,,juanP,001,a,2019_Oct_10_1347,Experimento,3.2.3,59.932124592127224,
8,14,14,999,0.5,0:10,3,Magenta,None,,,,,,,0,0,0,0,0,2,2,2,,,,,,,,,,,,,,,,,,,,,,,,,,,121.1873602209962,121.68731744198885,None,1,121.1873602209962,121.1873602209962,,,,,,,,,,,,,,,,,,,,,,,,,,,,,,,,,,,,,,,,,,,,,,,,,,,,,,,,,,,,,,,,,,,,,,,,juanP,001,a,2019_Oct_10_1347,Experimento,3.2.3,59.932124592127224,
8,14,14,999,0.5,0:10,3,Cyan,None,,,,,,,0,0,0,0,0,3,3,3,,,,,,,,,,,,,,,,,,,,,,,,,,,123.18668425199576,123.68653366199578,None,1,123.18668425199576,123.18668425199576,,,,,,,,,,,,,,,,,,,,,,,,,,,,,,,,,,,,,,,,,,,,,,,,,,,,,,,,,,,,,,,,,,,,,,,,juanP,001,a,2019_Oct_10_1347,Experimento,3.2.3,59.932124592127224,
8,14,14,999,0.5,0:10,3,Magenta,['space'],,,,,,,0,0,0,0,0,4,4,4,,,,,,,,,,,,,,,,,,,,,,,,,,,125.18596321898804,125.6858361219929,['return'],0,125.18596321898804,125.18596321898804,[1.0504094079951756],,,,,,,,,,,,,,,,,,,,,,,,,,,,,,,,,,,,,,,,,,,,,,,,,,,,,,,,,,,,,,,,,,,,,,,juanP,001,a,2019_Oct_10_1347,Experimento,3.2.3,59.932124592127224,
8,14,14,999,0.5,0:10,3,Green,None,,,,,,,0,0,0,0,0,5,5,5,,,,,,,,,,,,,,,,,,,,,,,,,,,127.18526911399385,127.68518651399063,None,1,127.18526911399385,127.18526911399385,,,,,,,,,,,,,,,,,,,,,,,,,,,,,,,,,,,,,,,,,,,,,,,,,,,,,,,,,,,,,,,,,,,,,,,,juanP,001,a,2019_Oct_10_1347,Experimento,3.2.3,59.932124592127224,
8,14,14,999,0.5,0:10,3,White,None,,,,,,,0,0,0,0,0,6,6,6,,,,,,,,,,,,,,,,,,,,,,,,,,,129.18461734199082,129.68448779699975,None,1,129.18461734199082,129.18461734199082,,,,,,,,,,,,,,,,,,,,,,,,,,,,,,,,,,,,,,,,,,,,,,,,,,,,,,,,,,,,,,,,,,,,,,,,juanP,001,a,2019_Oct_10_1347,Experimento,3.2.3,59.932124592127224,
8,14,14,999,0.5,0:10,3,Green,['space'],,,,,,,0,0,0,0,0,7,7,7,,,,,,,,,,,,,,,,,,,,,,,,,,,131.1838949489902,131.68381974298973,['return'],0,131.1838949489902,131.1838949489902,[0.7837616299948422],,,,,,,,,,,,,,,,,,,,,,,,,,,,,,,,,,,,,,,,,,,,,,,,,,,,,,,,,,,,,,,,,,,,,,,juanP,001,a,2019_Oct_10_1347,Experimento,3.2.3,59.932124592127224,
8,14,14,999,0.5,0:10,3,Blue,None,,,,,,,0,0,0,0,0,8,8,8,,,,,,,,,,,,,,,,,,,,,,,,,,,133.18319248699117,133.683118061992,None,1,133.18319248699117,133.18319248699117,,,,,,,,,,,,,,,,,,,,,,,,,,,,,,,,,,,,,,,,,,,,,,,,,,,,,,,,,,,,,,,,,,,,,,,,juanP,001,a,2019_Oct_10_1347,Experimento,3.2.3,59.932124592127224,
8,14,14,999,0.5,0:10,3,Green,['space'],,,,,,,0,0,0,0,0,9,9,9,,,,,,,,,,,,,,,,,,,,,,,,,,,135.18257090599218,135.68243804298982,['return'],0,135.18257090599218,135.18257090599218,[0.5337165679957252],,,,,,,,,,,,,,,,,,,,,,,,,,,,,,,,,,,,,,,,,,,,,,,,,,,,,,,,,,,,,,,,,,,,,,,juanP,001,a,2019_Oct_10_1347,Experimento,3.2.3,59.932124592127224,
8,14,14,999,0.5,0:10,3,,,0,1,0,10:50,./completed_changuitos/montage_hbylw_44.75_51.35.jpg,right,0,0,0,0,,,,,0,0,0,0,,,,,0,0,0,0,,,,,,,,,,,,,,,,,,,,,,137.33297474299616,162.50660630798666,162.50660630798666,170.5205213159934,170.5205213159934,184.53244017799443,right,1,1.5665972459974,184.53244017799443,None,184.53244017799443,None,184.53244017799443,None,,,,,,,,,,,,,,,,,,,,,,,,,,,,,,,,,,,,,,,,,,,,,,,,,,,,,,,,juanP,001,a,2019_Oct_10_1347,Experimento,3.2.3,59.932124592127224,
8,14,14,999,0.5,0:10,3,,,0,1,0,10:50,,,0,0,0,0,,,,,0,0,0,0,,,,,,,,,,,,,,,,,,,,,,,,,,,,,,,,,,,,,,,,,,,,,,,,,,,,,,,,,,,,,,,,,,,,,,,,,,,,,,,,,,,,,,,,,,,,,,,,,,,,juanP,001,a,2019_Oct_10_1347,Experimento,3.2.3,59.932124592127224,
8,14,14,999,0.5,0:10,3,Yellow,None,0,0,1,15:50,./completed_changuitos/montage_zxglb_101.55_86.45.jpg,left,0,0,0,0,,,,,0,1,1,1,,,,,,,,,0,0,0,0,0,0,0,0,,,,,,,,,,,,,,,,,,,,,,,,,,,,,186.23864349198993,193.59596160099318,193.59596160099318,None,201.62311196699739,202.1260023049981,None,1,201.62311196699739,None,,,,,,,,,,,,,,,,,,,,,,,,,,,,,,,,,,,,,,,,,,,,,,juanP,001,a,2019_Oct_10_1347,Experimento,3.2.3,59.932124592127224,
8,14,14,999,0.5,0:10,3,White,['space'],0,0,1,15:50,./completed_changuitos/montage_zxglb_101.55_86.45.jpg,left,0,0,0,0,,,,,0,1,1,1,,,,,,,,,0,0,0,0,0,1,1,1,,,,,,,,,,,,,,,,,,,,,,,,,,,,,,,,,203.6257840019971,204.12571925699012,None,0,203.6257840019971,203.6257840019971,,,,,,,,,,,,,,,,,,,,,,,,,,,,,,,,,,,,,,,,,,,,,,juanP,001,a,2019_Oct_10_1347,Experimento,3.2.3,59.932124592127224,
8,14,14,999,0.5,0:10,3,Magenta,None,0,0,1,15:50,./completed_changuitos/montage_zxglb_101.55_86.45.jpg,left,0,0,0,0,,,,,0,1,1,1,,,,,,,,,0,0,0,0,0,2,2,2,,,,,,,,,,,,,,,,,,,,,,,,,,,,,,,,,205.62482918798923,206.12510718299018,None,1,205.62482918798923,205.62482918798923,,,,,,,,,,,,,,,,,,,,,,,,,,,,,,,,,,,,,,,,,,,,,,juanP,001,a,2019_Oct_10_1347,Experimento,3.2.3,59.932124592127224,
8,14,14,999,0.5,0:10,3,Cyan,None,0,0,1,15:50,./completed_changuitos/montage_zxglb_101.55_86.45.jpg,left,0,0,0,0,,,,,0,1,1,1,,,,,,,,,0,0,0,0,0,3,3,3,,,,,,,,,,,,,,,,,,,,,,,,,,,,,,,,,207.6244651839952,208.12430292199133,None,1,207.6244651839952,207.6244651839952,,,,,,,,,,,,,,,,,,,,,,,,,,,,,,,,,,,,,,,,,,,,,,juanP,001,a,2019_Oct_10_1347,Experimento,3.2.3,59.932124592127224,
8,14,14,999,0.5,0:10,3,Blue,None,0,0,1,15:50,./completed_changuitos/montage_zxglb_101.55_86.45.jpg,left,0,0,0,0,,,,,0,1,1,1,,,,,,,,,0,0,0,0,0,4,4,4,,,,,,,,,,,,,,,,,,,,,,,,,,,,,,,,,209.62377355298668,210.1233318559971,None,1,209.62377355298668,209.62377355298668,,,,,,,,,,,,,,,,,,,,,,,,,,,,,,,,,,,,,,,,,,,,,,juanP,001,a,2019_Oct_10_1347,Experimento,3.2.3,59.932124592127224,
8,14,14,999,0.5,0:10,3,Magenta,None,0,0,1,15:50,./completed_changuitos/montage_zxglb_101.55_86.45.jpg,left,0,0,0,0,,,,,0,1,1,1,,,,,,,,,0,0,0,0,0,5,5,5,,,,,,,,,,,,,,,,,,,,,,,,,,,,,,,,,211.62302764999913,212.12299036499462,None,1,211.62302764999913,211.62302764999913,,,,,,,,,,,,,,,,,,,,,,,,,,,,,,,,,,,,,,,,,,,,,,juanP,001,a,2019_Oct_10_1347,Experimento,3.2.3,59.932124592127224,
8,14,14,999,0.5,0:10,3,Blue,['space'],0,0,1,15:50,./completed_changuitos/montage_zxglb_101.55_86.45.jpg,left,0,0,0,0,,,,,0,1,1,1,,,,,,,,,0,0,0,0,0,6,6,6,,,,,,,,,,,,,,,,,,,,,,,,,,,,,,,,,213.62243821899756,214.12227590898692,None,0,213.62243821899756,213.62243821899756,,,,,,,,,,,,,,,,,,,,,,,,,,,,,,,,,,,,,,,,,,,,,,juanP,001,a,2019_Oct_10_1347,Experimento,3.2.3,59.932124592127224,
8,14,14,999,0.5,0:10,3,Cyan,None,0,0,1,15:50,./completed_changuitos/montage_zxglb_101.55_86.45.jpg,left,0,0,0,0,,,,,0,1,1,1,,,,,,,,,0,0,0,0,0,7,7,7,,,,,,,,,,,,,,,,,,,,,,,,,,,,,,,,,215.62146398029873,None,None,1,215.62146398029873,None,,,,,,,,,,,,,,,,,,,,,,,,,,,,,,,,,,,,,,,,,,,,,,juanP,001,a,2019_Oct_10_1347,Experimento,3.2.3,59.932124592127224,
8,14,14,999,0.5,0:10,3,Yellow,None,0,0,1,15:50,./completed_changuitos/montage_zxglb_101.55_86.45.jpg,left,0,0,0,0,,,,,0,1,1,1,,,,,,,,,0,0,0,0,0,8,8,8,,,,,,,,,,,,,,,,,,,,,,,,,,,,,,,,,215.62146398029873,None,None,1,215.62146398029873,None,,,,,,,,,,,,,,,,,,,,,,,,,,,,,,,,,,,,,,,,,,,,,,juanP,001,a,2019_Oct_10_1347,Experimento,3.2.3,59.932124592127224,
8,14,14,999,0.5,0:10,3,Cyan,None,0,0,1,15:50,./completed_changuitos/montage_zxglb_101.55_86.45.jpg,left,0,0,0,0,,,,,0,1,1,1,,,,,,,,,0,0,0,0,0,9,9,9,,,,,,,,,,,,,,,,,,,,,,,,,,,,,,,,,215.62146398029873,None,None,1,215.62146398029873,None,,,,,,,,,,,,,,,,,,,,,,,,,,,,,,,,,,,,,,,,,,,,,,juanP,001,a,2019_Oct_10_1347,Experimento,3.2.3,59.932124592127224,
8,14,14,999,0.5,0:10,3,Blue,None,0,0,1,15:50,./completed_changuitos/montage_zxglb_101.55_86.45.jpg,left,0,0,0,0,,,,,0,1,1,1,,,,,,,,,0,0,0,0,0,10,10,10,,,,,,,,,,,,,,,,,,,,,,,,,,,,,,,,,215.62146398029873,None,None,1,215.62146398029873,None,,,,,,,,,,,,,,,,,,,,,,,,,,,,,,,,,,,,,,,,,,,,,,juanP,001,a,2019_Oct_10_1347,Experimento,3.2.3,59.932124592127224,
8,14,14,999,0.5,0:10,3,Cyan,['space'],0,0,1,15:50,./completed_changuitos/montage_zxglb_101.55_86.45.jpg,left,0,0,0,0,,,,,0,1,1,1,,,,,,,,,0,0,0,0,0,11,11,11,,,,,,,,,,,,,,,,,,,,,,,,,,,,,,,,,215.63812801459864,None,None,0,215.63812801459864,None,,,,,,,,,,,,,,,,,,,,,,,,,,,,,,,,,,,,,,,,,,,,,,juanP,001,a,2019_Oct_10_1347,Experimento,3.2.3,59.932124592127224,
8,14,14,999,0.5,0:10,3,Magenta,None,0,0,1,15:50,./completed_changuitos/montage_zxglb_101.55_86.45.jpg,left,0,0,0,0,,,,,0,1,1,1,,,,,,,,,0,0,0,0,0,12,12,12,,,,,,,,,,,,,,,,,,,,,,,,,,,,,,,,,215.63812801459864,None,None,1,215.63812801459864,None,,,,,,,,,,,,,,,,,,,,,,,,,,,,,,,,,,,,,,,,,,,,,,juanP,001,a,2019_Oct_10_1347,Experimento,3.2.3,59.932124592127224,
8,14,14,999,0.5,0:10,3,Red,None,0,0,1,15:50,./completed_changuitos/montage_zxglb_101.55_86.45.jpg,left,0,0,0,0,,,,,0,1,1,1,,,,,,,,,0,0,0,0,0,13,13,13,,,,,,,,,,,,,,,,,,,,,,,,,,,,,,,,,215.63812801459864,None,None,1,215.63812801459864,None,,,,,,,,,,,,,,,,,,,,,,,,,,,,,,,,,,,,,,,,,,,,,,juanP,001,a,2019_Oct_10_1347,Experimento,3.2.3,59.932124592127224,
8,14,14,999,0.5,0:10,3,Magenta,['space'],0,0,1,15:50,./completed_changuitos/montage_zxglb_101.55_86.45.jpg,left,0,0,0,0,,,,,0,1,1,1,,,,,,,,,0,0,0,0,0,14,14,14,,,,,,,,,,,,,,,,,,,,,,,,,,,,,,,,,215.63812801459864,None,None,0,215.63812801459864,None,,,,,,,,,,,,,,,,,,,,,,,,,,,,,,,,,,,,,,,,,,,,,,juanP,001,a,2019_Oct_10_1347,Experimento,3.2.3,59.932124592127224,
8,14,14,999,0.5,0:10,3,Green,None,0,0,1,15:50,./completed_changuitos/montage_zxglb_101.55_86.45.jpg,left,0,0,0,0,,,,,0,1,1,1,,,,,,,,,0,0,0,0,0,15,15,15,,,,,,,,,,,,,,,,,,,,,,,,,,,,,,,,,215.63812801459864,None,None,1,215.63812801459864,None,,,,,,,,,,,,,,,,,,,,,,,,,,,,,,,,,,,,,,,,,,,,,,juanP,001,a,2019_Oct_10_1347,Experimento,3.2.3,59.932124592127224,
8,14,14,999,0.5,0:10,3,Yellow,['space'],0,0,1,15:50,./completed_changuitos/montage_zxglb_101.55_86.45.jpg,left,0,0,0,0,,,,,0,1,1,1,,,,,,,,,0,0,0,0,0,16,16,16,,,,,,,,,,,,,,,,,,,,,,,,,,,,,,,,,215.63812801459864,None,None,0,215.63812801459864,None,,,,,,,,,,,,,,,,,,,,,,,,,,,,,,,,,,,,,,,,,,,,,,juanP,001,a,2019_Oct_10_1347,Experimento,3.2.3,59.932124592127224,
8,14,14,999,0.5,0:10,3,Blue,None,0,0,1,15:50,./completed_changuitos/montage_zxglb_101.55_86.45.jpg,left,0,0,0,0,,,,,0,1,1,1,,,,,,,,,0,0,0,0,0,17,17,17,,,,,,,,,,,,,,,,,,,,,,,,,,,,,,,,,215.65479204889854,None,None,1,215.65479204889854,None,,,,,,,,,,,,,,,,,,,,,,,,,,,,,,,,,,,,,,,,,,,,,,juanP,001,a,2019_Oct_10_1347,Experimento,3.2.3,59.932124592127224,
8,14,14,999,0.5,0:10,3,Cyan,None,0,0,1,15:50,./completed_changuitos/montage_zxglb_101.55_86.45.jpg,left,0,0,0,0,,,,,0,1,1,1,,,,,,,,,0,0,0,0,0,18,18,18,,,,,,,,,,,,,,,,,,,,,,,,,,,,,,,,,215.65479204889854,None,None,1,215.65479204889854,None,,,,,,,,,,,,,,,,,,,,,,,,,,,,,,,,,,,,,,,,,,,,,,juanP,001,a,2019_Oct_10_1347,Experimento,3.2.3,59.932124592127224,
8,14,14,999,0.5,0:10,3,Blue,['space'],0,0,1,15:50,./completed_changuitos/montage_zxglb_101.55_86.45.jpg,left,0,0,0,0,,,,,0,1,1,1,,,,,,,,,0,0,0,0,0,19,19,19,,,,,,,,,,,,,,,,,,,,,,,,,,,,,,,,,215.65479204889854,None,None,0,215.65479204889854,None,,,,,,,,,,,,,,,,,,,,,,,,,,,,,,,,,,,,,,,,,,,,,,juanP,001,a,2019_Oct_10_1347,Experimento,3.2.3,59.932124592127224,
8,14,14,999,0.5,0:10,3,Yellow,None,0,0,1,15:50,./completed_changuitos/montage_zxglb_101.55_86.45.jpg,left,0,0,0,0,,,,,0,1,1,1,,,,,,,,,0,0,0,0,0,20,20,20,,,,,,,,,,,,,,,,,,,,,,,,,,,,,,,,,215.65479204889854,None,None,1,215.65479204889854,None,,,,,,,,,,,,,,,,,,,,,,,,,,,,,,,,,,,,,,,,,,,,,,juanP,001,a,2019_Oct_10_1347,Experimento,3.2.3,59.932124592127224,
8,14,14,999,0.5,0:10,3,Cyan,None,0,0,1,15:50,./completed_changuitos/montage_zxglb_101.55_86.45.jpg,left,0,0,0,0,,,,,0,1,1,1,,,,,,,,,0,0,0,0,0,21,21,21,,,,,,,,,,,,,,,,,,,,,,,,,,,,,,,,,215.65479204889854,None,None,1,215.65479204889854,None,,,,,,,,,,,,,,,,,,,,,,,,,,,,,,,,,,,,,,,,,,,,,,juanP,001,a,2019_Oct_10_1347,Experimento,3.2.3,59.932124592127224,
8,14,14,999,0.5,0:10,3,Yellow,['space'],0,0,1,15:50,./completed_changuitos/montage_zxglb_101.55_86.45.jpg,left,0,0,0,0,,,,,0,1,1,1,,,,,,,,,0,0,0,0,0,22,22,22,,,,,,,,,,,,,,,,,,,,,,,,,,,,,,,,,215.65479204889854,None,None,0,215.65479204889854,None,,,,,,,,,,,,,,,,,,,,,,,,,,,,,,,,,,,,,,,,,,,,,,juanP,001,a,2019_Oct_10_1347,Experimento,3.2.3,59.932124592127224,
8,14,14,999,0.5,0:10,3,Magenta,None,0,0,1,15:50,./completed_changuitos/montage_zxglb_101.55_86.45.jpg,left,0,0,0,0,,,,,0,1,1,1,,,,,,,,,0,0,0,0,0,23,23,23,,,,,,,,,,,,,,,,,,,,,,,,,,,,,,,,,215.65479204889854,None,None,1,215.65479204889854,None,,,,,,,,,,,,,,,,,,,,,,,,,,,,,,,,,,,,,,,,,,,,,,juanP,001,a,2019_Oct_10_1347,Experimento,3.2.3,59.932124592127224,
8,14,14,999,0.5,0:10,3,Red,None,0,0,1,15:50,./completed_changuitos/montage_zxglb_101.55_86.45.jpg,left,0,0,0,0,,,,,0,1,1,1,,,,,,,,,0,0,0,0,0,24,24,24,,,,,,,,,,,,,,,,,,,,,,,,,,,,,,,,,215.65479204889854,None,None,1,215.65479204889854,None,,,,,,,,,,,,,,,,,,,,,,,,,,,,,,,,,,,,,,,,,,,,,,juanP,001,a,2019_Oct_10_1347,Experimento,3.2.3,59.932124592127224,
8,14,14,999,0.5,0:10,3,Magenta,['space'],0,0,1,15:50,./completed_changuitos/montage_zxglb_101.55_86.45.jpg,left,0,0,0,0,,,,,0,1,1,1,,,,,,,,,0,0,0,0,0,25,25,25,,,,,,,,,,,,,,,,,,,,,,,,,,,,,,,,,215.65479204889854,None,None,0,215.65479204889854,None,,,,,,,,,,,,,,,,,,,,,,,,,,,,,,,,,,,,,,,,,,,,,,juanP,001,a,2019_Oct_10_1347,Experimento,3.2.3,59.932124592127224,
8,14,14,999,0.5,0:10,3,Red,['space'],0,0,1,15:50,./completed_changuitos/montage_zxglb_101.55_86.45.jpg,left,0,0,0,0,,,,,0,1,1,1,,,,,,,,,0,0,0,0,0,26,26,26,,,,,,,,,,,,,,,,,,,,,,,,,,,,,,,,,215.65479204889854,None,None,0,215.65479204889854,None,,,,,,,,,,,,,,,,,,,,,,,,,,,,,,,,,,,,,,,,,,,,,,juanP,001,a,2019_Oct_10_1347,Experimento,3.2.3,59.932124592127224,
8,14,14,999,0.5,0:10,3,Yellow,None,0,0,1,15:50,./completed_changuitos/montage_zxglb_101.55_86.45.jpg,left,0,0,0,0,,,,,0,1,1,1,,,,,,,,,0,0,0,0,0,27,27,27,,,,,,,,,,,,,,,,,,,,,,,,,,,,,,,,,215.65479204889854,None,None,1,215.65479204889854,None,,,,,,,,,,,,,,,,,,,,,,,,,,,,,,,,,,,,,,,,,,,,,,juanP,001,a,2019_Oct_10_1347,Experimento,3.2.3,59.932124592127224,
8,14,14,999,0.5,0:10,3,Cyan,None,0,0,1,15:50,./completed_changuitos/montage_zxglb_101.55_86.45.jpg,left,0,0,0,0,,,,,0,1,1,1,,,,,,,,,0,0,0,0,0,28,28,28,,,,,,,,,,,,,,,,,,,,,,,,,,,,,,,,,215.65479204889854,None,None,1,215.65479204889854,None,,,,,,,,,,,,,,,,,,,,,,,,,,,,,,,,,,,,,,,,,,,,,,juanP,001,a,2019_Oct_10_1347,Experimento,3.2.3,59.932124592127224,
8,14,14,999,0.5,0:10,3,Green,None,0,0,1,15:50,./completed_changuitos/montage_zxglb_101.55_86.45.jpg,left,0,0,0,0,,,,,0,1,1,1,,,,,,,,,0,0,0,0,0,29,29,29,,,,,,,,,,,,,,,,,,,,,,,,,,,,,,,,,215.65479204889854,None,None,1,215.65479204889854,None,,,,,,,,,,,,,,,,,,,,,,,,,,,,,,,,,,,,,,,,,,,,,,juanP,001,a,2019_Oct_10_1347,Experimento,3.2.3,59.932124592127224,
8,14,14,999,0.5,0:10,3,White,None,0,0,1,15:50,./completed_changuitos/montage_zxglb_101.55_86.45.jpg,left,0,0,0,0,,,,,0,1,1,1,,,,,,,,,0,0,0,0,0,30,30,30,,,,,,,,,,,,,,,,,,,,,,,,,,,,,,,,,215.65479204889854,None,None,1,215.65479204889854,None,,,,,,,,,,,,,,,,,,,,,,,,,,,,,,,,,,,,,,,,,,,,,,juanP,001,a,2019_Oct_10_1347,Experimento,3.2.3,59.932124592127224,
8,14,14,999,0.5,0:10,3,Green,['space'],0,0,1,15:50,./completed_changuitos/montage_zxglb_101.55_86.45.jpg,left,0,0,0,0,,,,,0,1,1,1,,,,,,,,,0,0,0,0,0,31,31,31,,,,,,,,,,,,,,,,,,,,,,,,,,,,,,,,,215.67145608319842,None,None,0,215.67145608319842,None,,,,,,,,,,,,,,,,,,,,,,,,,,,,,,,,,,,,,,,,,,,,,,juanP,001,a,2019_Oct_10_1347,Experimento,3.2.3,59.932124592127224,
8,14,14,999,0.5,0:10,3,Red,None,0,0,1,15:50,./completed_changuitos/montage_zxglb_101.55_86.45.jpg,left,0,0,0,0,,,,,0,1,1,1,,,,,,,,,0,0,0,0,0,32,32,32,,,,,,,,,,,,,,,,,,,,,,,,,,,,,,,,,215.67145608319842,None,None,1,215.67145608319842,None,,,,,,,,,,,,,,,,,,,,,,,,,,,,,,,,,,,,,,,,,,,,,,juanP,001,a,2019_Oct_10_1347,Experimento,3.2.3,59.932124592127224,
8,14,14,999,0.5,0:10,3,Blue,None,0,0,1,15:50,./completed_changuitos/montage_zxglb_101.55_86.45.jpg,left,0,0,0,0,,,,,0,1,1,1,,,,,,,,,0,0,0,0,0,33,33,33,,,,,,,,,,,,,,,,,,,,,,,,,,,,,,,,,215.67145608319842,None,None,1,215.67145608319842,None,,,,,,,,,,,,,,,,,,,,,,,,,,,,,,,,,,,,,,,,,,,,,,juanP,001,a,2019_Oct_10_1347,Experimento,3.2.3,59.932124592127224,
8,14,14,999,0.5,0:10,3,Green,None,0,0,1,15:50,./completed_changuitos/montage_zxglb_101.55_86.45.jpg,left,0,0,0,0,,,,,0,1,1,1,,,,,,,,,0,0,0,0,0,34,34,34,,,,,,,,,,,,,,,,,,,,,,,,,,,,,,,,,215.67145608319842,None,None,1,215.67145608319842,None,,,,,,,,,,,,,,,,,,,,,,,,,,,,,,,,,,,,,,,,,,,,,,juanP,001,a,2019_Oct_10_1347,Experimento,3.2.3,59.932124592127224,
8,14,14,999,0.5,0:10,3,,,0,0,1,15:50,./completed_changuitos/montage_zxglb_101.55_86.45.jpg,left,0,0,0,0,,,,,0,1,1,1,,,,,,,,,0,0,0,0,,,,,,,,,,,,,,,,,,,,,,,,,,,,,,,,,,,,,,,,,,,215.70453703199746,None,left,1,1.2168026020081015,215.70453703199746,None,215.70453703199746,None,,,,,,,,,,,,,,,,,,,,,,,,,,,,,,,,,,,,,juanP,001,a,2019_Oct_10_1347,Experimento,3.2.3,59.932124592127224,
8,14,14,999,0.5,0:10,3,,,0,0,1,15:50,,,0,0,0,0,,,,,0,1,1,1,,,,,,,,,,,,,,,,,,,,,,,,,,,,,,,,,,,,,,,,,,,,,,,,,,,,,,,,,,,,,,,,,,,,,,,,,,,,,,,,,,,,,,,,,,,,,,,,,,,,juanP,001,a,2019_Oct_10_1347,Experimento,3.2.3,59.932124592127224,
8,14,14,999,0.5,0:10,3,,,0,1,0,19:50,./completed_changuitos/montage_dsfyr_77.05_87.75.jpg,right,0,0,0,0,,,,,0,2,2,2,,,,,0,0,0,0,,,,,,,,,,,,,,,,,,,,,,217.05900813199696,226.9179200889921,226.9179200889921,234.93145424498653,234.93145424498653,248.94330728899513,left,0,0.6334075490012765,248.94330728899513,None,248.94330728899513,None,248.94330728899513,None,,,,,,,,,,,,,,,,,,,,,,,,,,,,,,,,,,,,,,,,,,,,,,,,,,,,,,,,juanP,001,a,2019_Oct_10_1347,Experimento,3.2.3,59.932124592127224,
8,14,14,999,0.5,0:10,3,,,0,1,0,19:50,,,0,0,0,0,,,,,0,2,2,2,,,,,,,,,,,,,,,,,,,,,,,,,,,,,,,,,,,,,,,,,,,,,,,,,,,,,,,,,,,,,,,,,,,,,,,,,,,,,,,,,,,,,,,,,,,,,,,,,,,,juanP,001,a,2019_Oct_10_1347,Experimento,3.2.3,59.932124592127224,
8,14,14,999,0.5,0:10,3,Magenta,None,0,0,1,20:50,./completed_changuitos/montage_soisy_50.85_58.3.jpg,right,0,0,0,0,,,,,0,3,3,3,,,,,,,,,0,0,0,0,0,0,0,0,,,,,,,,,,,,,,,,,,,,,,,,,,,,,249.692004720986,255.35819233898656,255.35819233898656,None,263.3983813019877,263.90526589599904,None,1,263.3983813019877,None,,,,,,,,,,,,,,,,,,,,,,,,,,,,,,,,,,,,,,,,,,,,,,juanP,001,a,2019_Oct_10_1347,Experimento,3.2.3,59.932124592127224,
8,14,14,999,0.5,0:10,3,Blue,['space'],0,0,1,20:50,./completed_changuitos/montage_soisy_50.85_58.3.jpg,right,0,0,0,0,,,,,0,3,3,3,,,,,,,,,0,0,0,0,0,1,1,1,,,,,,,,,,,,,,,,,,,,,,,,,,,,,,,,,265.40470844099764,265.90457090799464,None,0,265.40470844099764,265.40470844099764,,,,,,,,,,,,,,,,,,,,,,,,,,,,,,,,,,,,,,,,,,,,,,juanP,001,a,2019_Oct_10_1347,Experimento,3.2.3,59.932124592127224,
8,14,14,999,0.5,0:10,3,Cyan,None,0,0,1,20:50,./completed_changuitos/montage_soisy_50.85_58.3.jpg,right,0,0,0,0,,,,,0,3,3,3,,,,,,,,,0,0,0,0,0,2,2,2,,,,,,,,,,,,,,,,,,,,,,,,,,,,,,,,,267.40399528999114,267.90389901198796,None,1,267.40399528999114,267.40399528999114,,,,,,,,,,,,,,,,,,,,,,,,,,,,,,,,,,,,,,,,,,,,,,juanP,001,a,2019_Oct_10_1347,Experimento,3.2.3,59.932124592127224,
8,14,14,999,0.5,0:10,3,Yellow,None,0,0,1,20:50,./completed_changuitos/montage_soisy_50.85_58.3.jpg,right,0,0,0,0,,,,,0,3,3,3,,,,,,,,,0,0,0,0,0,3,3,3,,,,,,,,,,,,,,,,,,,,,,,,,,,,,,,,,269.4034141459997,269.90319601299416,None,1,269.4034141459997,269.4034141459997,,,,,,,,,,,,,,,,,,,,,,,,,,,,,,,,,,,,,,,,,,,,,,juanP,001,a,2019_Oct_10_1347,Experimento,3.2.3,59.932124592127224,
8,14,14,999,0.5,0:10,3,Cyan,None,0,0,1,20:50,./completed_changuitos/montage_soisy_50.85_58.3.jpg,right,0,0,0,0,,,,,0,3,3,3,,,,,,,,,0,0,0,0,0,4,4,4,,,,,,,,,,,,,,,,,,,,,,,,,,,,,,,,,271.4025048249896,271.90252508499543,['return'],0,271.4025048249896,271.4025048249896,,,,,,,,,,[0.6840235630079405],,,,,,,,,,,,,,,,,,,,,,,,,,,,,,,,,,,,juanP,001,a,2019_Oct_10_1347,Experimento,3.2.3,59.932124592127224,
8,14,14,999,0.5,0:10,3,Blue,None,0,0,1,20:50,./completed_changuitos/montage_soisy_50.85_58.3.jpg,right,0,0,0,0,,,,,0,3,3,3,,,,,,,,,0,0,0,0,0,5,5,5,,,,,,,,,,,,,,,,,,,,,,,,,,,,,,,,,273.4018091039907,273.90184131199203,['return'],0,273.4018091039907,273.4018091039907,,,,,,,,,,[1.2670668589998968],,,,,,,,,,,,,,,,,,,,,,,,,,,,,,,,,,,,juanP,001,a,2019_Oct_10_1347,Experimento,3.2.3,59.932124592127224,
8,14,14,999,0.5,0:10,3,Cyan,['space'],0,0,1,20:50,./completed_changuitos/montage_soisy_50.85_58.3.jpg,right,0,0,0,0,,,,,0,3,3,3,,,,,,,,,0,0,0,0,0,6,6,6,,,,,,,,,,,,,,,,,,,,,,,,,,,,,,,,,275.40131446499436,275.9011734999949,['return'],0,275.40131446499436,275.40131446499436,,,,,,,,,,[1.8832264749944443],,,,,,,,,,,,,,,,,,,,,,,,,,,,,,,,,,,,juanP,001,a,2019_Oct_10_1347,Experimento,3.2.3,59.932124592127224,
8,14,14,999,0.5,0:10,3,Magenta,None,0,0,1,20:50,./completed_changuitos/montage_soisy_50.85_58.3.jpg,right,0,0,0,0,,,,,0,3,3,3,,,,,,,,,0,0,0,0,0,7,7,7,,,,,,,,,,,,,,,,,,,,,,,,,,,,,,,,,277.38381156929825,None,None,1,277.38381156929825,None,,,,,,,,,,,,,,,,,,,,,,,,,,,,,,,,,,,,,,,,,,,,,,juanP,001,a,2019_Oct_10_1347,Experimento,3.2.3,59.932124592127224,
8,14,14,999,0.5,0:10,3,Red,None,0,0,1,20:50,./completed_changuitos/montage_soisy_50.85_58.3.jpg,right,0,0,0,0,,,,,0,3,3,3,,,,,,,,,0,0,0,0,0,8,8,8,,,,,,,,,,,,,,,,,,,,,,,,,,,,,,,,,277.38381156929825,None,None,1,277.38381156929825,None,,,,,,,,,,,,,,,,,,,,,,,,,,,,,,,,,,,,,,,,,,,,,,juanP,001,a,2019_Oct_10_1347,Experimento,3.2.3,59.932124592127224,
8,14,14,999,0.5,0:10,3,Magenta,['space'],0,0,1,20:50,./completed_changuitos/montage_soisy_50.85_58.3.jpg,right,0,0,0,0,,,,,0,3,3,3,,,,,,,,,0,0,0,0,0,9,9,9,,,,,,,,,,,,,,,,,,,,,,,,,,,,,,,,,277.38381156929825,None,None,0,277.38381156929825,None,,,,,,,,,,,,,,,,,,,,,,,,,,,,,,,,,,,,,,,,,,,,,,juanP,001,a,2019_Oct_10_1347,Experimento,3.2.3,59.932124592127224,
8,14,14,999,0.5,0:10,3,Green,None,0,0,1,20:50,./completed_changuitos/montage_soisy_50.85_58.3.jpg,right,0,0,0,0,,,,,0,3,3,3,,,,,,,,,0,0,0,0,0,10,10,10,,,,,,,,,,,,,,,,,,,,,,,,,,,,,,,,,277.38381156929825,None,None,1,277.38381156929825,None,,,,,,,,,,,,,,,,,,,,,,,,,,,,,,,,,,,,,,,,,,,,,,juanP,001,a,2019_Oct_10_1347,Experimento,3.2.3,59.932124592127224,
8,14,14,999,0.5,0:10,3,Yellow,['space'],0,0,1,20:50,./completed_changuitos/montage_soisy_50.85_58.3.jpg,right,0,0,0,0,,,,,0,3,3,3,,,,,,,,,0,0,0,0,0,11,11,11,,,,,,,,,,,,,,,,,,,,,,,,,,,,,,,,,277.38381156929825,None,None,0,277.38381156929825,None,,,,,,,,,,,,,,,,,,,,,,,,,,,,,,,,,,,,,,,,,,,,,,juanP,001,a,2019_Oct_10_1347,Experimento,3.2.3,59.932124592127224,
8,14,14,999,0.5,0:10,3,Blue,None,0,0,1,20:50,./completed_changuitos/montage_soisy_50.85_58.3.jpg,right,0,0,0,0,,,,,0,3,3,3,,,,,,,,,0,0,0,0,0,12,12,12,,,,,,,,,,,,,,,,,,,,,,,,,,,,,,,,,277.38381156929825,None,None,1,277.38381156929825,None,,,,,,,,,,,,,,,,,,,,,,,,,,,,,,,,,,,,,,,,,,,,,,juanP,001,a,2019_Oct_10_1347,Experimento,3.2.3,59.932124592127224,
8,14,14,999,0.5,0:10,3,Cyan,None,0,0,1,20:50,./completed_changuitos/montage_soisy_50.85_58.3.jpg,right,0,0,0,0,,,,,0,3,3,3,,,,,,,,,0,0,0,0,0,13,13,13,,,,,,,,,,,,,,,,,,,,,,,,,,,,,,,,,277.38381156929825,None,None,1,277.38381156929825,None,,,,,,,,,,,,,,,,,,,,,,,,,,,,,,,,,,,,,,,,,,,,,,juanP,001,a,2019_Oct_10_1347,Experimento,3.2.3,59.932124592127224,
8,14,14,999,0.5,0:10,3,Blue,['space'],0,0,1,20:50,./completed_changuitos/montage_soisy_50.85_58.3.jpg,right,0,0,0,0,,,,,0,3,3,3,,,,,,,,,0,0,0,0,0,14,14,14,,,,,,,,,,,,,,,,,,,,,,,,,,,,,,,,,277.38381156929825,None,None,0,277.38381156929825,None,,,,,,,,,,,,,,,,,,,,,,,,,,,,,,,,,,,,,,,,,,,,,,juanP,001,a,2019_Oct_10_1347,Experimento,3.2.3,59.932124592127224,
8,14,14,999,0.5,0:10,3,Yellow,None,0,0,1,20:50,./completed_changuitos/montage_soisy_50.85_58.3.jpg,right,0,0,0,0,,,,,0,3,3,3,,,,,,,,,0,0,0,0,0,15,15,15,,,,,,,,,,,,,,,,,,,,,,,,,,,,,,,,,277.38381156929825,None,None,1,277.38381156929825,None,,,,,,,,,,,,,,,,,,,,,,,,,,,,,,,,,,,,,,,,,,,,,,juanP,001,a,2019_Oct_10_1347,Experimento,3.2.3,59.932124592127224,
8,14,14,999,0.5,0:10,3,Cyan,None,0,0,1,20:50,./completed_changuitos/montage_soisy_50.85_58.3.jpg,right,0,0,0,0,,,,,0,3,3,3,,,,,,,,,0,0,0,0,0,16,16,16,,,,,,,,,,,,,,,,,,,,,,,,,,,,,,,,,277.4004756035981,None,None,1,277.4004756035981,None,,,,,,,,,,,,,,,,,,,,,,,,,,,,,,,,,,,,,,,,,,,,,,juanP,001,a,2019_Oct_10_1347,Experimento,3.2.3,59.932124592127224,
8,14,14,999,0.5,0:10,3,Yellow,['space'],0,0,1,20:50,./completed_changuitos/montage_soisy_50.85_58.3.jpg,right,0,0,0,0,,,,,0,3,3,3,,,,,,,,,0,0,0,0,0,17,17,17,,,,,,,,,,,,,,,,,,,,,,,,,,,,,,,,,277.4004756035981,None,None,0,277.4004756035981,None,,,,,,,,,,,,,,,,,,,,,,,,,,,,,,,,,,,,,,,,,,,,,,juanP,001,a,2019_Oct_10_1347,Experimento,3.2.3,59.932124592127224,
8,14,14,999,0.5,0:10,3,Magenta,None,0,0,1,20:50,./completed_changuitos/montage_soisy_50.85_58.3.jpg,right,0,0,0,0,,,,,0,3,3,3,,,,,,,,,0,0,0,0,0,18,18,18,,,,,,,,,,,,,,,,,,,,,,,,,,,,,,,,,277.4004756035981,None,None,1,277.4004756035981,None,,,,,,,,,,,,,,,,,,,,,,,,,,,,,,,,,,,,,,,,,,,,,,juanP,001,a,2019_Oct_10_1347,Experimento,3.2.3,59.932124592127224,
8,14,14,999,0.5,0:10,3,Red,None,0,0,1,20:50,./completed_changuitos/montage_soisy_50.85_58.3.jpg,right,0,0,0,0,,,,,0,3,3,3,,,,,,,,,0,0,0,0,0,19,19,19,,,,,,,,,,,,,,,,,,,,,,,,,,,,,,,,,277.4004756035981,None,None,1,277.4004756035981,None,,,,,,,,,,,,,,,,,,,,,,,,,,,,,,,,,,,,,,,,,,,,,,juanP,001,a,2019_Oct_10_1347,Experimento,3.2.3,59.932124592127224,
8,14,14,999,0.5,0:10,3,Magenta,['space'],0,0,1,20:50,./completed_changuitos/montage_soisy_50.85_58.3.jpg,right,0,0,0,0,,,,,0,3,3,3,,,,,,,,,0,0,0,0,0,20,20,20,,,,,,,,,,,,,,,,,,,,,,,,,,,,,,,,,277.4004756035981,None,None,0,277.4004756035981,None,,,,,,,,,,,,,,,,,,,,,,,,,,,,,,,,,,,,,,,,,,,,,,juanP,001,a,2019_Oct_10_1347,Experimento,3.2.3,59.932124592127224,
8,14,14,999,0.5,0:10,3,Red,['space'],0,0,1,20:50,./completed_changuitos/montage_soisy_50.85_58.3.jpg,right,0,0,0,0,,,,,0,3,3,3,,,,,,,,,0,0,0,0,0,21,21,21,,,,,,,,,,,,,,,,,,,,,,,,,,,,,,,,,277.4004756035981,None,None,0,277.4004756035981,None,,,,,,,,,,,,,,,,,,,,,,,,,,,,,,,,,,,,,,,,,,,,,,juanP,001,a,2019_Oct_10_1347,Experimento,3.2.3,59.932124592127224,
8,14,14,999,0.5,0:10,3,Yellow,None,0,0,1,20:50,./completed_changuitos/montage_soisy_50.85_58.3.jpg,right,0,0,0,0,,,,,0,3,3,3,,,,,,,,,0,0,0,0,0,22,22,22,,,,,,,,,,,,,,,,,,,,,,,,,,,,,,,,,277.4004756035981,None,None,1,277.4004756035981,None,,,,,,,,,,,,,,,,,,,,,,,,,,,,,,,,,,,,,,,,,,,,,,juanP,001,a,2019_Oct_10_1347,Experimento,3.2.3,59.932124592127224,
8,14,14,999,0.5,0:10,3,Cyan,None,0,0,1,20:50,./completed_changuitos/montage_soisy_50.85_58.3.jpg,right,0,0,0,0,,,,,0,3,3,3,,,,,,,,,0,0,0,0,0,23,23,23,,,,,,,,,,,,,,,,,,,,,,,,,,,,,,,,,277.4004756035981,None,None,1,277.4004756035981,None,,,,,,,,,,,,,,,,,,,,,,,,,,,,,,,,,,,,,,,,,,,,,,juanP,001,a,2019_Oct_10_1347,Experimento,3.2.3,59.932124592127224,
8,14,14,999,0.5,0:10,3,Green,None,0,0,1,20:50,./completed_changuitos/montage_soisy_50.85_58.3.jpg,right,0,0,0,0,,,,,0,3,3,3,,,,,,,,,0,0,0,0,0,24,24,24,,,,,,,,,,,,,,,,,,,,,,,,,,,,,,,,,277.4004756035981,None,None,1,277.4004756035981,None,,,,,,,,,,,,,,,,,,,,,,,,,,,,,,,,,,,,,,,,,,,,,,juanP,001,a,2019_Oct_10_1347,Experimento,3.2.3,59.932124592127224,
8,14,14,999,0.5,0:10,3,White,None,0,0,1,20:50,./completed_changuitos/montage_soisy_50.85_58.3.jpg,right,0,0,0,0,,,,,0,3,3,3,,,,,,,,,0,0,0,0,0,25,25,25,,,,,,,,,,,,,,,,,,,,,,,,,,,,,,,,,277.4004756035981,None,None,1,277.4004756035981,None,,,,,,,,,,,,,,,,,,,,,,,,,,,,,,,,,,,,,,,,,,,,,,juanP,001,a,2019_Oct_10_1347,Experimento,3.2.3,59.932124592127224,
8,14,14,999,0.5,0:10,3,Green,['space'],0,0,1,20:50,./completed_changuitos/montage_soisy_50.85_58.3.jpg,right,0,0,0,0,,,,,0,3,3,3,,,,,,,,,0,0,0,0,0,26,26,26,,,,,,,,,,,,,,,,,,,,,,,,,,,,,,,,,277.4004756035981,None,None,0,277.4004756035981,None,,,,,,,,,,,,,,,,,,,,,,,,,,,,,,,,,,,,,,,,,,,,,,juanP,001,a,2019_Oct_10_1347,Experimento,3.2.3,59.932124592127224,
8,14,14,999,0.5,0:10,3,Red,None,0,0,1,20:50,./completed_changuitos/montage_soisy_50.85_58.3.jpg,right,0,0,0,0,,,,,0,3,3,3,,,,,,,,,0,0,0,0,0,27,27,27,,,,,,,,,,,,,,,,,,,,,,,,,,,,,,,,,277.4004756035981,None,None,1,277.4004756035981,None,,,,,,,,,,,,,,,,,,,,,,,,,,,,,,,,,,,,,,,,,,,,,,juanP,001,a,2019_Oct_10_1347,Experimento,3.2.3,59.932124592127224,
8,14,14,999,0.5,0:10,3,Blue,None,0,0,1,20:50,./completed_changuitos/montage_soisy_50.85_58.3.jpg,right,0,0,0,0,,,,,0,3,3,3,,,,,,,,,0,0,0,0,0,28,28,28,,,,,,,,,,,,,,,,,,,,,,,,,,,,,,,,,277.4004756035981,None,None,1,277.4004756035981,None,,,,,,,,,,,,,,,,,,,,,,,,,,,,,,,,,,,,,,,,,,,,,,juanP,001,a,2019_Oct_10_1347,Experimento,3.2.3,59.932124592127224,
8,14,14,999,0.5,0:10,3,Green,None,0,0,1,20:50,./completed_changuitos/montage_soisy_50.85_58.3.jpg,right,0,0,0,0,,,,,0,3,3,3,,,,,,,,,0,0,0,0,0,29,29,29,,,,,,,,,,,,,,,,,,,,,,,,,,,,,,,,,277.4004756035981,None,None,1,277.4004756035981,None,,,,,,,,,,,,,,,,,,,,,,,,,,,,,,,,,,,,,,,,,,,,,,juanP,001,a,2019_Oct_10_1347,Experimento,3.2.3,59.932124592127224,
8,14,14,999,0.5,0:10,3,,,0,0,1,20:50,./completed_changuitos/montage_soisy_50.85_58.3.jpg,right,0,0,0,0,,,,,0,3,3,3,,,,,,,,,0,0,0,0,,,,,,,,,,,,,,,,,,,,,,,,,,,,,,,,,,,,,,,,,,,277.44610924499284,None,right,1,2.2865444619965274,277.44610924499284,None,277.44610924499284,None,,,,,,,,,,,,,,,,,,,,,,,,,,,,,,,,,,,,,juanP,001,a,2019_Oct_10_1347,Experimento,3.2.3,59.932124592127224,
8,14,14,999,0.5,0:10,3,,,0,0,1,20:50,,,0,0,0,0,,,,,0,3,3,3,,,,,,,,,,,,,,,,,,,,,,,,,,,,,,,,,,,,,,,,,,,,,,,,,,,,,,,,,,,,,,,,,,,,,,,,,,,,,,,,,,,,,,,,,,,,,,,,,,,,juanP,001,a,2019_Oct_10_1347,Experimento,3.2.3,59.932124592127224,
8,14,14,999,0.5,0:10,3,,,0,1,0,25:50,./completed_changuitos/montage_yxyco_366.69_427.99.jpg,right,0,0,0,0,,,,,0,4,4,4,,,,,0,0,0,0,,,,,,,,,,,,,,,,,,,,,,279.87199670598784,286.8307612269855,286.8307612269855,294.8446880329866,294.8446880329866,308.85656913799176,right,1,0.9668227840011241,308.85656913799176,None,308.85656913799176,None,308.85656913799176,None,,,,,,,,,,,,,,,,,,,,,,,,,,,,,,,,,,,,,,,,,,,,,,,,,,,,,,,,juanP,001,a,2019_Oct_10_1347,Experimento,3.2.3,59.932124592127224,
8,14,14,999,0.5,0:10,3,,,0,1,0,25:50,,,0,0,0,0,,,,,0,4,4,4,,,,,,,,,,,,,,,,,,,,,,,,,,,,,,,,,,,,,,,,,,,,,,,,,,,,,,,,,,,,,,,,,,,,,,,,,,,,,,,,,,,,,,,,,,,,,,,,,,,,juanP,001,a,2019_Oct_10_1347,Experimento,3.2.3,59.932124592127224,
8,14,14,999,0.5,0:10,3,Red,None,0,0,1,28:50,./completed_changuitos/montage_jdwdw_122.95_146.59.jpg,right,0,0,0,0,,,,,0,5,5,5,,,,,,,,,0,0,0,0,0,0,0,0,,,,,,,,,,,,,,,,,,,,,,,,,,,,,309.9566845669906,312.0221402709867,312.0221402709867,None,320.06413878899184,320.5689238379855,None,1,320.06413878899184,None,,,,,,,,,,,,,,,,,,,,,,,,,,,,,,,,,,,,,,,,,,,,,,juanP,001,a,2019_Oct_10_1347,Experimento,3.2.3,59.932124592127224,
8,14,14,999,0.5,0:10,3,Magenta,['space'],0,0,1,28:50,./completed_changuitos/montage_jdwdw_122.95_146.59.jpg,right,0,0,0,0,,,,,0,5,5,5,,,,,,,,,0,0,0,0,0,1,1,1,,,,,,,,,,,,,,,,,,,,,,,,,,,,,,,,,322.06847309699515,322.56857966899406,None,0,322.06847309699515,322.06847309699515,,,,,,,,,,,,,,,,,,,,,,,,,,,,,,,,,,,,,,,,,,,,,,juanP,001,a,2019_Oct_10_1347,Experimento,3.2.3,59.932124592127224,
8,14,14,999,0.5,0:10,3,Green,None,0,0,1,28:50,./completed_changuitos/montage_jdwdw_122.95_146.59.jpg,right,0,0,0,0,,,,,0,5,5,5,,,,,,,,,0,0,0,0,0,2,2,2,,,,,,,,,,,,,,,,,,,,,,,,,,,,,,,,,324.06798171799164,324.56787293299567,None,1,324.06798171799164,324.06798171799164,,,,,,,,,,,,,,,,,,,,,,,,,,,,,,,,,,,,,,,,,,,,,,juanP,001,a,2019_Oct_10_1347,Experimento,3.2.3,59.932124592127224,
8,14,14,999,0.5,0:10,3,Yellow,['space'],0,0,1,28:50,./completed_changuitos/montage_jdwdw_122.95_146.59.jpg,right,0,0,0,0,,,,,0,5,5,5,,,,,,,,,0,0,0,0,0,3,3,3,,,,,,,,,,,,,,,,,,,,,,,,,,,,,,,,,326.067299006987,326.5672062699887,None,0,326.067299006987,326.067299006987,,,,,,,,,,,,,,,,,,,,,,,,,,,,,,,,,,,,,,,,,,,,,,juanP,001,a,2019_Oct_10_1347,Experimento,3.2.3,59.932124592127224,
8,14,14,999,0.5,0:10,3,Blue,None,0,0,1,28:50,./completed_changuitos/montage_jdwdw_122.95_146.59.jpg,right,0,0,0,0,,,,,0,5,5,5,,,,,,,,,0,0,0,0,0,4,4,4,,,,,,,,,,,,,,,,,,,,,,,,,,,,,,,,,328.0666440589994,328.56649788698996,None,1,328.0666440589994,328.0666440589994,,,,,,,,,,,,,,,,,,,,,,,,,,,,,,,,,,,,,,,,,,,,,,juanP,001,a,2019_Oct_10_1347,Experimento,3.2.3,59.932124592127224,
8,14,14,999,0.5,0:10,3,Cyan,None,0,0,1,28:50,./completed_changuitos/montage_jdwdw_122.95_146.59.jpg,right,0,0,0,0,,,,,0,5,5,5,,,,,,,,,0,0,0,0,0,5,5,5,,,,,,,,,,,,,,,,,,,,,,,,,,,,,,,,,330.0658314369939,330.5658065579919,None,1,330.0658314369939,330.0658314369939,,,,,,,,,,,,,,,,,,,,,,,,,,,,,,,,,,,,,,,,,,,,,,juanP,001,a,2019_Oct_10_1347,Experimento,3.2.3,59.932124592127224,
8,14,14,999,0.5,0:10,3,Blue,['space'],0,0,1,28:50,./completed_changuitos/montage_jdwdw_122.95_146.59.jpg,right,0,0,0,0,,,,,0,5,5,5,,,,,,,,,0,0,0,0,0,6,6,6,,,,,,,,,,,,,,,,,,,,,,,,,,,,,,,,,332.0653054709983,332.5651382669894,None,0,332.0653054709983,332.0653054709983,,,,,,,,,,,,,,,,,,,,,,,,,,,,,,,,,,,,,,,,,,,,,,juanP,001,a,2019_Oct_10_1347,Experimento,3.2.3,59.932124592127224,
8,14,14,999,0.5,0:10,3,Yellow,None,0,0,1,28:50,./completed_changuitos/montage_jdwdw_122.95_146.59.jpg,right,0,0,0,0,,,,,0,5,5,5,,,,,,,,,0,0,0,0,0,7,7,7,,,,,,,,,,,,,,,,,,,,,,,,,,,,,,,,,334.0479349942965,None,None,1,334.0479349942965,None,,,,,,,,,,,,,,,,,,,,,,,,,,,,,,,,,,,,,,,,,,,,,,juanP,001,a,2019_Oct_10_1347,Experimento,3.2.3,59.932124592127224,
8,14,14,999,0.5,0:10,3,Cyan,None,0,0,1,28:50,./completed_changuitos/montage_jdwdw_122.95_146.59.jpg,right,0,0,0,0,,,,,0,5,5,5,,,,,,,,,0,0,0,0,0,8,8,8,,,,,,,,,,,,,,,,,,,,,,,,,,,,,,,,,334.0479349942965,None,None,1,334.0479349942965,None,,,,,,,,,,,,,,,,,,,,,,,,,,,,,,,,,,,,,,,,,,,,,,juanP,001,a,2019_Oct_10_1347,Experimento,3.2.3,59.932124592127224,
8,14,14,999,0.5,0:10,3,Yellow,['space'],0,0,1,28:50,./completed_changuitos/montage_jdwdw_122.95_146.59.jpg,right,0,0,0,0,,,,,0,5,5,5,,,,,,,,,0,0,0,0,0,9,9,9,,,,,,,,,,,,,,,,,,,,,,,,,,,,,,,,,334.0479349942965,None,None,0,334.0479349942965,None,,,,,,,,,,,,,,,,,,,,,,,,,,,,,,,,,,,,,,,,,,,,,,juanP,001,a,2019_Oct_10_1347,Experimento,3.2.3,59.932124592127224,
8,14,14,999,0.5,0:10,3,Magenta,None,0,0,1,28:50,./completed_changuitos/montage_jdwdw_122.95_146.59.jpg,right,0,0,0,0,,,,,0,5,5,5,,,,,,,,,0,0,0,0,0,10,10,10,,,,,,,,,,,,,,,,,,,,,,,,,,,,,,,,,334.0479349942965,None,None,1,334.0479349942965,None,,,,,,,,,,,,,,,,,,,,,,,,,,,,,,,,,,,,,,,,,,,,,,juanP,001,a,2019_Oct_10_1347,Experimento,3.2.3,59.932124592127224,
8,14,14,999,0.5,0:10,3,Red,None,0,0,1,28:50,./completed_changuitos/montage_jdwdw_122.95_146.59.jpg,right,0,0,0,0,,,,,0,5,5,5,,,,,,,,,0,0,0,0,0,11,11,11,,,,,,,,,,,,,,,,,,,,,,,,,,,,,,,,,334.0645990285964,None,None,1,334.0645990285964,None,,,,,,,,,,,,,,,,,,,,,,,,,,,,,,,,,,,,,,,,,,,,,,juanP,001,a,2019_Oct_10_1347,Experimento,3.2.3,59.932124592127224,
8,14,14,999,0.5,0:10,3,Magenta,['space'],0,0,1,28:50,./completed_changuitos/montage_jdwdw_122.95_146.59.jpg,right,0,0,0,0,,,,,0,5,5,5,,,,,,,,,0,0,0,0,0,12,12,12,,,,,,,,,,,,,,,,,,,,,,,,,,,,,,,,,334.0645990285964,None,None,0,334.0645990285964,None,,,,,,,,,,,,,,,,,,,,,,,,,,,,,,,,,,,,,,,,,,,,,,juanP,001,a,2019_Oct_10_1347,Experimento,3.2.3,59.932124592127224,
8,14,14,999,0.5,0:10,3,Red,['space'],0,0,1,28:50,./completed_changuitos/montage_jdwdw_122.95_146.59.jpg,right,0,0,0,0,,,,,0,5,5,5,,,,,,,,,0,0,0,0,0,13,13,13,,,,,,,,,,,,,,,,,,,,,,,,,,,,,,,,,334.0645990285964,None,None,0,334.0645990285964,None,,,,,,,,,,,,,,,,,,,,,,,,,,,,,,,,,,,,,,,,,,,,,,juanP,001,a,2019_Oct_10_1347,Experimento,3.2.3,59.932124592127224,
8,14,14,999,0.5,0:10,3,Yellow,None,0,0,1,28:50,./completed_changuitos/montage_jdwdw_122.95_146.59.jpg,right,0,0,0,0,,,,,0,5,5,5,,,,,,,,,0,0,0,0,0,14,14,14,,,,,,,,,,,,,,,,,,,,,,,,,,,,,,,,,334.0645990285964,None,None,1,334.0645990285964,None,,,,,,,,,,,,,,,,,,,,,,,,,,,,,,,,,,,,,,,,,,,,,,juanP,001,a,2019_Oct_10_1347,Experimento,3.2.3,59.932124592127224,
8,14,14,999,0.5,0:10,3,Cyan,None,0,0,1,28:50,./completed_changuitos/montage_jdwdw_122.95_146.59.jpg,right,0,0,0,0,,,,,0,5,5,5,,,,,,,,,0,0,0,0,0,15,15,15,,,,,,,,,,,,,,,,,,,,,,,,,,,,,,,,,334.0645990285964,None,None,1,334.0645990285964,None,,,,,,,,,,,,,,,,,,,,,,,,,,,,,,,,,,,,,,,,,,,,,,juanP,001,a,2019_Oct_10_1347,Experimento,3.2.3,59.932124592127224,
8,14,14,999,0.5,0:10,3,Green,None,0,0,1,28:50,./completed_changuitos/montage_jdwdw_122.95_146.59.jpg,right,0,0,0,0,,,,,0,5,5,5,,,,,,,,,0,0,0,0,0,16,16,16,,,,,,,,,,,,,,,,,,,,,,,,,,,,,,,,,334.0645990285964,None,None,1,334.0645990285964,None,,,,,,,,,,,,,,,,,,,,,,,,,,,,,,,,,,,,,,,,,,,,,,juanP,001,a,2019_Oct_10_1347,Experimento,3.2.3,59.932124592127224,
8,14,14,999,0.5,0:10,3,White,None,0,0,1,28:50,./completed_changuitos/montage_jdwdw_122.95_146.59.jpg,right,0,0,0,0,,,,,0,5,5,5,,,,,,,,,0,0,0,0,0,17,17,17,,,,,,,,,,,,,,,,,,,,,,,,,,,,,,,,,334.0812630628963,None,None,1,334.0812630628963,None,,,,,,,,,,,,,,,,,,,,,,,,,,,,,,,,,,,,,,,,,,,,,,juanP,001,a,2019_Oct_10_1347,Experimento,3.2.3,59.932124592127224,
8,14,14,999,0.5,0:10,3,Green,['space'],0,0,1,28:50,./completed_changuitos/montage_jdwdw_122.95_146.59.jpg,right,0,0,0,0,,,,,0,5,5,5,,,,,,,,,0,0,0,0,0,18,18,18,,,,,,,,,,,,,,,,,,,,,,,,,,,,,,,,,334.0812630628963,None,None,0,334.0812630628963,None,,,,,,,,,,,,,,,,,,,,,,,,,,,,,,,,,,,,,,,,,,,,,,juanP,001,a,2019_Oct_10_1347,Experimento,3.2.3,59.932124592127224,
8,14,14,999,0.5,0:10,3,Red,None,0,0,1,28:50,./completed_changuitos/montage_jdwdw_122.95_146.59.jpg,right,0,0,0,0,,,,,0,5,5,5,,,,,,,,,0,0,0,0,0,19,19,19,,,,,,,,,,,,,,,,,,,,,,,,,,,,,,,,,334.0812630628963,None,None,1,334.0812630628963,None,,,,,,,,,,,,,,,,,,,,,,,,,,,,,,,,,,,,,,,,,,,,,,juanP,001,a,2019_Oct_10_1347,Experimento,3.2.3,59.932124592127224,
8,14,14,999,0.5,0:10,3,Blue,None,0,0,1,28:50,./completed_changuitos/montage_jdwdw_122.95_146.59.jpg,right,0,0,0,0,,,,,0,5,5,5,,,,,,,,,0,0,0,0,0,20,20,20,,,,,,,,,,,,,,,,,,,,,,,,,,,,,,,,,334.0812630628963,None,None,1,334.0812630628963,None,,,,,,,,,,,,,,,,,,,,,,,,,,,,,,,,,,,,,,,,,,,,,,juanP,001,a,2019_Oct_10_1347,Experimento,3.2.3,59.932124592127224,
8,14,14,999,0.5,0:10,3,Green,None,0,0,1,28:50,./completed_changuitos/montage_jdwdw_122.95_146.59.jpg,right,0,0,0,0,,,,,0,5,5,5,,,,,,,,,0,0,0,0,0,21,21,21,,,,,,,,,,,,,,,,,,,,,,,,,,,,,,,,,334.0812630628963,None,None,1,334.0812630628963,None,,,,,,,,,,,,,,,,,,,,,,,,,,,,,,,,,,,,,,,,,,,,,,juanP,001,a,2019_Oct_10_1347,Experimento,3.2.3,59.932124592127224,
8,14,14,999,0.5,0:10,3,,,0,0,1,28:50,./completed_changuitos/montage_jdwdw_122.95_146.59.jpg,right,0,0,0,0,,,,,0,5,5,5,,,,,,,,,0,0,0,0,,,,,,,,,,,,,,,,,,,,,,,,,,,,,,,,,,,,,,,,,,,334.1156120379892,None,right,1,0.8317688979877857,334.1156120379892,None,334.1156120379892,None,,,,,,,,,,,,,,,,,,,,,,,,,,,,,,,,,,,,,juanP,001,a,2019_Oct_10_1347,Experimento,3.2.3,59.932124592127224,
8,14,14,999,0.5,0:10,3,,,0,0,1,28:50,,,0,0,0,0,,,,,0,5,5,5,,,,,,,,,,,,,,,,,,,,,,,,,,,,,,,,,,,,,,,,,,,,,,,,,,,,,,,,,,,,,,,,,,,,,,,,,,,,,,,,,,,,,,,,,,,,,,,,,,,,juanP,001,a,2019_Oct_10_1347,Experimento,3.2.3,59.932124592127224,
8,14,14,999,0.5,0:10,3,,,0,1,0,10:50,./completed_changuitos/montage_tsdro_73.5_85.59.jpg,right,0,0,0,0,,,,,0,6,6,6,,,,,0,0,0,0,,,,,,,,,,,,,,,,,,,,,,335.1035287449922,340.3288537609915,340.3288537609915,348.343053271994,348.343053271994,362.3549533119949,right,1,0.599445650994312,362.3549533119949,None,362.3549533119949,None,362.3549533119949,None,,,,,,,,,,,,,,,,,,,,,,,,,,,,,,,,,,,,,,,,,,,,,,,,,,,,,,,,juanP,001,a,2019_Oct_10_1347,Experimento,3.2.3,59.932124592127224,
8,14,14,999,0.5,0:10,3,,,0,1,0,10:50,,,0,0,0,0,,,,,0,6,6,6,,,,,,,,,,,,,,,,,,,,,,,,,,,,,,,,,,,,,,,,,,,,,,,,,,,,,,,,,,,,,,,,,,,,,,,,,,,,,,,,,,,,,,,,,,,,,,,,,,,,juanP,001,a,2019_Oct_10_1347,Experimento,3.2.3,59.932124592127224,
8,14,14,999,0.5,0:10,3,Yellow,None,0,0,1,15:50,./completed_changuitos/montage_htmhs_213.29_189.6.jpg,left,0,0,0,0,,,,,0,7,7,7,,,,,,,,,0,0,0,0,0,0,0,0,,,,,,,,,,,,,,,,,,,,,,,,,,,,,363.07516969399876,365.5206112409942,365.5206112409942,None,373.55781213598675,374.0675981259992,None,1,373.55781213598675,None,,,,,,,,,,,,,,,,,,,,,,,,,,,,,,,,,,,,,,,,,,,,,,juanP,001,a,2019_Oct_10_1347,Experimento,3.2.3,59.932124592127224,
8,14,14,999,0.5,0:10,3,White,['space'],0,0,1,15:50,./completed_changuitos/montage_htmhs_213.29_189.6.jpg,left,0,0,0,0,,,,,0,7,7,7,,,,,,,,,0,0,0,0,0,1,1,1,,,,,,,,,,,,,,,,,,,,,,,,,,,,,,,,,375.567039911999,376.0668771699857,None,0,375.567039911999,375.567039911999,,,,,,,,,,,,,,,,,,,,,,,,,,,,,,,,,,,,,,,,,,,,,,juanP,001,a,2019_Oct_10_1347,Experimento,3.2.3,59.932124592127224,
8,14,14,999,0.5,0:10,3,Magenta,None,0,0,1,15:50,./completed_changuitos/montage_htmhs_213.29_189.6.jpg,left,0,0,0,0,,,,,0,7,7,7,,,,,,,,,0,0,0,0,0,2,2,2,,,,,,,,,,,,,,,,,,,,,,,,,,,,,,,,,377.5663680709986,378.0662337929971,None,1,377.5663680709986,377.5663680709986,,,,,,,,,,,,,,,,,,,,,,,,,,,,,,,,,,,,,,,,,,,,,,juanP,001,a,2019_Oct_10_1347,Experimento,3.2.3,59.932124592127224,
8,14,14,999,0.5,0:10,3,Cyan,None,0,0,1,15:50,./completed_changuitos/montage_htmhs_213.29_189.6.jpg,left,0,0,0,0,,,,,0,7,7,7,,,,,,,,,0,0,0,0,0,3,3,3,,,,,,,,,,,,,,,,,,,,,,,,,,,,,,,,,379.58209873099986,380.0822042689979,None,1,379.58209873099986,379.58209873099986,,,,,,,,,,,,,,,,,,,,,,,,,,,,,,,,,,,,,,,,,,,,,,juanP,001,a,2019_Oct_10_1347,Experimento,3.2.3,59.932124592127224,
8,14,14,999,0.5,0:10,3,Blue,None,0,0,1,15:50,./completed_changuitos/montage_htmhs_213.29_189.6.jpg,left,0,0,0,0,,,,,0,7,7,7,,,,,,,,,0,0,0,0,0,4,4,4,,,,,,,,,,,,,,,,,,,,,,,,,,,,,,,,,381.5817121539876,382.0815229979926,None,1,381.5817121539876,381.5817121539876,,,,,,,,,,,,,,,,,,,,,,,,,,,,,,,,,,,,,,,,,,,,,,juanP,001,a,2019_Oct_10_1347,Experimento,3.2.3,59.932124592127224,
8,14,14,999,0.5,0:10,3,Magenta,None,0,0,1,15:50,./completed_changuitos/montage_htmhs_213.29_189.6.jpg,left,0,0,0,0,,,,,0,7,7,7,,,,,,,,,0,0,0,0,0,5,5,5,,,,,,,,,,,,,,,,,,,,,,,,,,,,,,,,,383.581001818995,384.08085885799665,None,1,383.581001818995,383.581001818995,,,,,,,,,,,,,,,,,,,,,,,,,,,,,,,,,,,,,,,,,,,,,,juanP,001,a,2019_Oct_10_1347,Experimento,3.2.3,59.932124592127224,
8,14,14,999,0.5,0:10,3,Blue,['space'],0,0,1,15:50,./completed_changuitos/montage_htmhs_213.29_189.6.jpg,left,0,0,0,0,,,,,0,7,7,7,,,,,,,,,0,0,0,0,0,6,6,6,,,,,,,,,,,,,,,,,,,,,,,,,,,,,,,,,385.5803504219948,386.0801440209907,None,0,385.5803504219948,385.5803504219948,,,,,,,,,,,,,,,,,,,,,,,,,,,,,,,,,,,,,,,,,,,,,,juanP,001,a,2019_Oct_10_1347,Experimento,3.2.3,59.932124592127224,
8,14,14,999,0.5,0:10,3,Cyan,None,0,0,1,15:50,./completed_changuitos/montage_htmhs_213.29_189.6.jpg,left,0,0,0,0,,,,,0,7,7,7,,,,,,,,,0,0,0,0,0,7,7,7,,,,,,,,,,,,,,,,,,,,,,,,,,,,,,,,,387.5463279022864,None,None,1,387.5463279022864,None,,,,,,,,,,,,,,,,,,,,,,,,,,,,,,,,,,,,,,,,,,,,,,juanP,001,a,2019_Oct_10_1347,Experimento,3.2.3,59.932124592127224,
8,14,14,999,0.5,0:10,3,Yellow,None,0,0,1,15:50,./completed_changuitos/montage_htmhs_213.29_189.6.jpg,left,0,0,0,0,,,,,0,7,7,7,,,,,,,,,0,0,0,0,0,8,8,8,,,,,,,,,,,,,,,,,,,,,,,,,,,,,,,,,387.5463279022864,None,None,1,387.5463279022864,None,,,,,,,,,,,,,,,,,,,,,,,,,,,,,,,,,,,,,,,,,,,,,,juanP,001,a,2019_Oct_10_1347,Experimento,3.2.3,59.932124592127224,
8,14,14,999,0.5,0:10,3,Cyan,None,0,0,1,15:50,./completed_changuitos/montage_htmhs_213.29_189.6.jpg,left,0,0,0,0,,,,,0,7,7,7,,,,,,,,,0,0,0,0,0,9,9,9,,,,,,,,,,,,,,,,,,,,,,,,,,,,,,,,,387.5463279022864,None,None,1,387.5463279022864,None,,,,,,,,,,,,,,,,,,,,,,,,,,,,,,,,,,,,,,,,,,,,,,juanP,001,a,2019_Oct_10_1347,Experimento,3.2.3,59.932124592127224,
8,14,14,999,0.5,0:10,3,Blue,None,0,0,1,15:50,./completed_changuitos/montage_htmhs_213.29_189.6.jpg,left,0,0,0,0,,,,,0,7,7,7,,,,,,,,,0,0,0,0,0,10,10,10,,,,,,,,,,,,,,,,,,,,,,,,,,,,,,,,,387.5463279022864,None,None,1,387.5463279022864,None,,,,,,,,,,,,,,,,,,,,,,,,,,,,,,,,,,,,,,,,,,,,,,juanP,001,a,2019_Oct_10_1347,Experimento,3.2.3,59.932124592127224,
8,14,14,999,0.5,0:10,3,Cyan,['space'],0,0,1,15:50,./completed_changuitos/montage_htmhs_213.29_189.6.jpg,left,0,0,0,0,,,,,0,7,7,7,,,,,,,,,0,0,0,0,0,11,11,11,,,,,,,,,,,,,,,,,,,,,,,,,,,,,,,,,387.5629919365863,None,None,0,387.5629919365863,None,,,,,,,,,,,,,,,,,,,,,,,,,,,,,,,,,,,,,,,,,,,,,,juanP,001,a,2019_Oct_10_1347,Experimento,3.2.3,59.932124592127224,
8,14,14,999,0.5,0:10,3,Magenta,None,0,0,1,15:50,./completed_changuitos/montage_htmhs_213.29_189.6.jpg,left,0,0,0,0,,,,,0,7,7,7,,,,,,,,,0,0,0,0,0,12,12,12,,,,,,,,,,,,,,,,,,,,,,,,,,,,,,,,,387.5629919365863,None,None,1,387.5629919365863,None,,,,,,,,,,,,,,,,,,,,,,,,,,,,,,,,,,,,,,,,,,,,,,juanP,001,a,2019_Oct_10_1347,Experimento,3.2.3,59.932124592127224,
8,14,14,999,0.5,0:10,3,Red,None,0,0,1,15:50,./completed_changuitos/montage_htmhs_213.29_189.6.jpg,left,0,0,0,0,,,,,0,7,7,7,,,,,,,,,0,0,0,0,0,13,13,13,,,,,,,,,,,,,,,,,,,,,,,,,,,,,,,,,387.5629919365863,None,None,1,387.5629919365863,None,,,,,,,,,,,,,,,,,,,,,,,,,,,,,,,,,,,,,,,,,,,,,,juanP,001,a,2019_Oct_10_1347,Experimento,3.2.3,59.932124592127224,
8,14,14,999,0.5,0:10,3,Magenta,['space'],0,0,1,15:50,./completed_changuitos/montage_htmhs_213.29_189.6.jpg,left,0,0,0,0,,,,,0,7,7,7,,,,,,,,,0,0,0,0,0,14,14,14,,,,,,,,,,,,,,,,,,,,,,,,,,,,,,,,,387.5629919365863,None,None,0,387.5629919365863,None,,,,,,,,,,,,,,,,,,,,,,,,,,,,,,,,,,,,,,,,,,,,,,juanP,001,a,2019_Oct_10_1347,Experimento,3.2.3,59.932124592127224,
8,14,14,999,0.5,0:10,3,Green,None,0,0,1,15:50,./completed_changuitos/montage_htmhs_213.29_189.6.jpg,left,0,0,0,0,,,,,0,7,7,7,,,,,,,,,0,0,0,0,0,15,15,15,,,,,,,,,,,,,,,,,,,,,,,,,,,,,,,,,387.5629919365863,None,None,1,387.5629919365863,None,,,,,,,,,,,,,,,,,,,,,,,,,,,,,,,,,,,,,,,,,,,,,,juanP,001,a,2019_Oct_10_1347,Experimento,3.2.3,59.932124592127224,
8,14,14,999,0.5,0:10,3,Yellow,['space'],0,0,1,15:50,./completed_changuitos/montage_htmhs_213.29_189.6.jpg,left,0,0,0,0,,,,,0,7,7,7,,,,,,,,,0,0,0,0,0,16,16,16,,,,,,,,,,,,,,,,,,,,,,,,,,,,,,,,,387.5629919365863,None,None,0,387.5629919365863,None,,,,,,,,,,,,,,,,,,,,,,,,,,,,,,,,,,,,,,,,,,,,,,juanP,001,a,2019_Oct_10_1347,Experimento,3.2.3,59.932124592127224,
8,14,14,999,0.5,0:10,3,Blue,None,0,0,1,15:50,./completed_changuitos/montage_htmhs_213.29_189.6.jpg,left,0,0,0,0,,,,,0,7,7,7,,,,,,,,,0,0,0,0,0,17,17,17,,,,,,,,,,,,,,,,,,,,,,,,,,,,,,,,,387.5796559708862,None,None,1,387.5796559708862,None,,,,,,,,,,,,,,,,,,,,,,,,,,,,,,,,,,,,,,,,,,,,,,juanP,001,a,2019_Oct_10_1347,Experimento,3.2.3,59.932124592127224,
8,14,14,999,0.5,0:10,3,Cyan,None,0,0,1,15:50,./completed_changuitos/montage_htmhs_213.29_189.6.jpg,left,0,0,0,0,,,,,0,7,7,7,,,,,,,,,0,0,0,0,0,18,18,18,,,,,,,,,,,,,,,,,,,,,,,,,,,,,,,,,387.5796559708862,None,None,1,387.5796559708862,None,,,,,,,,,,,,,,,,,,,,,,,,,,,,,,,,,,,,,,,,,,,,,,juanP,001,a,2019_Oct_10_1347,Experimento,3.2.3,59.932124592127224,
8,14,14,999,0.5,0:10,3,Blue,['space'],0,0,1,15:50,./completed_changuitos/montage_htmhs_213.29_189.6.jpg,left,0,0,0,0,,,,,0,7,7,7,,,,,,,,,0,0,0,0,0,19,19,19,,,,,,,,,,,,,,,,,,,,,,,,,,,,,,,,,387.5796559708862,None,None,0,387.5796559708862,None,,,,,,,,,,,,,,,,,,,,,,,,,,,,,,,,,,,,,,,,,,,,,,juanP,001,a,2019_Oct_10_1347,Experimento,3.2.3,59.932124592127224,
8,14,14,999,0.5,0:10,3,Yellow,None,0,0,1,15:50,./completed_changuitos/montage_htmhs_213.29_189.6.jpg,left,0,0,0,0,,,,,0,7,7,7,,,,,,,,,0,0,0,0,0,20,20,20,,,,,,,,,,,,,,,,,,,,,,,,,,,,,,,,,387.5796559708862,None,None,1,387.5796559708862,None,,,,,,,,,,,,,,,,,,,,,,,,,,,,,,,,,,,,,,,,,,,,,,juanP,001,a,2019_Oct_10_1347,Experimento,3.2.3,59.932124592127224,
8,14,14,999,0.5,0:10,3,Cyan,None,0,0,1,15:50,./completed_changuitos/montage_htmhs_213.29_189.6.jpg,left,0,0,0,0,,,,,0,7,7,7,,,,,,,,,0,0,0,0,0,21,21,21,,,,,,,,,,,,,,,,,,,,,,,,,,,,,,,,,387.5796559708862,None,None,1,387.5796559708862,None,,,,,,,,,,,,,,,,,,,,,,,,,,,,,,,,,,,,,,,,,,,,,,juanP,001,a,2019_Oct_10_1347,Experimento,3.2.3,59.932124592127224,
8,14,14,999,0.5,0:10,3,Yellow,['space'],0,0,1,15:50,./completed_changuitos/montage_htmhs_213.29_189.6.jpg,left,0,0,0,0,,,,,0,7,7,7,,,,,,,,,0,0,0,0,0,22,22,22,,,,,,,,,,,,,,,,,,,,,,,,,,,,,,,,,387.5796559708862,None,None,0,387.5796559708862,None,,,,,,,,,,,,,,,,,,,,,,,,,,,,,,,,,,,,,,,,,,,,,,juanP,001,a,2019_Oct_10_1347,Experimento,3.2.3,59.932124592127224,
8,14,14,999,0.5,0:10,3,Magenta,None,0,0,1,15:50,./completed_changuitos/montage_htmhs_213.29_189.6.jpg,left,0,0,0,0,,,,,0,7,7,7,,,,,,,,,0,0,0,0,0,23,23,23,,,,,,,,,,,,,,,,,,,,,,,,,,,,,,,,,387.5796559708862,None,None,1,387.5796559708862,None,,,,,,,,,,,,,,,,,,,,,,,,,,,,,,,,,,,,,,,,,,,,,,juanP,001,a,2019_Oct_10_1347,Experimento,3.2.3,59.932124592127224,
8,14,14,999,0.5,0:10,3,Red,None,0,0,1,15:50,./completed_changuitos/montage_htmhs_213.29_189.6.jpg,left,0,0,0,0,,,,,0,7,7,7,,,,,,,,,0,0,0,0,0,24,24,24,,,,,,,,,,,,,,,,,,,,,,,,,,,,,,,,,387.5796559708862,None,None,1,387.5796559708862,None,,,,,,,,,,,,,,,,,,,,,,,,,,,,,,,,,,,,,,,,,,,,,,juanP,001,a,2019_Oct_10_1347,Experimento,3.2.3,59.932124592127224,
8,14,14,999,0.5,0:10,3,Magenta,['space'],0,0,1,15:50,./completed_changuitos/montage_htmhs_213.29_189.6.jpg,left,0,0,0,0,,,,,0,7,7,7,,,,,,,,,0,0,0,0,0,25,25,25,,,,,,,,,,,,,,,,,,,,,,,,,,,,,,,,,387.5796559708862,None,None,0,387.5796559708862,None,,,,,,,,,,,,,,,,,,,,,,,,,,,,,,,,,,,,,,,,,,,,,,juanP,001,a,2019_Oct_10_1347,Experimento,3.2.3,59.932124592127224,
8,14,14,999,0.5,0:10,3,Red,['space'],0,0,1,15:50,./completed_changuitos/montage_htmhs_213.29_189.6.jpg,left,0,0,0,0,,,,,0,7,7,7,,,,,,,,,0,0,0,0,0,26,26,26,,,,,,,,,,,,,,,,,,,,,,,,,,,,,,,,,387.5796559708862,None,None,0,387.5796559708862,None,,,,,,,,,,,,,,,,,,,,,,,,,,,,,,,,,,,,,,,,,,,,,,juanP,001,a,2019_Oct_10_1347,Experimento,3.2.3,59.932124592127224,
8,14,14,999,0.5,0:10,3,Yellow,None,0,0,1,15:50,./completed_changuitos/montage_htmhs_213.29_189.6.jpg,left,0,0,0,0,,,,,0,7,7,7,,,,,,,,,0,0,0,0,0,27,27,27,,,,,,,,,,,,,,,,,,,,,,,,,,,,,,,,,387.5796559708862,None,None,1,387.5796559708862,None,,,,,,,,,,,,,,,,,,,,,,,,,,,,,,,,,,,,,,,,,,,,,,juanP,001,a,2019_Oct_10_1347,Experimento,3.2.3,59.932124592127224,
8,14,14,999,0.5,0:10,3,Cyan,None,0,0,1,15:50,./completed_changuitos/montage_htmhs_213.29_189.6.jpg,left,0,0,0,0,,,,,0,7,7,7,,,,,,,,,0,0,0,0,0,28,28,28,,,,,,,,,,,,,,,,,,,,,,,,,,,,,,,,,387.5796559708862,None,None,1,387.5796559708862,None,,,,,,,,,,,,,,,,,,,,,,,,,,,,,,,,,,,,,,,,,,,,,,juanP,001,a,2019_Oct_10_1347,Experimento,3.2.3,59.932124592127224,
8,14,14,999,0.5,0:10,3,Green,None,0,0,1,15:50,./completed_changuitos/montage_htmhs_213.29_189.6.jpg,left,0,0,0,0,,,,,0,7,7,7,,,,,,,,,0,0,0,0,0,29,29,29,,,,,,,,,,,,,,,,,,,,,,,,,,,,,,,,,387.5796559708862,None,None,1,387.5796559708862,None,,,,,,,,,,,,,,,,,,,,,,,,,,,,,,,,,,,,,,,,,,,,,,juanP,001,a,2019_Oct_10_1347,Experimento,3.2.3,59.932124592127224,
8,14,14,999,0.5,0:10,3,White,None,0,0,1,15:50,./completed_changuitos/montage_htmhs_213.29_189.6.jpg,left,0,0,0,0,,,,,0,7,7,7,,,,,,,,,0,0,0,0,0,30,30,30,,,,,,,,,,,,,,,,,,,,,,,,,,,,,,,,,387.5963200051861,None,None,1,387.5963200051861,None,,,,,,,,,,,,,,,,,,,,,,,,,,,,,,,,,,,,,,,,,,,,,,juanP,001,a,2019_Oct_10_1347,Experimento,3.2.3,59.932124592127224,
8,14,14,999,0.5,0:10,3,Green,['space'],0,0,1,15:50,./completed_changuitos/montage_htmhs_213.29_189.6.jpg,left,0,0,0,0,,,,,0,7,7,7,,,,,,,,,0,0,0,0,0,31,31,31,,,,,,,,,,,,,,,,,,,,,,,,,,,,,,,,,387.5963200051861,None,None,0,387.5963200051861,None,,,,,,,,,,,,,,,,,,,,,,,,,,,,,,,,,,,,,,,,,,,,,,juanP,001,a,2019_Oct_10_1347,Experimento,3.2.3,59.932124592127224,
8,14,14,999,0.5,0:10,3,Red,None,0,0,1,15:50,./completed_changuitos/montage_htmhs_213.29_189.6.jpg,left,0,0,0,0,,,,,0,7,7,7,,,,,,,,,0,0,0,0,0,32,32,32,,,,,,,,,,,,,,,,,,,,,,,,,,,,,,,,,387.5963200051861,None,None,1,387.5963200051861,None,,,,,,,,,,,,,,,,,,,,,,,,,,,,,,,,,,,,,,,,,,,,,,juanP,001,a,2019_Oct_10_1347,Experimento,3.2.3,59.932124592127224,
8,14,14,999,0.5,0:10,3,Blue,None,0,0,1,15:50,./completed_changuitos/montage_htmhs_213.29_189.6.jpg,left,0,0,0,0,,,,,0,7,7,7,,,,,,,,,0,0,0,0,0,33,33,33,,,,,,,,,,,,,,,,,,,,,,,,,,,,,,,,,387.5963200051861,None,None,1,387.5963200051861,None,,,,,,,,,,,,,,,,,,,,,,,,,,,,,,,,,,,,,,,,,,,,,,juanP,001,a,2019_Oct_10_1347,Experimento,3.2.3,59.932124592127224,
8,14,14,999,0.5,0:10,3,Green,None,0,0,1,15:50,./completed_changuitos/montage_htmhs_213.29_189.6.jpg,left,0,0,0,0,,,,,0,7,7,7,,,,,,,,,0,0,0,0,0,34,34,34,,,,,,,,,,,,,,,,,,,,,,,,,,,,,,,,,387.5963200051861,None,None,1,387.5963200051861,None,,,,,,,,,,,,,,,,,,,,,,,,,,,,,,,,,,,,,,,,,,,,,,juanP,001,a,2019_Oct_10_1347,Experimento,3.2.3,59.932124592127224,
8,14,14,999,0.5,0:10,3,,,0,0,1,15:50,./completed_changuitos/montage_htmhs_213.29_189.6.jpg,left,0,0,0,0,,,,,0,7,7,7,,,,,,,,,0,0,0,0,,,,,,,,,,,,,,,,,,,,,,,,,,,,,,,,,,,,,,,,,,,387.6277247239923,None,right,0,0.850556556993979,387.6277247239923,None,387.6277247239923,None,,,,,,,,,,,,,,,,,,,,,,,,,,,,,,,,,,,,,juanP,001,a,2019_Oct_10_1347,Experimento,3.2.3,59.932124592127224,
8,14,14,999,0.5,0:10,3,,,0,0,1,15:50,,,0,0,0,0,,,,,0,7,7,7,,,,,,,,,,,,,,,,,,,,,,,,,,,,,,,,,,,,,,,,,,,,,,,,,,,,,,,,,,,,,,,,,,,,,,,,,,,,,,,,,,,,,,,,,,,,,,,,,,,,juanP,001,a,2019_Oct_10_1347,Experimento,3.2.3,59.932124592127224,
8,14,14,999,0.5,0:10,3,,,0,1,0,19:50,./completed_changuitos/montage_opoko_67.4_57.79.jpg,left,0,0,0,0,,,,,0,8,8,8,,,,,0,0,0,0,,,,,,,,,,,,,,,,,,,,,,388.6882434769941,392.0281131899974,392.0281131899974,400.041683849995,400.041683849995,414.0539301069948,left,1,0.6170279040088644,414.0539301069948,None,414.0539301069948,None,414.0539301069948,None,,,,,,,,,,,,,,,,,,,,,,,,,,,,,,,,,,,,,,,,,,,,,,,,,,,,,,,,juanP,001,a,2019_Oct_10_1347,Experimento,3.2.3,59.932124592127224,
8,14,14,999,0.5,0:10,3,,,0,1,0,19:50,,,0,0,0,0,,,,,0,8,8,8,,,,,,,,,,,,,,,,,,,,,,,,,,,,,,,,,,,,,,,,,,,,,,,,,,,,,,,,,,,,,,,,,,,,,,,,,,,,,,,,,,,,,,,,,,,,,,,,,,,,juanP,001,a,2019_Oct_10_1347,Experimento,3.2.3,59.932124592127224,
8,14,14,999,0.5,0:10,3,Magenta,None,0,0,1,20:50,./completed_changuitos/montage_sdwtw_314.59_369.0.jpg,right,0,0,0,0,,,,,0,9,9,9,,,,,,,,,0,0,0,0,0,0,0,0,,,,,,,,,,,,,,,,,,,,,,,,,,,,,414.80511367898725,419.10222310399695,419.10222310399695,None,427.14395679299196,427.6493378999876,None,1,427.14395679299196,None,,,,,,,,,,,,,,,,,,,,,,,,,,,,,,,,,,,,,,,,,,,,,,juanP,001,a,2019_Oct_10_1347,Experimento,3.2.3,59.932124592127224,
8,14,14,999,0.5,0:10,3,Blue,['space'],0,0,1,20:50,./completed_changuitos/montage_sdwtw_314.59_369.0.jpg,right,0,0,0,0,,,,,0,9,9,9,,,,,,,,,0,0,0,0,0,1,1,1,,,,,,,,,,,,,,,,,,,,,,,,,,,,,,,,,429.1487087239948,429.6486098299938,None,0,429.1487087239948,429.1487087239948,,,,,,,,,,,,,,,,,,,,,,,,,,,,,,,,,,,,,,,,,,,,,,juanP,001,a,2019_Oct_10_1347,Experimento,3.2.3,59.932124592127224,
8,14,14,999,0.5,0:10,3,Cyan,None,0,0,1,20:50,./completed_changuitos/montage_sdwtw_314.59_369.0.jpg,right,0,0,0,0,,,,,0,9,9,9,,,,,,,,,0,0,0,0,0,2,2,2,,,,,,,,,,,,,,,,,,,,,,,,,,,,,,,,,431.1480359549896,431.6475917839998,None,1,431.1480359549896,431.1480359549896,,,,,,,,,,,,,,,,,,,,,,,,,,,,,,,,,,,,,,,,,,,,,,juanP,001,a,2019_Oct_10_1347,Experimento,3.2.3,59.932124592127224,
8,14,14,999,0.5,0:10,3,Yellow,None,0,0,1,20:50,./completed_changuitos/montage_sdwtw_314.59_369.0.jpg,right,0,0,0,0,,,,,0,9,9,9,,,,,,,,,0,0,0,0,0,3,3,3,,,,,,,,,,,,,,,,,,,,,,,,,,,,,,,,,433.14735985199513,433.6472233199893,None,1,433.14735985199513,433.14735985199513,,,,,,,,,,,,,,,,,,,,,,,,,,,,,,,,,,,,,,,,,,,,,,juanP,001,a,2019_Oct_10_1347,Experimento,3.2.3,59.932124592127224,
8,14,14,999,0.5,0:10,3,Cyan,None,0,0,1,20:50,./completed_changuitos/montage_sdwtw_314.59_369.0.jpg,right,0,0,0,0,,,,,0,9,9,9,,,,,,,,,0,0,0,0,0,4,4,4,,,,,,,,,,,,,,,,,,,,,,,,,,,,,,,,,435.146737957999,435.6465422809997,['return'],0,435.146737957999,435.146737957999,,,,,,,,,,[0.6670809750066837],,,,,,,,,,,,,,,,,,,,,,,,,,,,,,,,,,,,juanP,001,a,2019_Oct_10_1347,Experimento,3.2.3,59.932124592127224,
8,14,14,999,0.5,0:10,3,Blue,None,0,0,1,20:50,./completed_changuitos/montage_sdwtw_314.59_369.0.jpg,right,0,0,0,0,,,,,0,9,9,9,,,,,,,,,0,0,0,0,0,5,5,5,,,,,,,,,,,,,,,,,,,,,,,,,,,,,,,,,437.16231336699275,437.6628873599984,None,1,437.16231336699275,437.16231336699275,,,,,,,,,,,,,,,,,,,,,,,,,,,,,,,,,,,,,,,,,,,,,,juanP,001,a,2019_Oct_10_1347,Experimento,3.2.3,59.932124592127224,
8,14,14,999,0.5,0:10,3,Cyan,['space'],0,0,1,20:50,./completed_changuitos/montage_sdwtw_314.59_369.0.jpg,right,0,0,0,0,,,,,0,9,9,9,,,,,,,,,0,0,0,0,0,6,6,6,,,,,,,,,,,,,,,,,,,,,,,,,,,,,,,,,439.16194576099224,439.6618578849884,['return'],0,439.16194576099224,439.16194576099224,,,,,,,,,,[1.4336059119959828],,,,,,,,,,,,,,,,,,,,,,,,,,,,,,,,,,,,juanP,001,a,2019_Oct_10_1347,Experimento,3.2.3,59.932124592127224,
8,14,14,999,0.5,0:10,3,Magenta,None,0,0,1,20:50,./completed_changuitos/montage_sdwtw_314.59_369.0.jpg,right,0,0,0,0,,,,,0,9,9,9,,,,,,,,,0,0,0,0,0,7,7,7,,,,,,,,,,,,,,,,,,,,,,,,,,,,,,,,,441.12797896129484,None,None,1,441.12797896129484,None,,,,,,,,,,,,,,,,,,,,,,,,,,,,,,,,,,,,,,,,,,,,,,juanP,001,a,2019_Oct_10_1347,Experimento,3.2.3,59.932124592127224,
8,14,14,999,0.5,0:10,3,Red,None,0,0,1,20:50,./completed_changuitos/montage_sdwtw_314.59_369.0.jpg,right,0,0,0,0,,,,,0,9,9,9,,,,,,,,,0,0,0,0,0,8,8,8,,,,,,,,,,,,,,,,,,,,,,,,,,,,,,,,,441.12797896129484,None,None,1,441.12797896129484,None,,,,,,,,,,,,,,,,,,,,,,,,,,,,,,,,,,,,,,,,,,,,,,juanP,001,a,2019_Oct_10_1347,Experimento,3.2.3,59.932124592127224,
8,14,14,999,0.5,0:10,3,Magenta,['space'],0,0,1,20:50,./completed_changuitos/montage_sdwtw_314.59_369.0.jpg,right,0,0,0,0,,,,,0,9,9,9,,,,,,,,,0,0,0,0,0,9,9,9,,,,,,,,,,,,,,,,,,,,,,,,,,,,,,,,,441.12797896129484,None,None,0,441.12797896129484,None,,,,,,,,,,,,,,,,,,,,,,,,,,,,,,,,,,,,,,,,,,,,,,juanP,001,a,2019_Oct_10_1347,Experimento,3.2.3,59.932124592127224,
8,14,14,999,0.5,0:10,3,Green,None,0,0,1,20:50,./completed_changuitos/montage_sdwtw_314.59_369.0.jpg,right,0,0,0,0,,,,,0,9,9,9,,,,,,,,,0,0,0,0,0,10,10,10,,,,,,,,,,,,,,,,,,,,,,,,,,,,,,,,,441.12797896129484,None,None,1,441.12797896129484,None,,,,,,,,,,,,,,,,,,,,,,,,,,,,,,,,,,,,,,,,,,,,,,juanP,001,a,2019_Oct_10_1347,Experimento,3.2.3,59.932124592127224,
8,14,14,999,0.5,0:10,3,Yellow,['space'],0,0,1,20:50,./completed_changuitos/montage_sdwtw_314.59_369.0.jpg,right,0,0,0,0,,,,,0,9,9,9,,,,,,,,,0,0,0,0,0,11,11,11,,,,,,,,,,,,,,,,,,,,,,,,,,,,,,,,,441.1446429955947,None,None,0,441.1446429955947,None,,,,,,,,,,,,,,,,,,,,,,,,,,,,,,,,,,,,,,,,,,,,,,juanP,001,a,2019_Oct_10_1347,Experimento,3.2.3,59.932124592127224,
8,14,14,999,0.5,0:10,3,Blue,None,0,0,1,20:50,./completed_changuitos/montage_sdwtw_314.59_369.0.jpg,right,0,0,0,0,,,,,0,9,9,9,,,,,,,,,0,0,0,0,0,12,12,12,,,,,,,,,,,,,,,,,,,,,,,,,,,,,,,,,441.1446429955947,None,None,1,441.1446429955947,None,,,,,,,,,,,,,,,,,,,,,,,,,,,,,,,,,,,,,,,,,,,,,,juanP,001,a,2019_Oct_10_1347,Experimento,3.2.3,59.932124592127224,
8,14,14,999,0.5,0:10,3,Cyan,None,0,0,1,20:50,./completed_changuitos/montage_sdwtw_314.59_369.0.jpg,right,0,0,0,0,,,,,0,9,9,9,,,,,,,,,0,0,0,0,0,13,13,13,,,,,,,,,,,,,,,,,,,,,,,,,,,,,,,,,441.1446429955947,None,None,1,441.1446429955947,None,,,,,,,,,,,,,,,,,,,,,,,,,,,,,,,,,,,,,,,,,,,,,,juanP,001,a,2019_Oct_10_1347,Experimento,3.2.3,59.932124592127224,
8,14,14,999,0.5,0:10,3,Blue,['space'],0,0,1,20:50,./completed_changuitos/montage_sdwtw_314.59_369.0.jpg,right,0,0,0,0,,,,,0,9,9,9,,,,,,,,,0,0,0,0,0,14,14,14,,,,,,,,,,,,,,,,,,,,,,,,,,,,,,,,,441.1446429955947,None,None,0,441.1446429955947,None,,,,,,,,,,,,,,,,,,,,,,,,,,,,,,,,,,,,,,,,,,,,,,juanP,001,a,2019_Oct_10_1347,Experimento,3.2.3,59.932124592127224,
8,14,14,999,0.5,0:10,3,Yellow,None,0,0,1,20:50,./completed_changuitos/montage_sdwtw_314.59_369.0.jpg,right,0,0,0,0,,,,,0,9,9,9,,,,,,,,,0,0,0,0,0,15,15,15,,,,,,,,,,,,,,,,,,,,,,,,,,,,,,,,,441.1446429955947,None,None,1,441.1446429955947,None,,,,,,,,,,,,,,,,,,,,,,,,,,,,,,,,,,,,,,,,,,,,,,juanP,001,a,2019_Oct_10_1347,Experimento,3.2.3,59.932124592127224,
8,14,14,999,0.5,0:10,3,Cyan,None,0,0,1,20:50,./completed_changuitos/montage_sdwtw_314.59_369.0.jpg,right,0,0,0,0,,,,,0,9,9,9,,,,,,,,,0,0,0,0,0,16,16,16,,,,,,,,,,,,,,,,,,,,,,,,,,,,,,,,,441.1446429955947,None,None,1,441.1446429955947,None,,,,,,,,,,,,,,,,,,,,,,,,,,,,,,,,,,,,,,,,,,,,,,juanP,001,a,2019_Oct_10_1347,Experimento,3.2.3,59.932124592127224,
8,14,14,999,0.5,0:10,3,Yellow,['space'],0,0,1,20:50,./completed_changuitos/montage_sdwtw_314.59_369.0.jpg,right,0,0,0,0,,,,,0,9,9,9,,,,,,,,,0,0,0,0,0,17,17,17,,,,,,,,,,,,,,,,,,,,,,,,,,,,,,,,,441.1446429955947,None,None,0,441.1446429955947,None,,,,,,,,,,,,,,,,,,,,,,,,,,,,,,,,,,,,,,,,,,,,,,juanP,001,a,2019_Oct_10_1347,Experimento,3.2.3,59.932124592127224,
8,14,14,999,0.5,0:10,3,Magenta,None,0,0,1,20:50,./completed_changuitos/montage_sdwtw_314.59_369.0.jpg,right,0,0,0,0,,,,,0,9,9,9,,,,,,,,,0,0,0,0,0,18,18,18,,,,,,,,,,,,,,,,,,,,,,,,,,,,,,,,,441.1446429955947,None,None,1,441.1446429955947,None,,,,,,,,,,,,,,,,,,,,,,,,,,,,,,,,,,,,,,,,,,,,,,juanP,001,a,2019_Oct_10_1347,Experimento,3.2.3,59.932124592127224,
8,14,14,999,0.5,0:10,3,Red,None,0,0,1,20:50,./completed_changuitos/montage_sdwtw_314.59_369.0.jpg,right,0,0,0,0,,,,,0,9,9,9,,,,,,,,,0,0,0,0,0,19,19,19,,,,,,,,,,,,,,,,,,,,,,,,,,,,,,,,,441.1446429955947,None,None,1,441.1446429955947,None,,,,,,,,,,,,,,,,,,,,,,,,,,,,,,,,,,,,,,,,,,,,,,juanP,001,a,2019_Oct_10_1347,Experimento,3.2.3,59.932124592127224,
8,14,14,999,0.5,0:10,3,Magenta,['space'],0,0,1,20:50,./completed_changuitos/montage_sdwtw_314.59_369.0.jpg,right,0,0,0,0,,,,,0,9,9,9,,,,,,,,,0,0,0,0,0,20,20,20,,,,,,,,,,,,,,,,,,,,,,,,,,,,,,,,,441.16130702989466,None,None,0,441.16130702989466,None,,,,,,,,,,,,,,,,,,,,,,,,,,,,,,,,,,,,,,,,,,,,,,juanP,001,a,2019_Oct_10_1347,Experimento,3.2.3,59.932124592127224,
8,14,14,999,0.5,0:10,3,Red,['space'],0,0,1,20:50,./completed_changuitos/montage_sdwtw_314.59_369.0.jpg,right,0,0,0,0,,,,,0,9,9,9,,,,,,,,,0,0,0,0,0,21,21,21,,,,,,,,,,,,,,,,,,,,,,,,,,,,,,,,,441.16130702989466,None,None,0,441.16130702989466,None,,,,,,,,,,,,,,,,,,,,,,,,,,,,,,,,,,,,,,,,,,,,,,juanP,001,a,2019_Oct_10_1347,Experimento,3.2.3,59.932124592127224,
8,14,14,999,0.5,0:10,3,Yellow,None,0,0,1,20:50,./completed_changuitos/montage_sdwtw_314.59_369.0.jpg,right,0,0,0,0,,,,,0,9,9,9,,,,,,,,,0,0,0,0,0,22,22,22,,,,,,,,,,,,,,,,,,,,,,,,,,,,,,,,,441.16130702989466,None,None,1,441.16130702989466,None,,,,,,,,,,,,,,,,,,,,,,,,,,,,,,,,,,,,,,,,,,,,,,juanP,001,a,2019_Oct_10_1347,Experimento,3.2.3,59.932124592127224,
8,14,14,999,0.5,0:10,3,Cyan,None,0,0,1,20:50,./completed_changuitos/montage_sdwtw_314.59_369.0.jpg,right,0,0,0,0,,,,,0,9,9,9,,,,,,,,,0,0,0,0,0,23,23,23,,,,,,,,,,,,,,,,,,,,,,,,,,,,,,,,,441.16130702989466,None,None,1,441.16130702989466,None,,,,,,,,,,,,,,,,,,,,,,,,,,,,,,,,,,,,,,,,,,,,,,juanP,001,a,2019_Oct_10_1347,Experimento,3.2.3,59.932124592127224,
8,14,14,999,0.5,0:10,3,Green,None,0,0,1,20:50,./completed_changuitos/montage_sdwtw_314.59_369.0.jpg,right,0,0,0,0,,,,,0,9,9,9,,,,,,,,,0,0,0,0,0,24,24,24,,,,,,,,,,,,,,,,,,,,,,,,,,,,,,,,,441.16130702989466,None,None,1,441.16130702989466,None,,,,,,,,,,,,,,,,,,,,,,,,,,,,,,,,,,,,,,,,,,,,,,juanP,001,a,2019_Oct_10_1347,Experimento,3.2.3,59.932124592127224,
8,14,14,999,0.5,0:10,3,White,None,0,0,1,20:50,./completed_changuitos/montage_sdwtw_314.59_369.0.jpg,right,0,0,0,0,,,,,0,9,9,9,,,,,,,,,0,0,0,0,0,25,25,25,,,,,,,,,,,,,,,,,,,,,,,,,,,,,,,,,441.16130702989466,None,None,1,441.16130702989466,None,,,,,,,,,,,,,,,,,,,,,,,,,,,,,,,,,,,,,,,,,,,,,,juanP,001,a,2019_Oct_10_1347,Experimento,3.2.3,59.932124592127224,
8,14,14,999,0.5,0:10,3,Green,['space'],0,0,1,20:50,./completed_changuitos/montage_sdwtw_314.59_369.0.jpg,right,0,0,0,0,,,,,0,9,9,9,,,,,,,,,0,0,0,0,0,26,26,26,,,,,,,,,,,,,,,,,,,,,,,,,,,,,,,,,441.16130702989466,None,None,0,441.16130702989466,None,,,,,,,,,,,,,,,,,,,,,,,,,,,,,,,,,,,,,,,,,,,,,,juanP,001,a,2019_Oct_10_1347,Experimento,3.2.3,59.932124592127224,
8,14,14,999,0.5,0:10,3,Red,None,0,0,1,20:50,./completed_changuitos/montage_sdwtw_314.59_369.0.jpg,right,0,0,0,0,,,,,0,9,9,9,,,,,,,,,0,0,0,0,0,27,27,27,,,,,,,,,,,,,,,,,,,,,,,,,,,,,,,,,441.16130702989466,None,None,1,441.16130702989466,None,,,,,,,,,,,,,,,,,,,,,,,,,,,,,,,,,,,,,,,,,,,,,,juanP,001,a,2019_Oct_10_1347,Experimento,3.2.3,59.932124592127224,
8,14,14,999,0.5,0:10,3,Blue,None,0,0,1,20:50,./completed_changuitos/montage_sdwtw_314.59_369.0.jpg,right,0,0,0,0,,,,,0,9,9,9,,,,,,,,,0,0,0,0,0,28,28,28,,,,,,,,,,,,,,,,,,,,,,,,,,,,,,,,,441.16130702989466,None,None,1,441.16130702989466,None,,,,,,,,,,,,,,,,,,,,,,,,,,,,,,,,,,,,,,,,,,,,,,juanP,001,a,2019_Oct_10_1347,Experimento,3.2.3,59.932124592127224,
8,14,14,999,0.5,0:10,3,Green,None,0,0,1,20:50,./completed_changuitos/montage_sdwtw_314.59_369.0.jpg,right,0,0,0,0,,,,,0,9,9,9,,,,,,,,,0,0,0,0,0,29,29,29,,,,,,,,,,,,,,,,,,,,,,,,,,,,,,,,,441.16130702989466,None,None,1,441.16130702989466,None,,,,,,,,,,,,,,,,,,,,,,,,,,,,,,,,,,,,,,,,,,,,,,juanP,001,a,2019_Oct_10_1347,Experimento,3.2.3,59.932124592127224,
8,14,14,999,0.5,0:10,3,,,0,0,1,20:50,./completed_changuitos/montage_sdwtw_314.59_369.0.jpg,right,0,0,0,0,,,,,0,9,9,9,,,,,,,,,0,0,0,0,,,,,,,,,,,,,,,,,,,,,,,,,,,,,,,,,,,,,,,,,,,441.1993386289978,None,right,1,0.9777209690073505,441.1993386289978,None,441.1993386289978,None,,,,,,,,,,,,,,,,,,,,,,,,,,,,,,,,,,,,,juanP,001,a,2019_Oct_10_1347,Experimento,3.2.3,59.932124592127224,
8,14,14,999,0.5,0:10,3,,,0,0,1,20:50,,,0,0,0,0,,,,,0,9,9,9,,,,,,,,,,,,,,,,,,,,,,,,,,,,,,,,,,,,,,,,,,,,,,,,,,,,,,,,,,,,,,,,,,,,,,,,,,,,,,,,,,,,,,,,,,,,,,,,,,,,juanP,001,a,2019_Oct_10_1347,Experimento,3.2.3,59.932124592127224,
8,14,14,999,0.5,0:10,3,,,0,1,0,25:50,./completed_changuitos/montage_djmfo_45.9_40.65.jpg,left,0,0,0,0,,,,,0,10,10,10,,,,,0,0,0,0,,,,,,,,,,,,,,,,,,,,,,442.3286260529858,447.29256308599724,447.29256308599724,455.3064861079911,455.3064861079911,469.3183592129935,right,0,0.7163534940045793,469.3183592129935,None,469.3183592129935,None,469.3183592129935,None,,,,,,,,,,,,,,,,,,,,,,,,,,,,,,,,,,,,,,,,,,,,,,,,,,,,,,,,juanP,001,a,2019_Oct_10_1347,Experimento,3.2.3,59.932124592127224,
8,14,14,999,0.5,0:10,3,,,0,1,0,25:50,,,0,0,0,0,,,,,0,10,10,10,,,,,,,,,,,,,,,,,,,,,,,,,,,,,,,,,,,,,,,,,,,,,,,,,,,,,,,,,,,,,,,,,,,,,,,,,,,,,,,,,,,,,,,,,,,,,,,,,,,,juanP,001,a,2019_Oct_10_1347,Experimento,3.2.3,59.932124592127224,
8,14,14,999,0.5,0:10,3,Red,None,0,0,1,28:50,./completed_changuitos/montage_mfodz_80.05_69.0.jpg,left,0,0,0,0,,,,,0,11,11,11,,,,,,,,,0,0,0,0,0,0,0,0,,,,,,,,,,,,,,,,,,,,,,,,,,,,,470.15987711498747,471.8176297399914,471.8176297399914,None,479.85907093698916,480.3644658479898,None,1,479.85907093698916,None,,,,,,,,,,,,,,,,,,,,,,,,,,,,,,,,,,,,,,,,,,,,,,juanP,001,a,2019_Oct_10_1347,Experimento,3.2.3,59.932124592127224,
8,14,14,999,0.5,0:10,3,Magenta,['space'],0,0,1,28:50,./completed_changuitos/montage_mfodz_80.05_69.0.jpg,left,0,0,0,0,,,,,0,11,11,11,,,,,,,,,0,0,0,0,0,1,1,1,,,,,,,,,,,,,,,,,,,,,,,,,,,,,,,,,481.8639538599964,482.36390534798556,None,0,481.8639538599964,481.8639538599964,,,,,,,,,,,,,,,,,,,,,,,,,,,,,,,,,,,,,,,,,,,,,,juanP,001,a,2019_Oct_10_1347,Experimento,3.2.3,59.932124592127224,
8,14,14,999,0.5,0:10,3,Green,None,0,0,1,28:50,./completed_changuitos/montage_mfodz_80.05_69.0.jpg,left,0,0,0,0,,,,,0,11,11,11,,,,,,,,,0,0,0,0,0,2,2,2,,,,,,,,,,,,,,,,,,,,,,,,,,,,,,,,,483.86337384999206,484.3632213809906,None,1,483.86337384999206,483.86337384999206,,,,,,,,,,,,,,,,,,,,,,,,,,,,,,,,,,,,,,,,,,,,,,juanP,001,a,2019_Oct_10_1347,Experimento,3.2.3,59.932124592127224,
8,14,14,999,0.5,0:10,3,Yellow,['space'],0,0,1,28:50,./completed_changuitos/montage_mfodz_80.05_69.0.jpg,left,0,0,0,0,,,,,0,11,11,11,,,,,,,,,0,0,0,0,0,3,3,3,,,,,,,,,,,,,,,,,,,,,,,,,,,,,,,,,485.86265906499466,486.3625989819993,None,0,485.86265906499466,485.86265906499466,,,,,,,,,,,,,,,,,,,,,,,,,,,,,,,,,,,,,,,,,,,,,,juanP,001,a,2019_Oct_10_1347,Experimento,3.2.3,59.932124592127224,
8,14,14,999,0.5,0:10,3,Blue,None,0,0,1,28:50,./completed_changuitos/montage_mfodz_80.05_69.0.jpg,left,0,0,0,0,,,,,0,11,11,11,,,,,,,,,0,0,0,0,0,4,4,4,,,,,,,,,,,,,,,,,,,,,,,,,,,,,,,,,487.8620416439953,488.36146278399974,None,1,487.8620416439953,487.8620416439953,,,,,,,,,,,,,,,,,,,,,,,,,,,,,,,,,,,,,,,,,,,,,,juanP,001,a,2019_Oct_10_1347,Experimento,3.2.3,59.932124592127224,
8,14,14,999,0.5,0:10,3,Cyan,None,0,0,1,28:50,./completed_changuitos/montage_mfodz_80.05_69.0.jpg,left,0,0,0,0,,,,,0,11,11,11,,,,,,,,,0,0,0,0,0,5,5,5,,,,,,,,,,,,,,,,,,,,,,,,,,,,,,,,,489.8611705739895,490.3611814209871,None,1,489.8611705739895,489.8611705739895,,,,,,,,,,,,,,,,,,,,,,,,,,,,,,,,,,,,,,,,,,,,,,juanP,001,a,2019_Oct_10_1347,Experimento,3.2.3,59.932124592127224,
8,14,14,999,0.5,0:10,3,Blue,['space'],0,0,1,28:50,./completed_changuitos/montage_mfodz_80.05_69.0.jpg,left,0,0,0,0,,,,,0,11,11,11,,,,,,,,,0,0,0,0,0,6,6,6,,,,,,,,,,,,,,,,,,,,,,,,,,,,,,,,,491.86060950199317,492.3604916859913,['return'],0,491.86060950199317,491.86060950199317,,,,,,,,,,[0.7337711559957825],,,,,,,,,,,,,,,,,,,,,,,,,,,,,,,,,,,,juanP,001,a,2019_Oct_10_1347,Experimento,3.2.3,59.932124592127224,
8,14,14,999,0.5,0:10,3,Yellow,None,0,0,1,28:50,./completed_changuitos/montage_mfodz_80.05_69.0.jpg,left,0,0,0,0,,,,,0,11,11,11,,,,,,,,,0,0,0,0,0,7,7,7,,,,,,,,,,,,,,,,,,,,,,,,,,,,,,,,,493.8433033492969,None,None,1,493.8433033492969,None,,,,,,,,,,,,,,,,,,,,,,,,,,,,,,,,,,,,,,,,,,,,,,juanP,001,a,2019_Oct_10_1347,Experimento,3.2.3,59.932124592127224,
8,14,14,999,0.5,0:10,3,Cyan,None,0,0,1,28:50,./completed_changuitos/montage_mfodz_80.05_69.0.jpg,left,0,0,0,0,,,,,0,11,11,11,,,,,,,,,0,0,0,0,0,8,8,8,,,,,,,,,,,,,,,,,,,,,,,,,,,,,,,,,493.8433033492969,None,None,1,493.8433033492969,None,,,,,,,,,,,,,,,,,,,,,,,,,,,,,,,,,,,,,,,,,,,,,,juanP,001,a,2019_Oct_10_1347,Experimento,3.2.3,59.932124592127224,
8,14,14,999,0.5,0:10,3,Yellow,['space'],0,0,1,28:50,./completed_changuitos/montage_mfodz_80.05_69.0.jpg,left,0,0,0,0,,,,,0,11,11,11,,,,,,,,,0,0,0,0,0,9,9,9,,,,,,,,,,,,,,,,,,,,,,,,,,,,,,,,,493.8433033492969,None,None,0,493.8433033492969,None,,,,,,,,,,,,,,,,,,,,,,,,,,,,,,,,,,,,,,,,,,,,,,juanP,001,a,2019_Oct_10_1347,Experimento,3.2.3,59.932124592127224,
8,14,14,999,0.5,0:10,3,Magenta,None,0,0,1,28:50,./completed_changuitos/montage_mfodz_80.05_69.0.jpg,left,0,0,0,0,,,,,0,11,11,11,,,,,,,,,0,0,0,0,0,10,10,10,,,,,,,,,,,,,,,,,,,,,,,,,,,,,,,,,493.8433033492969,None,None,1,493.8433033492969,None,,,,,,,,,,,,,,,,,,,,,,,,,,,,,,,,,,,,,,,,,,,,,,juanP,001,a,2019_Oct_10_1347,Experimento,3.2.3,59.932124592127224,
8,14,14,999,0.5,0:10,3,Red,None,0,0,1,28:50,./completed_changuitos/montage_mfodz_80.05_69.0.jpg,left,0,0,0,0,,,,,0,11,11,11,,,,,,,,,0,0,0,0,0,11,11,11,,,,,,,,,,,,,,,,,,,,,,,,,,,,,,,,,493.85996738359677,None,None,1,493.85996738359677,None,,,,,,,,,,,,,,,,,,,,,,,,,,,,,,,,,,,,,,,,,,,,,,juanP,001,a,2019_Oct_10_1347,Experimento,3.2.3,59.932124592127224,
8,14,14,999,0.5,0:10,3,Magenta,['space'],0,0,1,28:50,./completed_changuitos/montage_mfodz_80.05_69.0.jpg,left,0,0,0,0,,,,,0,11,11,11,,,,,,,,,0,0,0,0,0,12,12,12,,,,,,,,,,,,,,,,,,,,,,,,,,,,,,,,,493.85996738359677,None,None,0,493.85996738359677,None,,,,,,,,,,,,,,,,,,,,,,,,,,,,,,,,,,,,,,,,,,,,,,juanP,001,a,2019_Oct_10_1347,Experimento,3.2.3,59.932124592127224,
8,14,14,999,0.5,0:10,3,Red,['space'],0,0,1,28:50,./completed_changuitos/montage_mfodz_80.05_69.0.jpg,left,0,0,0,0,,,,,0,11,11,11,,,,,,,,,0,0,0,0,0,13,13,13,,,,,,,,,,,,,,,,,,,,,,,,,,,,,,,,,493.85996738359677,None,None,0,493.85996738359677,None,,,,,,,,,,,,,,,,,,,,,,,,,,,,,,,,,,,,,,,,,,,,,,juanP,001,a,2019_Oct_10_1347,Experimento,3.2.3,59.932124592127224,
8,14,14,999,0.5,0:10,3,Yellow,None,0,0,1,28:50,./completed_changuitos/montage_mfodz_80.05_69.0.jpg,left,0,0,0,0,,,,,0,11,11,11,,,,,,,,,0,0,0,0,0,14,14,14,,,,,,,,,,,,,,,,,,,,,,,,,,,,,,,,,493.85996738359677,None,None,1,493.85996738359677,None,,,,,,,,,,,,,,,,,,,,,,,,,,,,,,,,,,,,,,,,,,,,,,juanP,001,a,2019_Oct_10_1347,Experimento,3.2.3,59.932124592127224,
8,14,14,999,0.5,0:10,3,Cyan,None,0,0,1,28:50,./completed_changuitos/montage_mfodz_80.05_69.0.jpg,left,0,0,0,0,,,,,0,11,11,11,,,,,,,,,0,0,0,0,0,15,15,15,,,,,,,,,,,,,,,,,,,,,,,,,,,,,,,,,493.85996738359677,None,None,1,493.85996738359677,None,,,,,,,,,,,,,,,,,,,,,,,,,,,,,,,,,,,,,,,,,,,,,,juanP,001,a,2019_Oct_10_1347,Experimento,3.2.3,59.932124592127224,
8,14,14,999,0.5,0:10,3,Green,None,0,0,1,28:50,./completed_changuitos/montage_mfodz_80.05_69.0.jpg,left,0,0,0,0,,,,,0,11,11,11,,,,,,,,,0,0,0,0,0,16,16,16,,,,,,,,,,,,,,,,,,,,,,,,,,,,,,,,,493.8766314178967,None,None,1,493.8766314178967,None,,,,,,,,,,,,,,,,,,,,,,,,,,,,,,,,,,,,,,,,,,,,,,juanP,001,a,2019_Oct_10_1347,Experimento,3.2.3,59.932124592127224,
8,14,14,999,0.5,0:10,3,White,None,0,0,1,28:50,./completed_changuitos/montage_mfodz_80.05_69.0.jpg,left,0,0,0,0,,,,,0,11,11,11,,,,,,,,,0,0,0,0,0,17,17,17,,,,,,,,,,,,,,,,,,,,,,,,,,,,,,,,,493.8766314178967,None,None,1,493.8766314178967,None,,,,,,,,,,,,,,,,,,,,,,,,,,,,,,,,,,,,,,,,,,,,,,juanP,001,a,2019_Oct_10_1347,Experimento,3.2.3,59.932124592127224,
8,14,14,999,0.5,0:10,3,Green,['space'],0,0,1,28:50,./completed_changuitos/montage_mfodz_80.05_69.0.jpg,left,0,0,0,0,,,,,0,11,11,11,,,,,,,,,0,0,0,0,0,18,18,18,,,,,,,,,,,,,,,,,,,,,,,,,,,,,,,,,493.8766314178967,None,None,0,493.8766314178967,None,,,,,,,,,,,,,,,,,,,,,,,,,,,,,,,,,,,,,,,,,,,,,,juanP,001,a,2019_Oct_10_1347,Experimento,3.2.3,59.932124592127224,
8,14,14,999,0.5,0:10,3,Red,None,0,0,1,28:50,./completed_changuitos/montage_mfodz_80.05_69.0.jpg,left,0,0,0,0,,,,,0,11,11,11,,,,,,,,,0,0,0,0,0,19,19,19,,,,,,,,,,,,,,,,,,,,,,,,,,,,,,,,,493.8766314178967,None,None,1,493.8766314178967,None,,,,,,,,,,,,,,,,,,,,,,,,,,,,,,,,,,,,,,,,,,,,,,juanP,001,a,2019_Oct_10_1347,Experimento,3.2.3,59.932124592127224,
8,14,14,999,0.5,0:10,3,Blue,None,0,0,1,28:50,./completed_changuitos/montage_mfodz_80.05_69.0.jpg,left,0,0,0,0,,,,,0,11,11,11,,,,,,,,,0,0,0,0,0,20,20,20,,,,,,,,,,,,,,,,,,,,,,,,,,,,,,,,,493.8766314178967,None,None,1,493.8766314178967,None,,,,,,,,,,,,,,,,,,,,,,,,,,,,,,,,,,,,,,,,,,,,,,juanP,001,a,2019_Oct_10_1347,Experimento,3.2.3,59.932124592127224,
8,14,14,999,0.5,0:10,3,Green,None,0,0,1,28:50,./completed_changuitos/montage_mfodz_80.05_69.0.jpg,left,0,0,0,0,,,,,0,11,11,11,,,,,,,,,0,0,0,0,0,21,21,21,,,,,,,,,,,,,,,,,,,,,,,,,,,,,,,,,493.8766314178967,None,None,1,493.8766314178967,None,,,,,,,,,,,,,,,,,,,,,,,,,,,,,,,,,,,,,,,,,,,,,,juanP,001,a,2019_Oct_10_1347,Experimento,3.2.3,59.932124592127224,
8,14,14,999,0.5,0:10,3,,,0,0,1,28:50,./completed_changuitos/montage_mfodz_80.05_69.0.jpg,left,0,0,0,0,,,,,0,11,11,11,,,,,,,,,0,0,0,0,,,,,,,,,,,,,,,,,,,,,,,,,,,,,,,,,,,,,,,,,,,493.9168429449928,None,left,1,1.1097179899952607,493.9168429449928,None,493.9168429449928,None,,,,,,,,,,,,,,,,,,,,,,,,,,,,,,,,,,,,,juanP,001,a,2019_Oct_10_1347,Experimento,3.2.3,59.932124592127224,
8,14,14,999,0.5,0:10,3,,,0,0,1,28:50,,,0,0,0,0,,,,,0,11,11,11,,,,,,,,,,,,,,,,,,,,,,,,,,,,,,,,,,,,,,,,,,,,,,,,,,,,,,,,,,,,,,,,,,,,,,,,,,,,,,,,,,,,,,,,,,,,,,,,,,,,juanP,001,a,2019_Oct_10_1347,Experimento,3.2.3,59.932124592127224,
8,14,14,999,0.5,0:10,3,,,1,0,0,30:50,./completed_changuitos/montage_udnqp_169.0_147.29.jpg,left,0,0,0,0,,,,,0,12,12,12,0,0,0,0,,,,,,,,,,,,,,,,,,,,,,,,,,,,,,,,,,,,,,,,,,,,,,,,,,,,,,,,,,,,,495.64269854998565,497.65827293098846,497.65827293098846,505.6725988909893,left,1,0.9665865510032745,505.6725988909893,None,505.6725988909893,None,505.6725988909893,None,,,,,,,,,,,,,,,,,,,,,,,juanP,001,a,2019_Oct_10_1347,Experimento,3.2.3,59.932124592127224,
8,14,14,999,0.5,0:10,3,,,1,0,0,30:50,,,0,0,0,0,,,,,0,12,12,12,,,,,,,,,,,,,,,,,,,,,,,,,,,,,,,,,,,,,,,,,,,,,,,,,,,,,,,,,,,,,,,,,,,,,,,,,,,,,,,,,,,,,,,,,,,,,,,,,,,,juanP,001,a,2019_Oct_10_1347,Experimento,3.2.3,59.932124592127224,
8,14,14,999,0.5,0:10,3,,,1,0,0,32:50,./completed_changuitos/montage_byuco_154.09_135.89.jpg,left,0,0,0,0,,,,,0,13,13,13,0,0,0,0,,,,,,,,,,,,,,,,,,,,,,,,,,,,,,,,,,,,,,,,,,,,,,,,,,,,,,,,,,,,,507.2887071259902,514.8861273849907,514.8861273849907,522.8997999759886,left,1,1.299665022001136,522.8997999759886,None,522.8997999759886,None,522.8997999759886,None,,,,,,,,,,,,,,,,,,,,,,,juanP,001,a,2019_Oct_10_1347,Experimento,3.2.3,59.932124592127224,
8,14,14,999,0.5,0:10,3,,,1,0,0,32:50,,,0,0,0,0,,,,,0,13,13,13,,,,,,,,,,,,,,,,,,,,,,,,,,,,,,,,,,,,,,,,,,,,,,,,,,,,,,,,,,,,,,,,,,,,,,,,,,,,,,,,,,,,,,,,,,,,,,,,,,,,juanP,001,a,2019_Oct_10_1347,Experimento,3.2.3,59.932124592127224,
8,14,14,999,0.5,0:10,3,,,1,0,0,34:50,./completed_changuitos/montage_rqola_402.85_469.9.jpg,right,0,0,0,0,,,,,0,14,14,14,0,0,0,0,,,,,,,,,,,,,,,,,,,,,,,,,,,,,,,,,,,,,,,,,,,,,,,,,,,,,,,,,,,,,524.8327226249967,530.1305440539873,530.1305440539873,538.1449058289872,left,0,0.983760560004157,538.1449058289872,None,538.1449058289872,None,538.1449058289872,None,,,,,,,,,,,,,,,,,,,,,,,juanP,001,a,2019_Oct_10_1347,Experimento,3.2.3,59.932124592127224,
8,14,14,999,0.5,0:10,3,,,1,0,0,34:50,,,0,0,0,0,,,,,0,14,14,14,,,,,,,,,,,,,,,,,,,,,,,,,,,,,,,,,,,,,,,,,,,,,,,,,,,,,,,,,,,,,,,,,,,,,,,,,,,,,,,,,,,,,,,,,,,,,,,,,,,,juanP,001,a,2019_Oct_10_1347,Experimento,3.2.3,59.932124592127224,
8,14,14,999,0.5,0:10,3,,,1,0,0,30:50,./completed_changuitos/montage_htmhs_213.29_189.6.jpg,left,0,0,0,0,,,,,0,15,15,15,0,0,0,0,,,,,,,,,,,,,,,,,,,,,,,,,,,,,,,,,,,,,,,,,,,,,,,,,,,,,,,,,,,,,539.7776002969913,546.2254253919964,546.2254253919964,554.2389449089969,right,0,0.7668153199920198,554.2389449089969,None,554.2389449089969,None,554.2389449089969,None,,,,,,,,,,,,,,,,,,,,,,,juanP,001,a,2019_Oct_10_1347,Experimento,3.2.3,59.932124592127224,
8,14,14,999,0.5,0:10,3,,,1,0,0,30:50,,,0,0,0,0,,,,,0,15,15,15,,,,,,,,,,,,,,,,,,,,,,,,,,,,,,,,,,,,,,,,,,,,,,,,,,,,,,,,,,,,,,,,,,,,,,,,,,,,,,,,,,,,,,,,,,,,,,,,,,,,juanP,001,a,2019_Oct_10_1347,Experimento,3.2.3,59.932124592127224,
8,14,14,999,0.5,0:10,3,,,1,0,0,32:50,./completed_changuitos/montage_cjcda_57.79_66.55.jpg,right,0,0,0,0,,,,,0,16,16,16,0,0,0,0,,,,,,,,,,,,,,,,,,,,,,,,,,,,,,,,,,,,,,,,,,,,,,,,,,,,,,,,,,,,,555.6721270239941,557.1550559789903,557.1550559789903,565.1685920399905,right,1,0.766743038999266,565.1685920399905,None,565.1685920399905,None,565.1685920399905,None,,,,,,,,,,,,,,,,,,,,,,,juanP,001,a,2019_Oct_10_1347,Experimento,3.2.3,59.932124592127224,
8,14,14,999,0.5,0:10,3,,,1,0,0,32:50,,,0,0,0,0,,,,,0,16,16,16,,,,,,,,,,,,,,,,,,,,,,,,,,,,,,,,,,,,,,,,,,,,,,,,,,,,,,,,,,,,,,,,,,,,,,,,,,,,,,,,,,,,,,,,,,,,,,,,,,,,juanP,001,a,2019_Oct_10_1347,Experimento,3.2.3,59.932124592127224,
8,14,14,999,0.5,0:10,3,,,1,0,0,34:50,./completed_changuitos/montage_djeez_90.99_79.19.jpg,left,0,0,0,0,,,,,0,17,17,17,0,0,0,0,,,,,,,,,,,,,,,,,,,,,,,,,,,,,,,,,,,,,,,,,,,,,,,,,,,,,,,,,,,,,566.6017765499855,567.934689140995,567.934689140995,575.9485924479959,left,1,0.500367130007362,575.9485924479959,None,575.9485924479959,None,575.9485924479959,None,,,,,,,,,,,,,,,,,,,,,,,juanP,001,a,2019_Oct_10_1347,Experimento,3.2.3,59.932124592127224,
8,14,14,999,0.5,0:10,3,,,1,0,0,34:50,,,0,0,0,0,,,,,0,17,17,17,,,,,,,,,,,,,,,,,,,,,,,,,,,,,,,,,,,,,,,,,,,,,,,,,,,,,,,,,,,,,,,,,,,,,,,,,,,,,,,,,,,,,,,,,,,,,,,,,,,,juanP,001,a,2019_Oct_10_1347,Experimento,3.2.3,59.932124592127224,
8,14,14,999,0.5,0:10,3,,,,,,,,,0,0,0,0,,,,,,,,,,,,,,,,,,,,,,,,,,,,,,,,,,,,,,,,,,,,,,,,,,,,,,,,,,,,,,,,,,,,,,,,,,,,,,,,,,,,,,576.518654006999,578.7309578389977,1,9.880416462008725,578.7309578389977,None,578.7309578389977,None,c,6.4811645050067455,588.6272772199882,None,588.6272772199882,None,588.6272772199882,None,595.1249779579957,None,2,8.430534623010317,595.1249779579957,None,juanP,001,a,2019_Oct_10_1347,Experimento,3.2.3,59.932124592127224,
