changuito_time_to_show,time_to_think,time_to_play,total_items,nback_stimulus_time,nback_training,time_to_show_tiny_stimulus,colourtest,corresp,inmediato,consciente,inconsciente,nback_slice,imagen,correcta,trials_5.thisRepN,trials_5.thisTrialN,trials_5.thisN,trials_5.thisIndex,nback_train.thisRepN,nback_train.thisTrialN,nback_train.thisN,nback_train.thisIndex,treatment_order.thisRepN,treatment_order.thisTrialN,treatment_order.thisN,treatment_order.thisIndex,trials.thisRepN,trials.thisTrialN,trials.thisN,trials.thisIndex,trials_2.thisRepN,trials_2.thisTrialN,trials_2.thisN,trials_2.thisIndex,trials_3.thisRepN,trials_3.thisTrialN,trials_3.thisN,trials_3.thisIndex,trials_4.thisRepN,trials_4.thisTrialN,trials_4.thisN,trials_4.thisIndex,Presentacion.started,Presentacion.stopped,Juego.started,Juego.stopped,image_6.started,image_6.stopped,polygon.started,polygon.stopped,nback_train_resp.keys,nback_train_resp.corr,nback_train_resp.started,nback_train_resp.stopped,hola.started,hola.stopped,image_2.started,image_2.stopped,tiempo_para_pensar.started,tiempo_para_pensar.stopped,respuesta_consciente.keys,respuesta_consciente.corr,respuesta_consciente.rt,respuesta_consciente.started,respuesta_consciente.stopped,cual_es_la_mas_barata.started,cual_es_la_mas_barata.stopped,image_4.started,image_4.stopped,holi.started,holi.stopped,image_3.started,image_3.stopped,polygon_2.started,polygon_2.stopped,nback_train_resp_2.keys,nback_train_resp_2.corr,nback_train_resp_2.started,nback_train_resp_2.stopped,nback_train_resp_2.rt,text_2.started,text_2.stopped,key_resp.keys,key_resp.corr,key_resp.rt,key_resp.started,key_resp.stopped,image_5.started,image_5.stopped,text.started,text.stopped,image.started,image.stopped,respuesta_inmediato.keys,respuesta_inmediato.corr,respuesta_inmediato.rt,respuesta_inmediato.started,respuesta_inmediato.stopped,pregunta_cual_es_el_mas_barato.started,pregunta_cual_es_el_mas_barato.stopped,short_stim1.started,short_stim1.stopped,gracias.started,gracias.stopped,respuesta1.keys,respuesta1.rt,respuesta1.started,respuesta1.stopped,pregunta1.started,pregunta1.stopped,respuesta3bis_3.keys,respuesta3bis_3.rt,respuesta3bis_3.started,respuesta3bis_3.stopped,pregunta3_3.started,pregunta3_3.stopped,productoCon3RANGOSabc_3.started,productoCon3RANGOSabc_3.stopped,text_3.started,text_3.stopped,key_resp_2.keys,key_resp_2.rt,key_resp_2.started,key_resp_2.stopped,participant,session,group,date,expName,psychopyVersion,frameRate,
8,14,14,999,0.5,0:10,3,White,None,,,,,,,0,0,0,0,0,0,0,0,,,,,,,,,,,,,,,,,,,,,42.27129713399336,None,82.61004765798862,None,82.61004765798862,None,108.4109968119883,108.91799906198867,None,1,108.4109968119883,None,,,,,,,,,,,,,,,,,,,,,,,,,,,,,,,,,,,,,,,,,,,,,,,,,,,,,,,,,,,,,,,,,,,,,,,julianG,001,c,2019_Oct_10_1246,Experimento,3.2.3,60.027994298001175,
8,14,14,999,0.5,0:10,3,Red,None,,,,,,,0,0,0,0,0,1,1,1,,,,,,,,,,,,,,,,,,,,,,,,,,,110.41709617699962,110.91732903500088,None,1,110.41709617699962,110.41709617699962,,,,,,,,,,,,,,,,,,,,,,,,,,,,,,,,,,,,,,,,,,,,,,,,,,,,,,,,,,,,,,,,,,,,,,,julianG,001,c,2019_Oct_10_1246,Experimento,3.2.3,60.027994298001175,
8,14,14,999,0.5,0:10,3,Magenta,None,,,,,,,0,0,0,0,0,2,2,2,,,,,,,,,,,,,,,,,,,,,,,,,,,112.41676851599186,112.91667125398817,None,1,112.41676851599186,112.41676851599186,,,,,,,,,,,,,,,,,,,,,,,,,,,,,,,,,,,,,,,,,,,,,,,,,,,,,,,,,,,,,,,,,,,,,,,julianG,001,c,2019_Oct_10_1246,Experimento,3.2.3,60.027994298001175,
8,14,14,999,0.5,0:10,3,Cyan,None,,,,,,,0,0,0,0,0,3,3,3,,,,,,,,,,,,,,,,,,,,,,,,,,,114.41611095299595,114.91556375999062,None,1,114.41611095299595,114.41611095299595,,,,,,,,,,,,,,,,,,,,,,,,,,,,,,,,,,,,,,,,,,,,,,,,,,,,,,,,,,,,,,,,,,,,,,,julianG,001,c,2019_Oct_10_1246,Experimento,3.2.3,60.027994298001175,
8,14,14,999,0.5,0:10,3,Magenta,['space'],,,,,,,0,0,0,0,0,4,4,4,,,,,,,,,,,,,,,,,,,,,,,,,,,116.43171329499455,116.93160816599266,None,0,116.43171329499455,116.43171329499455,,,,,,,,,,,,,,,,,,,,,,,,,,,,,,,,,,,,,,,,,,,,,,,,,,,,,,,,,,,,,,,,,,,,,,,julianG,001,c,2019_Oct_10_1246,Experimento,3.2.3,60.027994298001175,
8,14,14,999,0.5,0:10,3,Green,None,,,,,,,0,0,0,0,0,5,5,5,,,,,,,,,,,,,,,,,,,,,,,,,,,118.4313515949907,118.93125539999164,None,1,118.4313515949907,118.4313515949907,,,,,,,,,,,,,,,,,,,,,,,,,,,,,,,,,,,,,,,,,,,,,,,,,,,,,,,,,,,,,,,,,,,,,,,julianG,001,c,2019_Oct_10_1246,Experimento,3.2.3,60.027994298001175,
8,14,14,999,0.5,0:10,3,White,None,,,,,,,0,0,0,0,0,6,6,6,,,,,,,,,,,,,,,,,,,,,,,,,,,120.43040526199911,120.9305656679935,None,1,120.43040526199911,120.43040526199911,,,,,,,,,,,,,,,,,,,,,,,,,,,,,,,,,,,,,,,,,,,,,,,,,,,,,,,,,,,,,,,,,,,,,,,julianG,001,c,2019_Oct_10_1246,Experimento,3.2.3,60.027994298001175,
8,14,14,999,0.5,0:10,3,Green,['space'],,,,,,,0,0,0,0,0,7,7,7,,,,,,,,,,,,,,,,,,,,,,,,,,,122.42992630299705,122.92988041198987,None,0,122.42992630299705,122.42992630299705,,,,,,,,,,,,,,,,,,,,,,,,,,,,,,,,,,,,,,,,,,,,,,,,,,,,,,,,,,,,,,,,,,,,,,,julianG,001,c,2019_Oct_10_1246,Experimento,3.2.3,60.027994298001175,
8,14,14,999,0.5,0:10,3,Blue,None,,,,,,,0,0,0,0,0,8,8,8,,,,,,,,,,,,,,,,,,,,,,,,,,,124.4286297159997,124.92919501398865,None,1,124.4286297159997,124.4286297159997,,,,,,,,,,,,,,,,,,,,,,,,,,,,,,,,,,,,,,,,,,,,,,,,,,,,,,,,,,,,,,,,,,,,,,,julianG,001,c,2019_Oct_10_1246,Experimento,3.2.3,60.027994298001175,
8,14,14,999,0.5,0:10,3,Green,['space'],,,,,,,0,0,0,0,0,9,9,9,,,,,,,,,,,,,,,,,,,,,,,,,,,126.42868130699208,126.92853645799914,None,0,126.42868130699208,126.42868130699208,,,,,,,,,,,,,,,,,,,,,,,,,,,,,,,,,,,,,,,,,,,,,,,,,,,,,,,,,,,,,,,,,,,,,,,julianG,001,c,2019_Oct_10_1246,Experimento,3.2.3,60.027994298001175,
8,14,14,999,0.5,0:10,3,,,0,1,0,10:50,./completed_changuitos/montage_eihzv_40.15_44.95.jpg,right,0,0,0,0,,,,,0,0,0,0,,,,,0,0,0,0,,,,,,,,,,,,,,,,,,,,,128.57885275399894,176.2283418129955,176.2283418129955,184.24179236199416,184.24179236199416,198.25418376699963,left,0,6.848000049008988,198.25418376699963,None,198.25418376699963,None,198.25418376699963,201.26970232000167,,,,,,,,,,,,,,,,,,,,,,,,,,,,,,,,,,,,,,,,,,,,,,,,,,,,,,,,julianG,001,c,2019_Oct_10_1246,Experimento,3.2.3,60.027994298001175,
8,14,14,999,0.5,0:10,3,,,0,1,0,10:50,,,0,0,0,0,,,,,0,0,0,0,,,,,,,,,,,,,,,,,,,,,,,,,,,,,,,,,,,,,,,,,,,,,,,,,,,,,,,,,,,,,,,,,,,,,,,,,,,,,,,,,,,,,,,,,,,,,,,,,,,julianG,001,c,2019_Oct_10_1246,Experimento,3.2.3,60.027994298001175,
8,14,14,999,0.5,0:10,3,Yellow,None,0,0,1,15:50,./completed_changuitos/montage_zrhkf_207.79_179.75.jpg,left,0,0,0,0,,,,,0,1,1,1,,,,,,,,,0,0,0,0,0,0,0,0,,,,,,,,,,,,,,,,,,,,,,,,,,,,205.25225283799227,210.00012277299538,210.00012277299538,None,218.04262521899363,218.54723325598752,None,1,218.04262521899363,None,,,,,,,,,,,,,,,,,,,,,,,,,,,,,,,,,,,,,,,,,,,,,,julianG,001,c,2019_Oct_10_1246,Experimento,3.2.3,60.027994298001175,
8,14,14,999,0.5,0:10,3,White,['space'],0,0,1,15:50,./completed_changuitos/montage_zrhkf_207.79_179.75.jpg,left,0,0,0,0,,,,,0,1,1,1,,,,,,,,,0,0,0,0,0,1,1,1,,,,,,,,,,,,,,,,,,,,,,,,,,,,,,,,220.04763178899884,220.56321543699596,None,0,220.04763178899884,220.04763178899884,,,,,,,,,,,,,,,,,,,,,,,,,,,,,,,,,,,,,,,,,,,,,,julianG,001,c,2019_Oct_10_1246,Experimento,3.2.3,60.027994298001175,
8,14,14,999,0.5,0:10,3,Magenta,None,0,0,1,15:50,./completed_changuitos/montage_zrhkf_207.79_179.75.jpg,left,0,0,0,0,,,,,0,1,1,1,,,,,,,,,0,0,0,0,0,2,2,2,,,,,,,,,,,,,,,,,,,,,,,,,,,,,,,,222.06264981999993,222.56255059299292,None,1,222.06264981999993,222.06264981999993,,,,,,,,,,,,,,,,,,,,,,,,,,,,,,,,,,,,,,,,,,,,,,julianG,001,c,2019_Oct_10_1246,Experimento,3.2.3,60.027994298001175,
8,14,14,999,0.5,0:10,3,Cyan,None,0,0,1,15:50,./completed_changuitos/montage_zrhkf_207.79_179.75.jpg,left,0,0,0,0,,,,,0,1,1,1,,,,,,,,,0,0,0,0,0,3,3,3,,,,,,,,,,,,,,,,,,,,,,,,,,,,,,,,224.0619237399951,224.5617642379948,None,1,224.0619237399951,224.0619237399951,,,,,,,,,,,,,,,,,,,,,,,,,,,,,,,,,,,,,,,,,,,,,,julianG,001,c,2019_Oct_10_1246,Experimento,3.2.3,60.027994298001175,
8,14,14,999,0.5,0:10,3,Blue,None,0,0,1,15:50,./completed_changuitos/montage_zrhkf_207.79_179.75.jpg,left,0,0,0,0,,,,,0,1,1,1,,,,,,,,,0,0,0,0,0,4,4,4,,,,,,,,,,,,,,,,,,,,,,,,,,,,,,,,226.0612341919914,226.56114070498734,None,1,226.0612341919914,226.0612341919914,,,,,,,,,,,,,,,,,,,,,,,,,,,,,,,,,,,,,,,,,,,,,,julianG,001,c,2019_Oct_10_1246,Experimento,3.2.3,60.027994298001175,
8,14,14,999,0.5,0:10,3,Magenta,None,0,0,1,15:50,./completed_changuitos/montage_zrhkf_207.79_179.75.jpg,left,0,0,0,0,,,,,0,1,1,1,,,,,,,,,0,0,0,0,0,5,5,5,,,,,,,,,,,,,,,,,,,,,,,,,,,,,,,,228.0602827249968,228.5604180419905,None,1,228.0602827249968,228.0602827249968,,,,,,,,,,,,,,,,,,,,,,,,,,,,,,,,,,,,,,,,,,,,,,julianG,001,c,2019_Oct_10_1246,Experimento,3.2.3,60.027994298001175,
8,14,14,999,0.5,0:10,3,Blue,['space'],0,0,1,15:50,./completed_changuitos/montage_zrhkf_207.79_179.75.jpg,left,0,0,0,0,,,,,0,1,1,1,,,,,,,,,0,0,0,0,0,6,6,6,,,,,,,,,,,,,,,,,,,,,,,,,,,,,,,,230.06217468999967,230.57648186499137,['return'],0,230.06217468999967,230.06217468999967,[0.9310182600020198],,,,,,,,,,,,,,,,,,,,,,,,,,,,,,,,,,,,,,,,,,,,,julianG,001,c,2019_Oct_10_1246,Experimento,3.2.3,60.027994298001175,
8,14,14,999,0.5,0:10,3,Cyan,None,0,0,1,15:50,./completed_changuitos/montage_zrhkf_207.79_179.75.jpg,left,0,0,0,0,,,,,0,1,1,1,,,,,,,,,0,0,0,0,0,7,7,7,,,,,,,,,,,,,,,,,,,,,,,,,,,,,,,,232.0259259006998,None,None,1,232.0259259006998,None,,,,,,,,,,,,,,,,,,,,,,,,,,,,,,,,,,,,,,,,,,,,,,julianG,001,c,2019_Oct_10_1246,Experimento,3.2.3,60.027994298001175,
8,14,14,999,0.5,0:10,3,Yellow,None,0,0,1,15:50,./completed_changuitos/montage_zrhkf_207.79_179.75.jpg,left,0,0,0,0,,,,,0,1,1,1,,,,,,,,,0,0,0,0,0,8,8,8,,,,,,,,,,,,,,,,,,,,,,,,,,,,,,,,232.0259259006998,None,None,1,232.0259259006998,None,,,,,,,,,,,,,,,,,,,,,,,,,,,,,,,,,,,,,,,,,,,,,,julianG,001,c,2019_Oct_10_1246,Experimento,3.2.3,60.027994298001175,
8,14,14,999,0.5,0:10,3,Cyan,None,0,0,1,15:50,./completed_changuitos/montage_zrhkf_207.79_179.75.jpg,left,0,0,0,0,,,,,0,1,1,1,,,,,,,,,0,0,0,0,0,9,9,9,,,,,,,,,,,,,,,,,,,,,,,,,,,,,,,,232.0259259006998,None,None,1,232.0259259006998,None,,,,,,,,,,,,,,,,,,,,,,,,,,,,,,,,,,,,,,,,,,,,,,julianG,001,c,2019_Oct_10_1246,Experimento,3.2.3,60.027994298001175,
8,14,14,999,0.5,0:10,3,Blue,None,0,0,1,15:50,./completed_changuitos/montage_zrhkf_207.79_179.75.jpg,left,0,0,0,0,,,,,0,1,1,1,,,,,,,,,0,0,0,0,0,10,10,10,,,,,,,,,,,,,,,,,,,,,,,,,,,,,,,,232.0259259006998,None,None,1,232.0259259006998,None,,,,,,,,,,,,,,,,,,,,,,,,,,,,,,,,,,,,,,,,,,,,,,julianG,001,c,2019_Oct_10_1246,Experimento,3.2.3,60.027994298001175,
8,14,14,999,0.5,0:10,3,Cyan,['space'],0,0,1,15:50,./completed_changuitos/montage_zrhkf_207.79_179.75.jpg,left,0,0,0,0,,,,,0,1,1,1,,,,,,,,,0,0,0,0,0,11,11,11,,,,,,,,,,,,,,,,,,,,,,,,,,,,,,,,232.0425907013996,None,None,0,232.0425907013996,None,,,,,,,,,,,,,,,,,,,,,,,,,,,,,,,,,,,,,,,,,,,,,,julianG,001,c,2019_Oct_10_1246,Experimento,3.2.3,60.027994298001175,
8,14,14,999,0.5,0:10,3,Magenta,None,0,0,1,15:50,./completed_changuitos/montage_zrhkf_207.79_179.75.jpg,left,0,0,0,0,,,,,0,1,1,1,,,,,,,,,0,0,0,0,0,12,12,12,,,,,,,,,,,,,,,,,,,,,,,,,,,,,,,,232.0425907013996,None,None,1,232.0425907013996,None,,,,,,,,,,,,,,,,,,,,,,,,,,,,,,,,,,,,,,,,,,,,,,julianG,001,c,2019_Oct_10_1246,Experimento,3.2.3,60.027994298001175,
8,14,14,999,0.5,0:10,3,Red,None,0,0,1,15:50,./completed_changuitos/montage_zrhkf_207.79_179.75.jpg,left,0,0,0,0,,,,,0,1,1,1,,,,,,,,,0,0,0,0,0,13,13,13,,,,,,,,,,,,,,,,,,,,,,,,,,,,,,,,232.0425907013996,None,None,1,232.0425907013996,None,,,,,,,,,,,,,,,,,,,,,,,,,,,,,,,,,,,,,,,,,,,,,,julianG,001,c,2019_Oct_10_1246,Experimento,3.2.3,60.027994298001175,
8,14,14,999,0.5,0:10,3,Magenta,['space'],0,0,1,15:50,./completed_changuitos/montage_zrhkf_207.79_179.75.jpg,left,0,0,0,0,,,,,0,1,1,1,,,,,,,,,0,0,0,0,0,14,14,14,,,,,,,,,,,,,,,,,,,,,,,,,,,,,,,,232.0425907013996,None,None,0,232.0425907013996,None,,,,,,,,,,,,,,,,,,,,,,,,,,,,,,,,,,,,,,,,,,,,,,julianG,001,c,2019_Oct_10_1246,Experimento,3.2.3,60.027994298001175,
8,14,14,999,0.5,0:10,3,Green,None,0,0,1,15:50,./completed_changuitos/montage_zrhkf_207.79_179.75.jpg,left,0,0,0,0,,,,,0,1,1,1,,,,,,,,,0,0,0,0,0,15,15,15,,,,,,,,,,,,,,,,,,,,,,,,,,,,,,,,232.0425907013996,None,None,1,232.0425907013996,None,,,,,,,,,,,,,,,,,,,,,,,,,,,,,,,,,,,,,,,,,,,,,,julianG,001,c,2019_Oct_10_1246,Experimento,3.2.3,60.027994298001175,
8,14,14,999,0.5,0:10,3,Yellow,['space'],0,0,1,15:50,./completed_changuitos/montage_zrhkf_207.79_179.75.jpg,left,0,0,0,0,,,,,0,1,1,1,,,,,,,,,0,0,0,0,0,16,16,16,,,,,,,,,,,,,,,,,,,,,,,,,,,,,,,,232.0425907013996,None,None,0,232.0425907013996,None,,,,,,,,,,,,,,,,,,,,,,,,,,,,,,,,,,,,,,,,,,,,,,julianG,001,c,2019_Oct_10_1246,Experimento,3.2.3,60.027994298001175,
8,14,14,999,0.5,0:10,3,Blue,None,0,0,1,15:50,./completed_changuitos/montage_zrhkf_207.79_179.75.jpg,left,0,0,0,0,,,,,0,1,1,1,,,,,,,,,0,0,0,0,0,17,17,17,,,,,,,,,,,,,,,,,,,,,,,,,,,,,,,,232.0592555020994,None,None,1,232.0592555020994,None,,,,,,,,,,,,,,,,,,,,,,,,,,,,,,,,,,,,,,,,,,,,,,julianG,001,c,2019_Oct_10_1246,Experimento,3.2.3,60.027994298001175,
8,14,14,999,0.5,0:10,3,Cyan,None,0,0,1,15:50,./completed_changuitos/montage_zrhkf_207.79_179.75.jpg,left,0,0,0,0,,,,,0,1,1,1,,,,,,,,,0,0,0,0,0,18,18,18,,,,,,,,,,,,,,,,,,,,,,,,,,,,,,,,232.0592555020994,None,None,1,232.0592555020994,None,,,,,,,,,,,,,,,,,,,,,,,,,,,,,,,,,,,,,,,,,,,,,,julianG,001,c,2019_Oct_10_1246,Experimento,3.2.3,60.027994298001175,
8,14,14,999,0.5,0:10,3,Blue,['space'],0,0,1,15:50,./completed_changuitos/montage_zrhkf_207.79_179.75.jpg,left,0,0,0,0,,,,,0,1,1,1,,,,,,,,,0,0,0,0,0,19,19,19,,,,,,,,,,,,,,,,,,,,,,,,,,,,,,,,232.0592555020994,None,None,0,232.0592555020994,None,,,,,,,,,,,,,,,,,,,,,,,,,,,,,,,,,,,,,,,,,,,,,,julianG,001,c,2019_Oct_10_1246,Experimento,3.2.3,60.027994298001175,
8,14,14,999,0.5,0:10,3,Yellow,None,0,0,1,15:50,./completed_changuitos/montage_zrhkf_207.79_179.75.jpg,left,0,0,0,0,,,,,0,1,1,1,,,,,,,,,0,0,0,0,0,20,20,20,,,,,,,,,,,,,,,,,,,,,,,,,,,,,,,,232.0592555020994,None,None,1,232.0592555020994,None,,,,,,,,,,,,,,,,,,,,,,,,,,,,,,,,,,,,,,,,,,,,,,julianG,001,c,2019_Oct_10_1246,Experimento,3.2.3,60.027994298001175,
8,14,14,999,0.5,0:10,3,Cyan,None,0,0,1,15:50,./completed_changuitos/montage_zrhkf_207.79_179.75.jpg,left,0,0,0,0,,,,,0,1,1,1,,,,,,,,,0,0,0,0,0,21,21,21,,,,,,,,,,,,,,,,,,,,,,,,,,,,,,,,232.0592555020994,None,None,1,232.0592555020994,None,,,,,,,,,,,,,,,,,,,,,,,,,,,,,,,,,,,,,,,,,,,,,,julianG,001,c,2019_Oct_10_1246,Experimento,3.2.3,60.027994298001175,
8,14,14,999,0.5,0:10,3,Yellow,['space'],0,0,1,15:50,./completed_changuitos/montage_zrhkf_207.79_179.75.jpg,left,0,0,0,0,,,,,0,1,1,1,,,,,,,,,0,0,0,0,0,22,22,22,,,,,,,,,,,,,,,,,,,,,,,,,,,,,,,,232.0592555020994,None,None,0,232.0592555020994,None,,,,,,,,,,,,,,,,,,,,,,,,,,,,,,,,,,,,,,,,,,,,,,julianG,001,c,2019_Oct_10_1246,Experimento,3.2.3,60.027994298001175,
8,14,14,999,0.5,0:10,3,Magenta,None,0,0,1,15:50,./completed_changuitos/montage_zrhkf_207.79_179.75.jpg,left,0,0,0,0,,,,,0,1,1,1,,,,,,,,,0,0,0,0,0,23,23,23,,,,,,,,,,,,,,,,,,,,,,,,,,,,,,,,232.0592555020994,None,None,1,232.0592555020994,None,,,,,,,,,,,,,,,,,,,,,,,,,,,,,,,,,,,,,,,,,,,,,,julianG,001,c,2019_Oct_10_1246,Experimento,3.2.3,60.027994298001175,
8,14,14,999,0.5,0:10,3,Red,None,0,0,1,15:50,./completed_changuitos/montage_zrhkf_207.79_179.75.jpg,left,0,0,0,0,,,,,0,1,1,1,,,,,,,,,0,0,0,0,0,24,24,24,,,,,,,,,,,,,,,,,,,,,,,,,,,,,,,,232.0592555020994,None,None,1,232.0592555020994,None,,,,,,,,,,,,,,,,,,,,,,,,,,,,,,,,,,,,,,,,,,,,,,julianG,001,c,2019_Oct_10_1246,Experimento,3.2.3,60.027994298001175,
8,14,14,999,0.5,0:10,3,Magenta,['space'],0,0,1,15:50,./completed_changuitos/montage_zrhkf_207.79_179.75.jpg,left,0,0,0,0,,,,,0,1,1,1,,,,,,,,,0,0,0,0,0,25,25,25,,,,,,,,,,,,,,,,,,,,,,,,,,,,,,,,232.0592555020994,None,None,0,232.0592555020994,None,,,,,,,,,,,,,,,,,,,,,,,,,,,,,,,,,,,,,,,,,,,,,,julianG,001,c,2019_Oct_10_1246,Experimento,3.2.3,60.027994298001175,
8,14,14,999,0.5,0:10,3,Red,['space'],0,0,1,15:50,./completed_changuitos/montage_zrhkf_207.79_179.75.jpg,left,0,0,0,0,,,,,0,1,1,1,,,,,,,,,0,0,0,0,0,26,26,26,,,,,,,,,,,,,,,,,,,,,,,,,,,,,,,,232.0592555020994,None,None,0,232.0592555020994,None,,,,,,,,,,,,,,,,,,,,,,,,,,,,,,,,,,,,,,,,,,,,,,julianG,001,c,2019_Oct_10_1246,Experimento,3.2.3,60.027994298001175,
8,14,14,999,0.5,0:10,3,Yellow,None,0,0,1,15:50,./completed_changuitos/montage_zrhkf_207.79_179.75.jpg,left,0,0,0,0,,,,,0,1,1,1,,,,,,,,,0,0,0,0,0,27,27,27,,,,,,,,,,,,,,,,,,,,,,,,,,,,,,,,232.0592555020994,None,None,1,232.0592555020994,None,,,,,,,,,,,,,,,,,,,,,,,,,,,,,,,,,,,,,,,,,,,,,,julianG,001,c,2019_Oct_10_1246,Experimento,3.2.3,60.027994298001175,
8,14,14,999,0.5,0:10,3,Cyan,None,0,0,1,15:50,./completed_changuitos/montage_zrhkf_207.79_179.75.jpg,left,0,0,0,0,,,,,0,1,1,1,,,,,,,,,0,0,0,0,0,28,28,28,,,,,,,,,,,,,,,,,,,,,,,,,,,,,,,,232.0592555020994,None,None,1,232.0592555020994,None,,,,,,,,,,,,,,,,,,,,,,,,,,,,,,,,,,,,,,,,,,,,,,julianG,001,c,2019_Oct_10_1246,Experimento,3.2.3,60.027994298001175,
8,14,14,999,0.5,0:10,3,Green,None,0,0,1,15:50,./completed_changuitos/montage_zrhkf_207.79_179.75.jpg,left,0,0,0,0,,,,,0,1,1,1,,,,,,,,,0,0,0,0,0,29,29,29,,,,,,,,,,,,,,,,,,,,,,,,,,,,,,,,232.0592555020994,None,None,1,232.0592555020994,None,,,,,,,,,,,,,,,,,,,,,,,,,,,,,,,,,,,,,,,,,,,,,,julianG,001,c,2019_Oct_10_1246,Experimento,3.2.3,60.027994298001175,
8,14,14,999,0.5,0:10,3,White,None,0,0,1,15:50,./completed_changuitos/montage_zrhkf_207.79_179.75.jpg,left,0,0,0,0,,,,,0,1,1,1,,,,,,,,,0,0,0,0,0,30,30,30,,,,,,,,,,,,,,,,,,,,,,,,,,,,,,,,232.0759203027992,None,None,1,232.0759203027992,None,,,,,,,,,,,,,,,,,,,,,,,,,,,,,,,,,,,,,,,,,,,,,,julianG,001,c,2019_Oct_10_1246,Experimento,3.2.3,60.027994298001175,
8,14,14,999,0.5,0:10,3,Green,['space'],0,0,1,15:50,./completed_changuitos/montage_zrhkf_207.79_179.75.jpg,left,0,0,0,0,,,,,0,1,1,1,,,,,,,,,0,0,0,0,0,31,31,31,,,,,,,,,,,,,,,,,,,,,,,,,,,,,,,,232.0759203027992,None,None,0,232.0759203027992,None,,,,,,,,,,,,,,,,,,,,,,,,,,,,,,,,,,,,,,,,,,,,,,julianG,001,c,2019_Oct_10_1246,Experimento,3.2.3,60.027994298001175,
8,14,14,999,0.5,0:10,3,Red,None,0,0,1,15:50,./completed_changuitos/montage_zrhkf_207.79_179.75.jpg,left,0,0,0,0,,,,,0,1,1,1,,,,,,,,,0,0,0,0,0,32,32,32,,,,,,,,,,,,,,,,,,,,,,,,,,,,,,,,232.0759203027992,None,None,1,232.0759203027992,None,,,,,,,,,,,,,,,,,,,,,,,,,,,,,,,,,,,,,,,,,,,,,,julianG,001,c,2019_Oct_10_1246,Experimento,3.2.3,60.027994298001175,
8,14,14,999,0.5,0:10,3,Blue,None,0,0,1,15:50,./completed_changuitos/montage_zrhkf_207.79_179.75.jpg,left,0,0,0,0,,,,,0,1,1,1,,,,,,,,,0,0,0,0,0,33,33,33,,,,,,,,,,,,,,,,,,,,,,,,,,,,,,,,232.0759203027992,None,None,1,232.0759203027992,None,,,,,,,,,,,,,,,,,,,,,,,,,,,,,,,,,,,,,,,,,,,,,,julianG,001,c,2019_Oct_10_1246,Experimento,3.2.3,60.027994298001175,
8,14,14,999,0.5,0:10,3,Green,None,0,0,1,15:50,./completed_changuitos/montage_zrhkf_207.79_179.75.jpg,left,0,0,0,0,,,,,0,1,1,1,,,,,,,,,0,0,0,0,0,34,34,34,,,,,,,,,,,,,,,,,,,,,,,,,,,,,,,,232.0759203027992,None,None,1,232.0759203027992,None,,,,,,,,,,,,,,,,,,,,,,,,,,,,,,,,,,,,,,,,,,,,,,julianG,001,c,2019_Oct_10_1246,Experimento,3.2.3,60.027994298001175,
8,14,14,999,0.5,0:10,3,,,0,0,1,15:50,./completed_changuitos/montage_zrhkf_207.79_179.75.jpg,left,0,0,0,0,,,,,0,1,1,1,,,,,,,,,0,0,0,0,,,,,,,,,,,,,,,,,,,,,,,,,,,,,,,,,,,,,,,,,,,232.11139971599914,None,right,0,1.2142378489952534,232.11139971599914,None,232.11139971599914,None,,,,,,,,,,,,,,,,,,,,,,,,,,,,,,,,,,,,julianG,001,c,2019_Oct_10_1246,Experimento,3.2.3,60.027994298001175,
8,14,14,999,0.5,0:10,3,,,0,0,1,15:50,,,0,0,0,0,,,,,0,1,1,1,,,,,,,,,,,,,,,,,,,,,,,,,,,,,,,,,,,,,,,,,,,,,,,,,,,,,,,,,,,,,,,,,,,,,,,,,,,,,,,,,,,,,,,,,,,,,,,,,,,julianG,001,c,2019_Oct_10_1246,Experimento,3.2.3,60.027994298001175,
8,14,14,999,0.5,0:10,3,Magenta,None,0,0,1,20:50,./completed_changuitos/montage_udfya_70.35_80.25.jpg,right,0,0,0,0,,,,,0,2,2,2,,,,,,,,,0,0,0,0,0,0,0,0,,,,,,,,,,,,,,,,,,,,,,,,,,,,233.4497684789967,242.37239426099404,242.37239426099404,None,250.39236541900027,250.90251902499585,None,1,250.39236541900027,None,,,,,,,,,,,,,,,,,,,,,,,,,,,,,,,,,,,,,,,,,,,,,,julianG,001,c,2019_Oct_10_1246,Experimento,3.2.3,60.027994298001175,
8,14,14,999,0.5,0:10,3,Blue,['space'],0,0,1,20:50,./completed_changuitos/montage_udfya_70.35_80.25.jpg,right,0,0,0,0,,,,,0,2,2,2,,,,,,,,,0,0,0,0,0,1,1,1,,,,,,,,,,,,,,,,,,,,,,,,,,,,,,,,252.40232125899638,252.90215233599884,None,0,252.40232125899638,252.40232125899638,,,,,,,,,,,,,,,,,,,,,,,,,,,,,,,,,,,,,,,,,,,,,,julianG,001,c,2019_Oct_10_1246,Experimento,3.2.3,60.027994298001175,
8,14,14,999,0.5,0:10,3,Cyan,None,0,0,1,20:50,./completed_changuitos/montage_udfya_70.35_80.25.jpg,right,0,0,0,0,,,,,0,2,2,2,,,,,,,,,0,0,0,0,0,2,2,2,,,,,,,,,,,,,,,,,,,,,,,,,,,,,,,,254.40158617999987,254.90145133399346,None,1,254.40158617999987,254.40158617999987,,,,,,,,,,,,,,,,,,,,,,,,,,,,,,,,,,,,,,,,,,,,,,julianG,001,c,2019_Oct_10_1246,Experimento,3.2.3,60.027994298001175,
8,14,14,999,0.5,0:10,3,Yellow,None,0,0,1,20:50,./completed_changuitos/montage_udfya_70.35_80.25.jpg,right,0,0,0,0,,,,,0,2,2,2,,,,,,,,,0,0,0,0,0,3,3,3,,,,,,,,,,,,,,,,,,,,,,,,,,,,,,,,256.40092076698784,256.9008051139972,None,1,256.40092076698784,256.40092076698784,,,,,,,,,,,,,,,,,,,,,,,,,,,,,,,,,,,,,,,,,,,,,,julianG,001,c,2019_Oct_10_1246,Experimento,3.2.3,60.027994298001175,
8,14,14,999,0.5,0:10,3,Cyan,None,0,0,1,20:50,./completed_changuitos/montage_udfya_70.35_80.25.jpg,right,0,0,0,0,,,,,0,2,2,2,,,,,,,,,0,0,0,0,0,4,4,4,,,,,,,,,,,,,,,,,,,,,,,,,,,,,,,,258.40018101700116,258.8996623179992,None,1,258.40018101700116,258.40018101700116,,,,,,,,,,,,,,,,,,,,,,,,,,,,,,,,,,,,,,,,,,,,,,julianG,001,c,2019_Oct_10_1246,Experimento,3.2.3,60.027994298001175,
8,14,14,999,0.5,0:10,3,Blue,None,0,0,1,20:50,./completed_changuitos/montage_udfya_70.35_80.25.jpg,right,0,0,0,0,,,,,0,2,2,2,,,,,,,,,0,0,0,0,0,5,5,5,,,,,,,,,,,,,,,,,,,,,,,,,,,,,,,,260.3994040959951,260.89937324498896,None,1,260.3994040959951,260.3994040959951,,,,,,,,,,,,,,,,,,,,,,,,,,,,,,,,,,,,,,,,,,,,,,julianG,001,c,2019_Oct_10_1246,Experimento,3.2.3,60.027994298001175,
8,14,14,999,0.5,0:10,3,Cyan,['space'],0,0,1,20:50,./completed_changuitos/montage_udfya_70.35_80.25.jpg,right,0,0,0,0,,,,,0,2,2,2,,,,,,,,,0,0,0,0,0,6,6,6,,,,,,,,,,,,,,,,,,,,,,,,,,,,,,,,262.39880805699795,262.8986377269903,['return'],0,262.39880805699795,262.39880805699795,[0.5005051490006736],,,,,,,,,,,,,,,,,,,,,,,,,,,,,,,,,,,,,,,,,,,,,julianG,001,c,2019_Oct_10_1246,Experimento,3.2.3,60.027994298001175,
8,14,14,999,0.5,0:10,3,Magenta,None,0,0,1,20:50,./completed_changuitos/montage_udfya_70.35_80.25.jpg,right,0,0,0,0,,,,,0,2,2,2,,,,,,,,,0,0,0,0,0,7,7,7,,,,,,,,,,,,,,,,,,,,,,,,,,,,,,,,264.3982019446994,None,None,1,264.3982019446994,None,,,,,,,,,,,,,,,,,,,,,,,,,,,,,,,,,,,,,,,,,,,,,,julianG,001,c,2019_Oct_10_1246,Experimento,3.2.3,60.027994298001175,
8,14,14,999,0.5,0:10,3,Red,None,0,0,1,20:50,./completed_changuitos/montage_udfya_70.35_80.25.jpg,right,0,0,0,0,,,,,0,2,2,2,,,,,,,,,0,0,0,0,0,8,8,8,,,,,,,,,,,,,,,,,,,,,,,,,,,,,,,,264.3982019446994,None,None,1,264.3982019446994,None,,,,,,,,,,,,,,,,,,,,,,,,,,,,,,,,,,,,,,,,,,,,,,julianG,001,c,2019_Oct_10_1246,Experimento,3.2.3,60.027994298001175,
8,14,14,999,0.5,0:10,3,Magenta,['space'],0,0,1,20:50,./completed_changuitos/montage_udfya_70.35_80.25.jpg,right,0,0,0,0,,,,,0,2,2,2,,,,,,,,,0,0,0,0,0,9,9,9,,,,,,,,,,,,,,,,,,,,,,,,,,,,,,,,264.3982019446994,None,None,0,264.3982019446994,None,,,,,,,,,,,,,,,,,,,,,,,,,,,,,,,,,,,,,,,,,,,,,,julianG,001,c,2019_Oct_10_1246,Experimento,3.2.3,60.027994298001175,
8,14,14,999,0.5,0:10,3,Green,None,0,0,1,20:50,./completed_changuitos/montage_udfya_70.35_80.25.jpg,right,0,0,0,0,,,,,0,2,2,2,,,,,,,,,0,0,0,0,0,10,10,10,,,,,,,,,,,,,,,,,,,,,,,,,,,,,,,,264.3982019446994,None,None,1,264.3982019446994,None,,,,,,,,,,,,,,,,,,,,,,,,,,,,,,,,,,,,,,,,,,,,,,julianG,001,c,2019_Oct_10_1246,Experimento,3.2.3,60.027994298001175,
8,14,14,999,0.5,0:10,3,Yellow,['space'],0,0,1,20:50,./completed_changuitos/montage_udfya_70.35_80.25.jpg,right,0,0,0,0,,,,,0,2,2,2,,,,,,,,,0,0,0,0,0,11,11,11,,,,,,,,,,,,,,,,,,,,,,,,,,,,,,,,264.4148667453992,None,None,0,264.4148667453992,None,,,,,,,,,,,,,,,,,,,,,,,,,,,,,,,,,,,,,,,,,,,,,,julianG,001,c,2019_Oct_10_1246,Experimento,3.2.3,60.027994298001175,
8,14,14,999,0.5,0:10,3,Blue,None,0,0,1,20:50,./completed_changuitos/montage_udfya_70.35_80.25.jpg,right,0,0,0,0,,,,,0,2,2,2,,,,,,,,,0,0,0,0,0,12,12,12,,,,,,,,,,,,,,,,,,,,,,,,,,,,,,,,264.4148667453992,None,None,1,264.4148667453992,None,,,,,,,,,,,,,,,,,,,,,,,,,,,,,,,,,,,,,,,,,,,,,,julianG,001,c,2019_Oct_10_1246,Experimento,3.2.3,60.027994298001175,
8,14,14,999,0.5,0:10,3,Cyan,None,0,0,1,20:50,./completed_changuitos/montage_udfya_70.35_80.25.jpg,right,0,0,0,0,,,,,0,2,2,2,,,,,,,,,0,0,0,0,0,13,13,13,,,,,,,,,,,,,,,,,,,,,,,,,,,,,,,,264.4148667453992,None,None,1,264.4148667453992,None,,,,,,,,,,,,,,,,,,,,,,,,,,,,,,,,,,,,,,,,,,,,,,julianG,001,c,2019_Oct_10_1246,Experimento,3.2.3,60.027994298001175,
8,14,14,999,0.5,0:10,3,Blue,['space'],0,0,1,20:50,./completed_changuitos/montage_udfya_70.35_80.25.jpg,right,0,0,0,0,,,,,0,2,2,2,,,,,,,,,0,0,0,0,0,14,14,14,,,,,,,,,,,,,,,,,,,,,,,,,,,,,,,,264.4148667453992,None,None,0,264.4148667453992,None,,,,,,,,,,,,,,,,,,,,,,,,,,,,,,,,,,,,,,,,,,,,,,julianG,001,c,2019_Oct_10_1246,Experimento,3.2.3,60.027994298001175,
8,14,14,999,0.5,0:10,3,Yellow,None,0,0,1,20:50,./completed_changuitos/montage_udfya_70.35_80.25.jpg,right,0,0,0,0,,,,,0,2,2,2,,,,,,,,,0,0,0,0,0,15,15,15,,,,,,,,,,,,,,,,,,,,,,,,,,,,,,,,264.4148667453992,None,None,1,264.4148667453992,None,,,,,,,,,,,,,,,,,,,,,,,,,,,,,,,,,,,,,,,,,,,,,,julianG,001,c,2019_Oct_10_1246,Experimento,3.2.3,60.027994298001175,
8,14,14,999,0.5,0:10,3,Cyan,None,0,0,1,20:50,./completed_changuitos/montage_udfya_70.35_80.25.jpg,right,0,0,0,0,,,,,0,2,2,2,,,,,,,,,0,0,0,0,0,16,16,16,,,,,,,,,,,,,,,,,,,,,,,,,,,,,,,,264.4148667453992,None,None,1,264.4148667453992,None,,,,,,,,,,,,,,,,,,,,,,,,,,,,,,,,,,,,,,,,,,,,,,julianG,001,c,2019_Oct_10_1246,Experimento,3.2.3,60.027994298001175,
8,14,14,999,0.5,0:10,3,Yellow,['space'],0,0,1,20:50,./completed_changuitos/montage_udfya_70.35_80.25.jpg,right,0,0,0,0,,,,,0,2,2,2,,,,,,,,,0,0,0,0,0,17,17,17,,,,,,,,,,,,,,,,,,,,,,,,,,,,,,,,264.431531546099,None,None,0,264.431531546099,None,,,,,,,,,,,,,,,,,,,,,,,,,,,,,,,,,,,,,,,,,,,,,,julianG,001,c,2019_Oct_10_1246,Experimento,3.2.3,60.027994298001175,
8,14,14,999,0.5,0:10,3,Magenta,None,0,0,1,20:50,./completed_changuitos/montage_udfya_70.35_80.25.jpg,right,0,0,0,0,,,,,0,2,2,2,,,,,,,,,0,0,0,0,0,18,18,18,,,,,,,,,,,,,,,,,,,,,,,,,,,,,,,,264.431531546099,None,None,1,264.431531546099,None,,,,,,,,,,,,,,,,,,,,,,,,,,,,,,,,,,,,,,,,,,,,,,julianG,001,c,2019_Oct_10_1246,Experimento,3.2.3,60.027994298001175,
8,14,14,999,0.5,0:10,3,Red,None,0,0,1,20:50,./completed_changuitos/montage_udfya_70.35_80.25.jpg,right,0,0,0,0,,,,,0,2,2,2,,,,,,,,,0,0,0,0,0,19,19,19,,,,,,,,,,,,,,,,,,,,,,,,,,,,,,,,264.431531546099,None,None,1,264.431531546099,None,,,,,,,,,,,,,,,,,,,,,,,,,,,,,,,,,,,,,,,,,,,,,,julianG,001,c,2019_Oct_10_1246,Experimento,3.2.3,60.027994298001175,
8,14,14,999,0.5,0:10,3,Magenta,['space'],0,0,1,20:50,./completed_changuitos/montage_udfya_70.35_80.25.jpg,right,0,0,0,0,,,,,0,2,2,2,,,,,,,,,0,0,0,0,0,20,20,20,,,,,,,,,,,,,,,,,,,,,,,,,,,,,,,,264.431531546099,None,None,0,264.431531546099,None,,,,,,,,,,,,,,,,,,,,,,,,,,,,,,,,,,,,,,,,,,,,,,julianG,001,c,2019_Oct_10_1246,Experimento,3.2.3,60.027994298001175,
8,14,14,999,0.5,0:10,3,Red,['space'],0,0,1,20:50,./completed_changuitos/montage_udfya_70.35_80.25.jpg,right,0,0,0,0,,,,,0,2,2,2,,,,,,,,,0,0,0,0,0,21,21,21,,,,,,,,,,,,,,,,,,,,,,,,,,,,,,,,264.431531546099,None,None,0,264.431531546099,None,,,,,,,,,,,,,,,,,,,,,,,,,,,,,,,,,,,,,,,,,,,,,,julianG,001,c,2019_Oct_10_1246,Experimento,3.2.3,60.027994298001175,
8,14,14,999,0.5,0:10,3,Yellow,None,0,0,1,20:50,./completed_changuitos/montage_udfya_70.35_80.25.jpg,right,0,0,0,0,,,,,0,2,2,2,,,,,,,,,0,0,0,0,0,22,22,22,,,,,,,,,,,,,,,,,,,,,,,,,,,,,,,,264.431531546099,None,None,1,264.431531546099,None,,,,,,,,,,,,,,,,,,,,,,,,,,,,,,,,,,,,,,,,,,,,,,julianG,001,c,2019_Oct_10_1246,Experimento,3.2.3,60.027994298001175,
8,14,14,999,0.5,0:10,3,Cyan,None,0,0,1,20:50,./completed_changuitos/montage_udfya_70.35_80.25.jpg,right,0,0,0,0,,,,,0,2,2,2,,,,,,,,,0,0,0,0,0,23,23,23,,,,,,,,,,,,,,,,,,,,,,,,,,,,,,,,264.431531546099,None,None,1,264.431531546099,None,,,,,,,,,,,,,,,,,,,,,,,,,,,,,,,,,,,,,,,,,,,,,,julianG,001,c,2019_Oct_10_1246,Experimento,3.2.3,60.027994298001175,
8,14,14,999,0.5,0:10,3,Green,None,0,0,1,20:50,./completed_changuitos/montage_udfya_70.35_80.25.jpg,right,0,0,0,0,,,,,0,2,2,2,,,,,,,,,0,0,0,0,0,24,24,24,,,,,,,,,,,,,,,,,,,,,,,,,,,,,,,,264.431531546099,None,None,1,264.431531546099,None,,,,,,,,,,,,,,,,,,,,,,,,,,,,,,,,,,,,,,,,,,,,,,julianG,001,c,2019_Oct_10_1246,Experimento,3.2.3,60.027994298001175,
8,14,14,999,0.5,0:10,3,White,None,0,0,1,20:50,./completed_changuitos/montage_udfya_70.35_80.25.jpg,right,0,0,0,0,,,,,0,2,2,2,,,,,,,,,0,0,0,0,0,25,25,25,,,,,,,,,,,,,,,,,,,,,,,,,,,,,,,,264.431531546099,None,None,1,264.431531546099,None,,,,,,,,,,,,,,,,,,,,,,,,,,,,,,,,,,,,,,,,,,,,,,julianG,001,c,2019_Oct_10_1246,Experimento,3.2.3,60.027994298001175,
8,14,14,999,0.5,0:10,3,Green,['space'],0,0,1,20:50,./completed_changuitos/montage_udfya_70.35_80.25.jpg,right,0,0,0,0,,,,,0,2,2,2,,,,,,,,,0,0,0,0,0,26,26,26,,,,,,,,,,,,,,,,,,,,,,,,,,,,,,,,264.431531546099,None,None,0,264.431531546099,None,,,,,,,,,,,,,,,,,,,,,,,,,,,,,,,,,,,,,,,,,,,,,,julianG,001,c,2019_Oct_10_1246,Experimento,3.2.3,60.027994298001175,
8,14,14,999,0.5,0:10,3,Red,None,0,0,1,20:50,./completed_changuitos/montage_udfya_70.35_80.25.jpg,right,0,0,0,0,,,,,0,2,2,2,,,,,,,,,0,0,0,0,0,27,27,27,,,,,,,,,,,,,,,,,,,,,,,,,,,,,,,,264.431531546099,None,None,1,264.431531546099,None,,,,,,,,,,,,,,,,,,,,,,,,,,,,,,,,,,,,,,,,,,,,,,julianG,001,c,2019_Oct_10_1246,Experimento,3.2.3,60.027994298001175,
8,14,14,999,0.5,0:10,3,Blue,None,0,0,1,20:50,./completed_changuitos/montage_udfya_70.35_80.25.jpg,right,0,0,0,0,,,,,0,2,2,2,,,,,,,,,0,0,0,0,0,28,28,28,,,,,,,,,,,,,,,,,,,,,,,,,,,,,,,,264.431531546099,None,None,1,264.431531546099,None,,,,,,,,,,,,,,,,,,,,,,,,,,,,,,,,,,,,,,,,,,,,,,julianG,001,c,2019_Oct_10_1246,Experimento,3.2.3,60.027994298001175,
8,14,14,999,0.5,0:10,3,Green,None,0,0,1,20:50,./completed_changuitos/montage_udfya_70.35_80.25.jpg,right,0,0,0,0,,,,,0,2,2,2,,,,,,,,,0,0,0,0,0,29,29,29,,,,,,,,,,,,,,,,,,,,,,,,,,,,,,,,264.4481963467988,None,None,1,264.4481963467988,None,,,,,,,,,,,,,,,,,,,,,,,,,,,,,,,,,,,,,,,,,,,,,,julianG,001,c,2019_Oct_10_1246,Experimento,3.2.3,60.027994298001175,
8,14,14,999,0.5,0:10,3,,,0,0,1,20:50,./completed_changuitos/montage_udfya_70.35_80.25.jpg,right,0,0,0,0,,,,,0,2,2,2,,,,,,,,,0,0,0,0,,,,,,,,,,,,,,,,,,,,,,,,,,,,,,,,,,,,,,,,,,,264.474444070991,None,left,0,1.0727764000039315,264.474444070991,None,264.474444070991,None,,,,,,,,,,,,,,,,,,,,,,,,,,,,,,,,,,,,julianG,001,c,2019_Oct_10_1246,Experimento,3.2.3,60.027994298001175,
8,14,14,999,0.5,0:10,3,,,0,0,1,20:50,,,0,0,0,0,,,,,0,2,2,2,,,,,,,,,,,,,,,,,,,,,,,,,,,,,,,,,,,,,,,,,,,,,,,,,,,,,,,,,,,,,,,,,,,,,,,,,,,,,,,,,,,,,,,,,,,,,,,,,,,julianG,001,c,2019_Oct_10_1246,Experimento,3.2.3,60.027994298001175,
8,14,14,999,0.5,0:10,3,,,0,1,0,25:50,./completed_changuitos/montage_lfqyx_43.89_37.35.jpg,left,0,0,0,0,,,,,0,3,3,3,,,,,0,0,0,0,,,,,,,,,,,,,,,,,,,,,265.69379545300035,273.461789723995,273.461789723995,281.4756756729912,281.4756756729912,295.4873680499877,left,1,0.9515025419968879,295.4873680499877,None,295.4873680499877,None,295.4873680499877,None,,,,,,,,,,,,,,,,,,,,,,,,,,,,,,,,,,,,,,,,,,,,,,,,,,,,,,,,julianG,001,c,2019_Oct_10_1246,Experimento,3.2.3,60.027994298001175,
8,14,14,999,0.5,0:10,3,,,0,1,0,25:50,,,0,0,0,0,,,,,0,3,3,3,,,,,,,,,,,,,,,,,,,,,,,,,,,,,,,,,,,,,,,,,,,,,,,,,,,,,,,,,,,,,,,,,,,,,,,,,,,,,,,,,,,,,,,,,,,,,,,,,,,julianG,001,c,2019_Oct_10_1246,Experimento,3.2.3,60.027994298001175,
8,14,14,999,0.5,0:10,3,,,0,1,0,10:50,./completed_changuitos/montage_jukwm_48.15_54.79.jpg,right,0,0,0,0,,,,,0,4,4,4,,,,,0,0,0,0,,,,,,,,,,,,,,,,,,,,,296.59484938198875,301.20194109500153,301.20194109500153,309.21619044599356,309.21619044599356,323.22769010099,right,1,1.1171851240069373,323.22769010099,None,323.22769010099,None,323.22769010099,None,,,,,,,,,,,,,,,,,,,,,,,,,,,,,,,,,,,,,,,,,,,,,,,,,,,,,,,,julianG,001,c,2019_Oct_10_1246,Experimento,3.2.3,60.027994298001175,
8,14,14,999,0.5,0:10,3,,,0,1,0,10:50,,,0,0,0,0,,,,,0,4,4,4,,,,,,,,,,,,,,,,,,,,,,,,,,,,,,,,,,,,,,,,,,,,,,,,,,,,,,,,,,,,,,,,,,,,,,,,,,,,,,,,,,,,,,,,,,,,,,,,,,,julianG,001,c,2019_Oct_10_1246,Experimento,3.2.3,60.027994298001175,
8,14,14,999,0.5,0:10,3,,,0,1,0,19:50,./completed_changuitos/montage_zrnmh_89.65_78.0.jpg,left,0,0,0,0,,,,,0,5,5,5,,,,,0,0,0,0,,,,,,,,,,,,,,,,,,,,,324.4966762979893,326.47700484299276,326.47700484299276,334.4909123319958,334.4909123319958,348.50276066199876,left,1,0.9169172219990287,348.50276066199876,None,348.50276066199876,None,348.50276066199876,None,,,,,,,,,,,,,,,,,,,,,,,,,,,,,,,,,,,,,,,,,,,,,,,,,,,,,,,,julianG,001,c,2019_Oct_10_1246,Experimento,3.2.3,60.027994298001175,
8,14,14,999,0.5,0:10,3,,,0,1,0,19:50,,,0,0,0,0,,,,,0,5,5,5,,,,,,,,,,,,,,,,,,,,,,,,,,,,,,,,,,,,,,,,,,,,,,,,,,,,,,,,,,,,,,,,,,,,,,,,,,,,,,,,,,,,,,,,,,,,,,,,,,,julianG,001,c,2019_Oct_10_1246,Experimento,3.2.3,60.027994298001175,
8,14,14,999,0.5,0:10,3,Red,None,0,0,1,28:50,./completed_changuitos/montage_zmjoq_33.19_28.79.jpg,left,0,0,0,0,,,,,0,6,6,6,,,,,,,,,0,0,0,0,0,0,0,0,,,,,,,,,,,,,,,,,,,,,,,,,,,,349.5546404029883,352.08488826898974,352.08488826898974,None,360.12427578499774,360.6320140099997,None,1,360.12427578499774,None,,,,,,,,,,,,,,,,,,,,,,,,,,,,,,,,,,,,,,,,,,,,,,julianG,001,c,2019_Oct_10_1246,Experimento,3.2.3,60.027994298001175,
8,14,14,999,0.5,0:10,3,Magenta,['space'],0,0,1,28:50,./completed_changuitos/montage_zmjoq_33.19_28.79.jpg,left,0,0,0,0,,,,,0,6,6,6,,,,,,,,,0,0,0,0,0,1,1,1,,,,,,,,,,,,,,,,,,,,,,,,,,,,,,,,362.1313325319934,362.63127368599817,None,0,362.1313325319934,362.1313325319934,,,,,,,,,,,,,,,,,,,,,,,,,,,,,,,,,,,,,,,,,,,,,,julianG,001,c,2019_Oct_10_1246,Experimento,3.2.3,60.027994298001175,
8,14,14,999,0.5,0:10,3,Green,None,0,0,1,28:50,./completed_changuitos/montage_zmjoq_33.19_28.79.jpg,left,0,0,0,0,,,,,0,6,6,6,,,,,,,,,0,0,0,0,0,2,2,2,,,,,,,,,,,,,,,,,,,,,,,,,,,,,,,,364.1304621179879,364.6302046560013,None,1,364.1304621179879,364.1304621179879,,,,,,,,,,,,,,,,,,,,,,,,,,,,,,,,,,,,,,,,,,,,,,julianG,001,c,2019_Oct_10_1246,Experimento,3.2.3,60.027994298001175,
8,14,14,999,0.5,0:10,3,Yellow,['space'],0,0,1,28:50,./completed_changuitos/montage_zmjoq_33.19_28.79.jpg,left,0,0,0,0,,,,,0,6,6,6,,,,,,,,,0,0,0,0,0,3,3,3,,,,,,,,,,,,,,,,,,,,,,,,,,,,,,,,366.1301094419905,366.6298939559929,None,0,366.1301094419905,366.1301094419905,,,,,,,,,,,,,,,,,,,,,,,,,,,,,,,,,,,,,,,,,,,,,,julianG,001,c,2019_Oct_10_1246,Experimento,3.2.3,60.027994298001175,
8,14,14,999,0.5,0:10,3,Blue,None,0,0,1,28:50,./completed_changuitos/montage_zmjoq_33.19_28.79.jpg,left,0,0,0,0,,,,,0,6,6,6,,,,,,,,,0,0,0,0,0,4,4,4,,,,,,,,,,,,,,,,,,,,,,,,,,,,,,,,368.1293342989957,368.6292266550008,None,1,368.1293342989957,368.1293342989957,,,,,,,,,,,,,,,,,,,,,,,,,,,,,,,,,,,,,,,,,,,,,,julianG,001,c,2019_Oct_10_1246,Experimento,3.2.3,60.027994298001175,
8,14,14,999,0.5,0:10,3,Cyan,None,0,0,1,28:50,./completed_changuitos/montage_zmjoq_33.19_28.79.jpg,left,0,0,0,0,,,,,0,6,6,6,,,,,,,,,0,0,0,0,0,5,5,5,,,,,,,,,,,,,,,,,,,,,,,,,,,,,,,,370.1286584539921,370.62863409199053,None,1,370.1286584539921,370.1286584539921,,,,,,,,,,,,,,,,,,,,,,,,,,,,,,,,,,,,,,,,,,,,,,julianG,001,c,2019_Oct_10_1246,Experimento,3.2.3,60.027994298001175,
8,14,14,999,0.5,0:10,3,Blue,['space'],0,0,1,28:50,./completed_changuitos/montage_zmjoq_33.19_28.79.jpg,left,0,0,0,0,,,,,0,6,6,6,,,,,,,,,0,0,0,0,0,6,6,6,,,,,,,,,,,,,,,,,,,,,,,,,,,,,,,,372.12803142100165,372.62745071300014,['return'],0,372.12803142100165,372.12803142100165,[0.2997138229984557],,,,,,,,,,,,,,,,,,,,,,,,,,,,,,,,,,,,,,,,,,,,,julianG,001,c,2019_Oct_10_1246,Experimento,3.2.3,60.027994298001175,
8,14,14,999,0.5,0:10,3,Yellow,None,0,0,1,28:50,./completed_changuitos/montage_zmjoq_33.19_28.79.jpg,left,0,0,0,0,,,,,0,6,6,6,,,,,,,,,0,0,0,0,0,7,7,7,,,,,,,,,,,,,,,,,,,,,,,,,,,,,,,,374.1106624626991,None,None,1,374.1106624626991,None,,,,,,,,,,,,,,,,,,,,,,,,,,,,,,,,,,,,,,,,,,,,,,julianG,001,c,2019_Oct_10_1246,Experimento,3.2.3,60.027994298001175,
8,14,14,999,0.5,0:10,3,Cyan,None,0,0,1,28:50,./completed_changuitos/montage_zmjoq_33.19_28.79.jpg,left,0,0,0,0,,,,,0,6,6,6,,,,,,,,,0,0,0,0,0,8,8,8,,,,,,,,,,,,,,,,,,,,,,,,,,,,,,,,374.1106624626991,None,None,1,374.1106624626991,None,,,,,,,,,,,,,,,,,,,,,,,,,,,,,,,,,,,,,,,,,,,,,,julianG,001,c,2019_Oct_10_1246,Experimento,3.2.3,60.027994298001175,
8,14,14,999,0.5,0:10,3,Yellow,['space'],0,0,1,28:50,./completed_changuitos/montage_zmjoq_33.19_28.79.jpg,left,0,0,0,0,,,,,0,6,6,6,,,,,,,,,0,0,0,0,0,9,9,9,,,,,,,,,,,,,,,,,,,,,,,,,,,,,,,,374.1106624626991,None,None,0,374.1106624626991,None,,,,,,,,,,,,,,,,,,,,,,,,,,,,,,,,,,,,,,,,,,,,,,julianG,001,c,2019_Oct_10_1246,Experimento,3.2.3,60.027994298001175,
8,14,14,999,0.5,0:10,3,Magenta,None,0,0,1,28:50,./completed_changuitos/montage_zmjoq_33.19_28.79.jpg,left,0,0,0,0,,,,,0,6,6,6,,,,,,,,,0,0,0,0,0,10,10,10,,,,,,,,,,,,,,,,,,,,,,,,,,,,,,,,374.1106624626991,None,None,1,374.1106624626991,None,,,,,,,,,,,,,,,,,,,,,,,,,,,,,,,,,,,,,,,,,,,,,,julianG,001,c,2019_Oct_10_1246,Experimento,3.2.3,60.027994298001175,
8,14,14,999,0.5,0:10,3,Red,None,0,0,1,28:50,./completed_changuitos/montage_zmjoq_33.19_28.79.jpg,left,0,0,0,0,,,,,0,6,6,6,,,,,,,,,0,0,0,0,0,11,11,11,,,,,,,,,,,,,,,,,,,,,,,,,,,,,,,,374.1273272633989,None,None,1,374.1273272633989,None,,,,,,,,,,,,,,,,,,,,,,,,,,,,,,,,,,,,,,,,,,,,,,julianG,001,c,2019_Oct_10_1246,Experimento,3.2.3,60.027994298001175,
8,14,14,999,0.5,0:10,3,Magenta,['space'],0,0,1,28:50,./completed_changuitos/montage_zmjoq_33.19_28.79.jpg,left,0,0,0,0,,,,,0,6,6,6,,,,,,,,,0,0,0,0,0,12,12,12,,,,,,,,,,,,,,,,,,,,,,,,,,,,,,,,374.1273272633989,None,None,0,374.1273272633989,None,,,,,,,,,,,,,,,,,,,,,,,,,,,,,,,,,,,,,,,,,,,,,,julianG,001,c,2019_Oct_10_1246,Experimento,3.2.3,60.027994298001175,
8,14,14,999,0.5,0:10,3,Red,['space'],0,0,1,28:50,./completed_changuitos/montage_zmjoq_33.19_28.79.jpg,left,0,0,0,0,,,,,0,6,6,6,,,,,,,,,0,0,0,0,0,13,13,13,,,,,,,,,,,,,,,,,,,,,,,,,,,,,,,,374.1273272633989,None,None,0,374.1273272633989,None,,,,,,,,,,,,,,,,,,,,,,,,,,,,,,,,,,,,,,,,,,,,,,julianG,001,c,2019_Oct_10_1246,Experimento,3.2.3,60.027994298001175,
8,14,14,999,0.5,0:10,3,Yellow,None,0,0,1,28:50,./completed_changuitos/montage_zmjoq_33.19_28.79.jpg,left,0,0,0,0,,,,,0,6,6,6,,,,,,,,,0,0,0,0,0,14,14,14,,,,,,,,,,,,,,,,,,,,,,,,,,,,,,,,374.1273272633989,None,None,1,374.1273272633989,None,,,,,,,,,,,,,,,,,,,,,,,,,,,,,,,,,,,,,,,,,,,,,,julianG,001,c,2019_Oct_10_1246,Experimento,3.2.3,60.027994298001175,
8,14,14,999,0.5,0:10,3,Cyan,None,0,0,1,28:50,./completed_changuitos/montage_zmjoq_33.19_28.79.jpg,left,0,0,0,0,,,,,0,6,6,6,,,,,,,,,0,0,0,0,0,15,15,15,,,,,,,,,,,,,,,,,,,,,,,,,,,,,,,,374.1273272633989,None,None,1,374.1273272633989,None,,,,,,,,,,,,,,,,,,,,,,,,,,,,,,,,,,,,,,,,,,,,,,julianG,001,c,2019_Oct_10_1246,Experimento,3.2.3,60.027994298001175,
8,14,14,999,0.5,0:10,3,Green,None,0,0,1,28:50,./completed_changuitos/montage_zmjoq_33.19_28.79.jpg,left,0,0,0,0,,,,,0,6,6,6,,,,,,,,,0,0,0,0,0,16,16,16,,,,,,,,,,,,,,,,,,,,,,,,,,,,,,,,374.1273272633989,None,None,1,374.1273272633989,None,,,,,,,,,,,,,,,,,,,,,,,,,,,,,,,,,,,,,,,,,,,,,,julianG,001,c,2019_Oct_10_1246,Experimento,3.2.3,60.027994298001175,
8,14,14,999,0.5,0:10,3,White,None,0,0,1,28:50,./completed_changuitos/montage_zmjoq_33.19_28.79.jpg,left,0,0,0,0,,,,,0,6,6,6,,,,,,,,,0,0,0,0,0,17,17,17,,,,,,,,,,,,,,,,,,,,,,,,,,,,,,,,374.1439920640987,None,None,1,374.1439920640987,None,,,,,,,,,,,,,,,,,,,,,,,,,,,,,,,,,,,,,,,,,,,,,,julianG,001,c,2019_Oct_10_1246,Experimento,3.2.3,60.027994298001175,
8,14,14,999,0.5,0:10,3,Green,['space'],0,0,1,28:50,./completed_changuitos/montage_zmjoq_33.19_28.79.jpg,left,0,0,0,0,,,,,0,6,6,6,,,,,,,,,0,0,0,0,0,18,18,18,,,,,,,,,,,,,,,,,,,,,,,,,,,,,,,,374.1439920640987,None,None,0,374.1439920640987,None,,,,,,,,,,,,,,,,,,,,,,,,,,,,,,,,,,,,,,,,,,,,,,julianG,001,c,2019_Oct_10_1246,Experimento,3.2.3,60.027994298001175,
8,14,14,999,0.5,0:10,3,Red,None,0,0,1,28:50,./completed_changuitos/montage_zmjoq_33.19_28.79.jpg,left,0,0,0,0,,,,,0,6,6,6,,,,,,,,,0,0,0,0,0,19,19,19,,,,,,,,,,,,,,,,,,,,,,,,,,,,,,,,374.1439920640987,None,None,1,374.1439920640987,None,,,,,,,,,,,,,,,,,,,,,,,,,,,,,,,,,,,,,,,,,,,,,,julianG,001,c,2019_Oct_10_1246,Experimento,3.2.3,60.027994298001175,
8,14,14,999,0.5,0:10,3,Blue,None,0,0,1,28:50,./completed_changuitos/montage_zmjoq_33.19_28.79.jpg,left,0,0,0,0,,,,,0,6,6,6,,,,,,,,,0,0,0,0,0,20,20,20,,,,,,,,,,,,,,,,,,,,,,,,,,,,,,,,374.1439920640987,None,None,1,374.1439920640987,None,,,,,,,,,,,,,,,,,,,,,,,,,,,,,,,,,,,,,,,,,,,,,,julianG,001,c,2019_Oct_10_1246,Experimento,3.2.3,60.027994298001175,
8,14,14,999,0.5,0:10,3,Green,None,0,0,1,28:50,./completed_changuitos/montage_zmjoq_33.19_28.79.jpg,left,0,0,0,0,,,,,0,6,6,6,,,,,,,,,0,0,0,0,0,21,21,21,,,,,,,,,,,,,,,,,,,,,,,,,,,,,,,,374.1439920640987,None,None,1,374.1439920640987,None,,,,,,,,,,,,,,,,,,,,,,,,,,,,,,,,,,,,,,,,,,,,,,julianG,001,c,2019_Oct_10_1246,Experimento,3.2.3,60.027994298001175,
8,14,14,999,0.5,0:10,3,,,0,0,1,28:50,./completed_changuitos/montage_zmjoq_33.19_28.79.jpg,left,0,0,0,0,,,,,0,6,6,6,,,,,,,,,0,0,0,0,,,,,,,,,,,,,,,,,,,,,,,,,,,,,,,,,,,,,,,,,,,374.17827710499114,None,right,0,0.9322764910029946,374.17827710499114,None,374.17827710499114,None,,,,,,,,,,,,,,,,,,,,,,,,,,,,,,,,,,,,julianG,001,c,2019_Oct_10_1246,Experimento,3.2.3,60.027994298001175,
8,14,14,999,0.5,0:10,3,,,0,0,1,28:50,,,0,0,0,0,,,,,0,6,6,6,,,,,,,,,,,,,,,,,,,,,,,,,,,,,,,,,,,,,,,,,,,,,,,,,,,,,,,,,,,,,,,,,,,,,,,,,,,,,,,,,,,,,,,,,,,,,,,,,,,julianG,001,c,2019_Oct_10_1246,Experimento,3.2.3,60.027994298001175,
8,14,14,999,0.5,0:10,3,,,0,1,0,19:50,./completed_changuitos/montage_mgyea_91.95_81.2.jpg,left,0,0,0,0,,,,,0,7,7,7,,,,,0,0,0,0,,,,,,,,,,,,,,,,,,,,,375.2499094879895,381.4411421429977,381.4411421429977,389.4550007379876,389.4550007379876,403.46731318198727,left,1,5.815169433990377,403.46731318198727,None,403.46731318198727,None,403.46731318198727,406.48255224699096,,,,,,,,,,,,,,,,,,,,,,,,,,,,,,,,,,,,,,,,,,,,,,,,,,,,,,,,julianG,001,c,2019_Oct_10_1246,Experimento,3.2.3,60.027994298001175,
8,14,14,999,0.5,0:10,3,,,0,1,0,19:50,,,0,0,0,0,,,,,0,7,7,7,,,,,,,,,,,,,,,,,,,,,,,,,,,,,,,,,,,,,,,,,,,,,,,,,,,,,,,,,,,,,,,,,,,,,,,,,,,,,,,,,,,,,,,,,,,,,,,,,,,julianG,001,c,2019_Oct_10_1246,Experimento,3.2.3,60.027994298001175,
8,14,14,999,0.5,0:10,3,Magenta,None,0,0,1,20:50,./completed_changuitos/montage_amdsn_101.65_90.95.jpg,left,0,0,0,0,,,,,0,8,8,8,,,,,,,,,0,0,0,0,0,0,0,0,,,,,,,,,,,,,,,,,,,,,,,,,,,,409.4159016449994,412.3642421650002,412.3642421650002,None,420.4052576709946,420.9113390079874,None,1,420.4052576709946,None,,,,,,,,,,,,,,,,,,,,,,,,,,,,,,,,,,,,,,,,,,,,,,julianG,001,c,2019_Oct_10_1246,Experimento,3.2.3,60.027994298001175,
8,14,14,999,0.5,0:10,3,Blue,['space'],0,0,1,20:50,./completed_changuitos/montage_amdsn_101.65_90.95.jpg,left,0,0,0,0,,,,,0,8,8,8,,,,,,,,,0,0,0,0,0,1,1,1,,,,,,,,,,,,,,,,,,,,,,,,,,,,,,,,422.41047224699287,422.9106380909943,None,0,422.41047224699287,422.41047224699287,,,,,,,,,,,,,,,,,,,,,,,,,,,,,,,,,,,,,,,,,,,,,,julianG,001,c,2019_Oct_10_1246,Experimento,3.2.3,60.027994298001175,
8,14,14,999,0.5,0:10,3,Cyan,None,0,0,1,20:50,./completed_changuitos/montage_amdsn_101.65_90.95.jpg,left,0,0,0,0,,,,,0,8,8,8,,,,,,,,,0,0,0,0,0,2,2,2,,,,,,,,,,,,,,,,,,,,,,,,,,,,,,,,424.4101194729883,424.9099781309924,None,1,424.4101194729883,424.4101194729883,,,,,,,,,,,,,,,,,,,,,,,,,,,,,,,,,,,,,,,,,,,,,,julianG,001,c,2019_Oct_10_1246,Experimento,3.2.3,60.027994298001175,
8,14,14,999,0.5,0:10,3,Yellow,None,0,0,1,20:50,./completed_changuitos/montage_amdsn_101.65_90.95.jpg,left,0,0,0,0,,,,,0,8,8,8,,,,,,,,,0,0,0,0,0,3,3,3,,,,,,,,,,,,,,,,,,,,,,,,,,,,,,,,426.40943827498995,426.90928658600023,None,1,426.40943827498995,426.40943827498995,,,,,,,,,,,,,,,,,,,,,,,,,,,,,,,,,,,,,,,,,,,,,,julianG,001,c,2019_Oct_10_1246,Experimento,3.2.3,60.027994298001175,
8,14,14,999,0.5,0:10,3,Cyan,None,0,0,1,20:50,./completed_changuitos/montage_amdsn_101.65_90.95.jpg,left,0,0,0,0,,,,,0,8,8,8,,,,,,,,,0,0,0,0,0,4,4,4,,,,,,,,,,,,,,,,,,,,,,,,,,,,,,,,428.4088365909993,428.9086060369882,['return'],0,428.4088365909993,428.4088365909993,[0.66622747600195],,,,,,,,,,,,,,,,,,,,,,,,,,,,,,,,,,,,,,,,,,,,,julianG,001,c,2019_Oct_10_1246,Experimento,3.2.3,60.027994298001175,
8,14,14,999,0.5,0:10,3,Blue,None,0,0,1,20:50,./completed_changuitos/montage_amdsn_101.65_90.95.jpg,left,0,0,0,0,,,,,0,8,8,8,,,,,,,,,0,0,0,0,0,5,5,5,,,,,,,,,,,,,,,,,,,,,,,,,,,,,,,,430.4079735099949,430.90790551999817,['return'],0,430.4079735099949,430.4079735099949,[1.2170133430045098],,,,,,,,,,,,,,,,,,,,,,,,,,,,,,,,,,,,,,,,,,,,,julianG,001,c,2019_Oct_10_1246,Experimento,3.2.3,60.027994298001175,
8,14,14,999,0.5,0:10,3,Cyan,['space'],0,0,1,20:50,./completed_changuitos/montage_amdsn_101.65_90.95.jpg,left,0,0,0,0,,,,,0,8,8,8,,,,,,,,,0,0,0,0,0,6,6,6,,,,,,,,,,,,,,,,,,,,,,,,,,,,,,,,432.4071123879985,432.9072486029909,['return'],0,432.4071123879985,432.4071123879985,[1.0168552029936109],,,,,,,,,,,,,,,,,,,,,,,,,,,,,,,,,,,,,,,,,,,,,julianG,001,c,2019_Oct_10_1246,Experimento,3.2.3,60.027994298001175,
8,14,14,999,0.5,0:10,3,Magenta,None,0,0,1,20:50,./completed_changuitos/montage_amdsn_101.65_90.95.jpg,left,0,0,0,0,,,,,0,8,8,8,,,,,,,,,0,0,0,0,0,7,7,7,,,,,,,,,,,,,,,,,,,,,,,,,,,,,,,,434.39006751369743,None,None,1,434.39006751369743,None,,,,,,,,,,,,,,,,,,,,,,,,,,,,,,,,,,,,,,,,,,,,,,julianG,001,c,2019_Oct_10_1246,Experimento,3.2.3,60.027994298001175,
8,14,14,999,0.5,0:10,3,Red,None,0,0,1,20:50,./completed_changuitos/montage_amdsn_101.65_90.95.jpg,left,0,0,0,0,,,,,0,8,8,8,,,,,,,,,0,0,0,0,0,8,8,8,,,,,,,,,,,,,,,,,,,,,,,,,,,,,,,,434.39006751369743,None,None,1,434.39006751369743,None,,,,,,,,,,,,,,,,,,,,,,,,,,,,,,,,,,,,,,,,,,,,,,julianG,001,c,2019_Oct_10_1246,Experimento,3.2.3,60.027994298001175,
8,14,14,999,0.5,0:10,3,Magenta,['space'],0,0,1,20:50,./completed_changuitos/montage_amdsn_101.65_90.95.jpg,left,0,0,0,0,,,,,0,8,8,8,,,,,,,,,0,0,0,0,0,9,9,9,,,,,,,,,,,,,,,,,,,,,,,,,,,,,,,,434.39006751369743,None,None,0,434.39006751369743,None,,,,,,,,,,,,,,,,,,,,,,,,,,,,,,,,,,,,,,,,,,,,,,julianG,001,c,2019_Oct_10_1246,Experimento,3.2.3,60.027994298001175,
8,14,14,999,0.5,0:10,3,Green,None,0,0,1,20:50,./completed_changuitos/montage_amdsn_101.65_90.95.jpg,left,0,0,0,0,,,,,0,8,8,8,,,,,,,,,0,0,0,0,0,10,10,10,,,,,,,,,,,,,,,,,,,,,,,,,,,,,,,,434.39006751369743,None,None,1,434.39006751369743,None,,,,,,,,,,,,,,,,,,,,,,,,,,,,,,,,,,,,,,,,,,,,,,julianG,001,c,2019_Oct_10_1246,Experimento,3.2.3,60.027994298001175,
8,14,14,999,0.5,0:10,3,Yellow,['space'],0,0,1,20:50,./completed_changuitos/montage_amdsn_101.65_90.95.jpg,left,0,0,0,0,,,,,0,8,8,8,,,,,,,,,0,0,0,0,0,11,11,11,,,,,,,,,,,,,,,,,,,,,,,,,,,,,,,,434.40673231439723,None,None,0,434.40673231439723,None,,,,,,,,,,,,,,,,,,,,,,,,,,,,,,,,,,,,,,,,,,,,,,julianG,001,c,2019_Oct_10_1246,Experimento,3.2.3,60.027994298001175,
8,14,14,999,0.5,0:10,3,Blue,None,0,0,1,20:50,./completed_changuitos/montage_amdsn_101.65_90.95.jpg,left,0,0,0,0,,,,,0,8,8,8,,,,,,,,,0,0,0,0,0,12,12,12,,,,,,,,,,,,,,,,,,,,,,,,,,,,,,,,434.40673231439723,None,None,1,434.40673231439723,None,,,,,,,,,,,,,,,,,,,,,,,,,,,,,,,,,,,,,,,,,,,,,,julianG,001,c,2019_Oct_10_1246,Experimento,3.2.3,60.027994298001175,
8,14,14,999,0.5,0:10,3,Cyan,None,0,0,1,20:50,./completed_changuitos/montage_amdsn_101.65_90.95.jpg,left,0,0,0,0,,,,,0,8,8,8,,,,,,,,,0,0,0,0,0,13,13,13,,,,,,,,,,,,,,,,,,,,,,,,,,,,,,,,434.40673231439723,None,None,1,434.40673231439723,None,,,,,,,,,,,,,,,,,,,,,,,,,,,,,,,,,,,,,,,,,,,,,,julianG,001,c,2019_Oct_10_1246,Experimento,3.2.3,60.027994298001175,
8,14,14,999,0.5,0:10,3,Blue,['space'],0,0,1,20:50,./completed_changuitos/montage_amdsn_101.65_90.95.jpg,left,0,0,0,0,,,,,0,8,8,8,,,,,,,,,0,0,0,0,0,14,14,14,,,,,,,,,,,,,,,,,,,,,,,,,,,,,,,,434.40673231439723,None,None,0,434.40673231439723,None,,,,,,,,,,,,,,,,,,,,,,,,,,,,,,,,,,,,,,,,,,,,,,julianG,001,c,2019_Oct_10_1246,Experimento,3.2.3,60.027994298001175,
8,14,14,999,0.5,0:10,3,Yellow,None,0,0,1,20:50,./completed_changuitos/montage_amdsn_101.65_90.95.jpg,left,0,0,0,0,,,,,0,8,8,8,,,,,,,,,0,0,0,0,0,15,15,15,,,,,,,,,,,,,,,,,,,,,,,,,,,,,,,,434.40673231439723,None,None,1,434.40673231439723,None,,,,,,,,,,,,,,,,,,,,,,,,,,,,,,,,,,,,,,,,,,,,,,julianG,001,c,2019_Oct_10_1246,Experimento,3.2.3,60.027994298001175,
8,14,14,999,0.5,0:10,3,Cyan,None,0,0,1,20:50,./completed_changuitos/montage_amdsn_101.65_90.95.jpg,left,0,0,0,0,,,,,0,8,8,8,,,,,,,,,0,0,0,0,0,16,16,16,,,,,,,,,,,,,,,,,,,,,,,,,,,,,,,,434.40673231439723,None,None,1,434.40673231439723,None,,,,,,,,,,,,,,,,,,,,,,,,,,,,,,,,,,,,,,,,,,,,,,julianG,001,c,2019_Oct_10_1246,Experimento,3.2.3,60.027994298001175,
8,14,14,999,0.5,0:10,3,Yellow,['space'],0,0,1,20:50,./completed_changuitos/montage_amdsn_101.65_90.95.jpg,left,0,0,0,0,,,,,0,8,8,8,,,,,,,,,0,0,0,0,0,17,17,17,,,,,,,,,,,,,,,,,,,,,,,,,,,,,,,,434.42339711509703,None,None,0,434.42339711509703,None,,,,,,,,,,,,,,,,,,,,,,,,,,,,,,,,,,,,,,,,,,,,,,julianG,001,c,2019_Oct_10_1246,Experimento,3.2.3,60.027994298001175,
8,14,14,999,0.5,0:10,3,Magenta,None,0,0,1,20:50,./completed_changuitos/montage_amdsn_101.65_90.95.jpg,left,0,0,0,0,,,,,0,8,8,8,,,,,,,,,0,0,0,0,0,18,18,18,,,,,,,,,,,,,,,,,,,,,,,,,,,,,,,,434.42339711509703,None,None,1,434.42339711509703,None,,,,,,,,,,,,,,,,,,,,,,,,,,,,,,,,,,,,,,,,,,,,,,julianG,001,c,2019_Oct_10_1246,Experimento,3.2.3,60.027994298001175,
8,14,14,999,0.5,0:10,3,Red,None,0,0,1,20:50,./completed_changuitos/montage_amdsn_101.65_90.95.jpg,left,0,0,0,0,,,,,0,8,8,8,,,,,,,,,0,0,0,0,0,19,19,19,,,,,,,,,,,,,,,,,,,,,,,,,,,,,,,,434.42339711509703,None,None,1,434.42339711509703,None,,,,,,,,,,,,,,,,,,,,,,,,,,,,,,,,,,,,,,,,,,,,,,julianG,001,c,2019_Oct_10_1246,Experimento,3.2.3,60.027994298001175,
8,14,14,999,0.5,0:10,3,Magenta,['space'],0,0,1,20:50,./completed_changuitos/montage_amdsn_101.65_90.95.jpg,left,0,0,0,0,,,,,0,8,8,8,,,,,,,,,0,0,0,0,0,20,20,20,,,,,,,,,,,,,,,,,,,,,,,,,,,,,,,,434.42339711509703,None,None,0,434.42339711509703,None,,,,,,,,,,,,,,,,,,,,,,,,,,,,,,,,,,,,,,,,,,,,,,julianG,001,c,2019_Oct_10_1246,Experimento,3.2.3,60.027994298001175,
8,14,14,999,0.5,0:10,3,Red,['space'],0,0,1,20:50,./completed_changuitos/montage_amdsn_101.65_90.95.jpg,left,0,0,0,0,,,,,0,8,8,8,,,,,,,,,0,0,0,0,0,21,21,21,,,,,,,,,,,,,,,,,,,,,,,,,,,,,,,,434.42339711509703,None,None,0,434.42339711509703,None,,,,,,,,,,,,,,,,,,,,,,,,,,,,,,,,,,,,,,,,,,,,,,julianG,001,c,2019_Oct_10_1246,Experimento,3.2.3,60.027994298001175,
8,14,14,999,0.5,0:10,3,Yellow,None,0,0,1,20:50,./completed_changuitos/montage_amdsn_101.65_90.95.jpg,left,0,0,0,0,,,,,0,8,8,8,,,,,,,,,0,0,0,0,0,22,22,22,,,,,,,,,,,,,,,,,,,,,,,,,,,,,,,,434.42339711509703,None,None,1,434.42339711509703,None,,,,,,,,,,,,,,,,,,,,,,,,,,,,,,,,,,,,,,,,,,,,,,julianG,001,c,2019_Oct_10_1246,Experimento,3.2.3,60.027994298001175,
8,14,14,999,0.5,0:10,3,Cyan,None,0,0,1,20:50,./completed_changuitos/montage_amdsn_101.65_90.95.jpg,left,0,0,0,0,,,,,0,8,8,8,,,,,,,,,0,0,0,0,0,23,23,23,,,,,,,,,,,,,,,,,,,,,,,,,,,,,,,,434.42339711509703,None,None,1,434.42339711509703,None,,,,,,,,,,,,,,,,,,,,,,,,,,,,,,,,,,,,,,,,,,,,,,julianG,001,c,2019_Oct_10_1246,Experimento,3.2.3,60.027994298001175,
8,14,14,999,0.5,0:10,3,Green,None,0,0,1,20:50,./completed_changuitos/montage_amdsn_101.65_90.95.jpg,left,0,0,0,0,,,,,0,8,8,8,,,,,,,,,0,0,0,0,0,24,24,24,,,,,,,,,,,,,,,,,,,,,,,,,,,,,,,,434.42339711509703,None,None,1,434.42339711509703,None,,,,,,,,,,,,,,,,,,,,,,,,,,,,,,,,,,,,,,,,,,,,,,julianG,001,c,2019_Oct_10_1246,Experimento,3.2.3,60.027994298001175,
8,14,14,999,0.5,0:10,3,White,None,0,0,1,20:50,./completed_changuitos/montage_amdsn_101.65_90.95.jpg,left,0,0,0,0,,,,,0,8,8,8,,,,,,,,,0,0,0,0,0,25,25,25,,,,,,,,,,,,,,,,,,,,,,,,,,,,,,,,434.42339711509703,None,None,1,434.42339711509703,None,,,,,,,,,,,,,,,,,,,,,,,,,,,,,,,,,,,,,,,,,,,,,,julianG,001,c,2019_Oct_10_1246,Experimento,3.2.3,60.027994298001175,
8,14,14,999,0.5,0:10,3,Green,['space'],0,0,1,20:50,./completed_changuitos/montage_amdsn_101.65_90.95.jpg,left,0,0,0,0,,,,,0,8,8,8,,,,,,,,,0,0,0,0,0,26,26,26,,,,,,,,,,,,,,,,,,,,,,,,,,,,,,,,434.42339711509703,None,None,0,434.42339711509703,None,,,,,,,,,,,,,,,,,,,,,,,,,,,,,,,,,,,,,,,,,,,,,,julianG,001,c,2019_Oct_10_1246,Experimento,3.2.3,60.027994298001175,
8,14,14,999,0.5,0:10,3,Red,None,0,0,1,20:50,./completed_changuitos/montage_amdsn_101.65_90.95.jpg,left,0,0,0,0,,,,,0,8,8,8,,,,,,,,,0,0,0,0,0,27,27,27,,,,,,,,,,,,,,,,,,,,,,,,,,,,,,,,434.42339711509703,None,None,1,434.42339711509703,None,,,,,,,,,,,,,,,,,,,,,,,,,,,,,,,,,,,,,,,,,,,,,,julianG,001,c,2019_Oct_10_1246,Experimento,3.2.3,60.027994298001175,
8,14,14,999,0.5,0:10,3,Blue,None,0,0,1,20:50,./completed_changuitos/montage_amdsn_101.65_90.95.jpg,left,0,0,0,0,,,,,0,8,8,8,,,,,,,,,0,0,0,0,0,28,28,28,,,,,,,,,,,,,,,,,,,,,,,,,,,,,,,,434.44006191579683,None,None,1,434.44006191579683,None,,,,,,,,,,,,,,,,,,,,,,,,,,,,,,,,,,,,,,,,,,,,,,julianG,001,c,2019_Oct_10_1246,Experimento,3.2.3,60.027994298001175,
8,14,14,999,0.5,0:10,3,Green,None,0,0,1,20:50,./completed_changuitos/montage_amdsn_101.65_90.95.jpg,left,0,0,0,0,,,,,0,8,8,8,,,,,,,,,0,0,0,0,0,29,29,29,,,,,,,,,,,,,,,,,,,,,,,,,,,,,,,,434.44006191579683,None,None,1,434.44006191579683,None,,,,,,,,,,,,,,,,,,,,,,,,,,,,,,,,,,,,,,,,,,,,,,julianG,001,c,2019_Oct_10_1246,Experimento,3.2.3,60.027994298001175,
8,14,14,999,0.5,0:10,3,,,0,0,1,20:50,./completed_changuitos/montage_amdsn_101.65_90.95.jpg,left,0,0,0,0,,,,,0,8,8,8,,,,,,,,,0,0,0,0,,,,,,,,,,,,,,,,,,,,,,,,,,,,,,,,,,,,,,,,,,,434.4648900129978,None,left,1,1.0915170579974074,434.4648900129978,None,434.4648900129978,None,,,,,,,,,,,,,,,,,,,,,,,,,,,,,,,,,,,,julianG,001,c,2019_Oct_10_1246,Experimento,3.2.3,60.027994298001175,
8,14,14,999,0.5,0:10,3,,,0,0,1,20:50,,,0,0,0,0,,,,,0,8,8,8,,,,,,,,,,,,,,,,,,,,,,,,,,,,,,,,,,,,,,,,,,,,,,,,,,,,,,,,,,,,,,,,,,,,,,,,,,,,,,,,,,,,,,,,,,,,,,,,,,,julianG,001,c,2019_Oct_10_1246,Experimento,3.2.3,60.027994298001175,
8,14,14,999,0.5,0:10,3,Yellow,None,0,0,1,15:50,./completed_changuitos/montage_lzwcv_77.05_66.25.jpg,left,0,0,0,0,,,,,0,9,9,9,,,,,,,,,0,0,0,0,0,0,0,0,,,,,,,,,,,,,,,,,,,,,,,,,,,,435.67543140899215,438.12176717199327,438.12176717199327,None,446.1401224329893,446.65218308499607,None,1,446.1401224329893,None,,,,,,,,,,,,,,,,,,,,,,,,,,,,,,,,,,,,,,,,,,,,,,julianG,001,c,2019_Oct_10_1246,Experimento,3.2.3,60.027994298001175,
8,14,14,999,0.5,0:10,3,White,['space'],0,0,1,15:50,./completed_changuitos/montage_lzwcv_77.05_66.25.jpg,left,0,0,0,0,,,,,0,9,9,9,,,,,,,,,0,0,0,0,0,1,1,1,,,,,,,,,,,,,,,,,,,,,,,,,,,,,,,,448.1518364770018,448.6518461589876,None,0,448.1518364770018,448.1518364770018,,,,,,,,,,,,,,,,,,,,,,,,,,,,,,,,,,,,,,,,,,,,,,julianG,001,c,2019_Oct_10_1246,Experimento,3.2.3,60.027994298001175,
8,14,14,999,0.5,0:10,3,Magenta,None,0,0,1,15:50,./completed_changuitos/montage_lzwcv_77.05_66.25.jpg,left,0,0,0,0,,,,,0,9,9,9,,,,,,,,,0,0,0,0,0,2,2,2,,,,,,,,,,,,,,,,,,,,,,,,,,,,,,,,450.1513038999983,450.65117817599094,None,1,450.1513038999983,450.1513038999983,,,,,,,,,,,,,,,,,,,,,,,,,,,,,,,,,,,,,,,,,,,,,,julianG,001,c,2019_Oct_10_1246,Experimento,3.2.3,60.027994298001175,
8,14,14,999,0.5,0:10,3,Cyan,None,0,0,1,15:50,./completed_changuitos/montage_lzwcv_77.05_66.25.jpg,left,0,0,0,0,,,,,0,9,9,9,,,,,,,,,0,0,0,0,0,3,3,3,,,,,,,,,,,,,,,,,,,,,,,,,,,,,,,,452.1506517259986,452.6504950689996,None,1,452.1506517259986,452.1506517259986,,,,,,,,,,,,,,,,,,,,,,,,,,,,,,,,,,,,,,,,,,,,,,julianG,001,c,2019_Oct_10_1246,Experimento,3.2.3,60.027994298001175,
8,14,14,999,0.5,0:10,3,Blue,None,0,0,1,15:50,./completed_changuitos/montage_lzwcv_77.05_66.25.jpg,left,0,0,0,0,,,,,0,9,9,9,,,,,,,,,0,0,0,0,0,4,4,4,,,,,,,,,,,,,,,,,,,,,,,,,,,,,,,,454.14992042699305,454.64983059398946,None,1,454.14992042699305,454.14992042699305,,,,,,,,,,,,,,,,,,,,,,,,,,,,,,,,,,,,,,,,,,,,,,julianG,001,c,2019_Oct_10_1246,Experimento,3.2.3,60.027994298001175,
8,14,14,999,0.5,0:10,3,Magenta,None,0,0,1,15:50,./completed_changuitos/montage_lzwcv_77.05_66.25.jpg,left,0,0,0,0,,,,,0,9,9,9,,,,,,,,,0,0,0,0,0,5,5,5,,,,,,,,,,,,,,,,,,,,,,,,,,,,,,,,456.16560023700004,456.6653966969898,None,1,456.16560023700004,456.16560023700004,,,,,,,,,,,,,,,,,,,,,,,,,,,,,,,,,,,,,,,,,,,,,,julianG,001,c,2019_Oct_10_1246,Experimento,3.2.3,60.027994298001175,
8,14,14,999,0.5,0:10,3,Blue,['space'],0,0,1,15:50,./completed_changuitos/montage_lzwcv_77.05_66.25.jpg,left,0,0,0,0,,,,,0,9,9,9,,,,,,,,,0,0,0,0,0,6,6,6,,,,,,,,,,,,,,,,,,,,,,,,,,,,,,,,458.1652223139972,458.6651233009907,['return'],0,458.1652223139972,458.1652223139972,[1.200378659996204],,,,,,,,,,,,,,,,,,,,,,,,,,,,,,,,,,,,,,,,,,,,,julianG,001,c,2019_Oct_10_1246,Experimento,3.2.3,60.027994298001175,
8,14,14,999,0.5,0:10,3,Cyan,None,0,0,1,15:50,./completed_changuitos/montage_lzwcv_77.05_66.25.jpg,left,0,0,0,0,,,,,0,9,9,9,,,,,,,,,0,0,0,0,0,7,7,7,,,,,,,,,,,,,,,,,,,,,,,,,,,,,,,,460.1479195916909,None,None,1,460.1479195916909,None,,,,,,,,,,,,,,,,,,,,,,,,,,,,,,,,,,,,,,,,,,,,,,julianG,001,c,2019_Oct_10_1246,Experimento,3.2.3,60.027994298001175,
8,14,14,999,0.5,0:10,3,Yellow,None,0,0,1,15:50,./completed_changuitos/montage_lzwcv_77.05_66.25.jpg,left,0,0,0,0,,,,,0,9,9,9,,,,,,,,,0,0,0,0,0,8,8,8,,,,,,,,,,,,,,,,,,,,,,,,,,,,,,,,460.1479195916909,None,None,1,460.1479195916909,None,,,,,,,,,,,,,,,,,,,,,,,,,,,,,,,,,,,,,,,,,,,,,,julianG,001,c,2019_Oct_10_1246,Experimento,3.2.3,60.027994298001175,
8,14,14,999,0.5,0:10,3,Cyan,None,0,0,1,15:50,./completed_changuitos/montage_lzwcv_77.05_66.25.jpg,left,0,0,0,0,,,,,0,9,9,9,,,,,,,,,0,0,0,0,0,9,9,9,,,,,,,,,,,,,,,,,,,,,,,,,,,,,,,,460.1479195916909,None,None,1,460.1479195916909,None,,,,,,,,,,,,,,,,,,,,,,,,,,,,,,,,,,,,,,,,,,,,,,julianG,001,c,2019_Oct_10_1246,Experimento,3.2.3,60.027994298001175,
8,14,14,999,0.5,0:10,3,Blue,None,0,0,1,15:50,./completed_changuitos/montage_lzwcv_77.05_66.25.jpg,left,0,0,0,0,,,,,0,9,9,9,,,,,,,,,0,0,0,0,0,10,10,10,,,,,,,,,,,,,,,,,,,,,,,,,,,,,,,,460.1479195916909,None,None,1,460.1479195916909,None,,,,,,,,,,,,,,,,,,,,,,,,,,,,,,,,,,,,,,,,,,,,,,julianG,001,c,2019_Oct_10_1246,Experimento,3.2.3,60.027994298001175,
8,14,14,999,0.5,0:10,3,Cyan,['space'],0,0,1,15:50,./completed_changuitos/montage_lzwcv_77.05_66.25.jpg,left,0,0,0,0,,,,,0,9,9,9,,,,,,,,,0,0,0,0,0,11,11,11,,,,,,,,,,,,,,,,,,,,,,,,,,,,,,,,460.1645843923907,None,None,0,460.1645843923907,None,,,,,,,,,,,,,,,,,,,,,,,,,,,,,,,,,,,,,,,,,,,,,,julianG,001,c,2019_Oct_10_1246,Experimento,3.2.3,60.027994298001175,
8,14,14,999,0.5,0:10,3,Magenta,None,0,0,1,15:50,./completed_changuitos/montage_lzwcv_77.05_66.25.jpg,left,0,0,0,0,,,,,0,9,9,9,,,,,,,,,0,0,0,0,0,12,12,12,,,,,,,,,,,,,,,,,,,,,,,,,,,,,,,,460.1645843923907,None,None,1,460.1645843923907,None,,,,,,,,,,,,,,,,,,,,,,,,,,,,,,,,,,,,,,,,,,,,,,julianG,001,c,2019_Oct_10_1246,Experimento,3.2.3,60.027994298001175,
8,14,14,999,0.5,0:10,3,Red,None,0,0,1,15:50,./completed_changuitos/montage_lzwcv_77.05_66.25.jpg,left,0,0,0,0,,,,,0,9,9,9,,,,,,,,,0,0,0,0,0,13,13,13,,,,,,,,,,,,,,,,,,,,,,,,,,,,,,,,460.1645843923907,None,None,1,460.1645843923907,None,,,,,,,,,,,,,,,,,,,,,,,,,,,,,,,,,,,,,,,,,,,,,,julianG,001,c,2019_Oct_10_1246,Experimento,3.2.3,60.027994298001175,
8,14,14,999,0.5,0:10,3,Magenta,['space'],0,0,1,15:50,./completed_changuitos/montage_lzwcv_77.05_66.25.jpg,left,0,0,0,0,,,,,0,9,9,9,,,,,,,,,0,0,0,0,0,14,14,14,,,,,,,,,,,,,,,,,,,,,,,,,,,,,,,,460.1645843923907,None,None,0,460.1645843923907,None,,,,,,,,,,,,,,,,,,,,,,,,,,,,,,,,,,,,,,,,,,,,,,julianG,001,c,2019_Oct_10_1246,Experimento,3.2.3,60.027994298001175,
8,14,14,999,0.5,0:10,3,Green,None,0,0,1,15:50,./completed_changuitos/montage_lzwcv_77.05_66.25.jpg,left,0,0,0,0,,,,,0,9,9,9,,,,,,,,,0,0,0,0,0,15,15,15,,,,,,,,,,,,,,,,,,,,,,,,,,,,,,,,460.1645843923907,None,None,1,460.1645843923907,None,,,,,,,,,,,,,,,,,,,,,,,,,,,,,,,,,,,,,,,,,,,,,,julianG,001,c,2019_Oct_10_1246,Experimento,3.2.3,60.027994298001175,
8,14,14,999,0.5,0:10,3,Yellow,['space'],0,0,1,15:50,./completed_changuitos/montage_lzwcv_77.05_66.25.jpg,left,0,0,0,0,,,,,0,9,9,9,,,,,,,,,0,0,0,0,0,16,16,16,,,,,,,,,,,,,,,,,,,,,,,,,,,,,,,,460.1812491930905,None,None,0,460.1812491930905,None,,,,,,,,,,,,,,,,,,,,,,,,,,,,,,,,,,,,,,,,,,,,,,julianG,001,c,2019_Oct_10_1246,Experimento,3.2.3,60.027994298001175,
8,14,14,999,0.5,0:10,3,Blue,None,0,0,1,15:50,./completed_changuitos/montage_lzwcv_77.05_66.25.jpg,left,0,0,0,0,,,,,0,9,9,9,,,,,,,,,0,0,0,0,0,17,17,17,,,,,,,,,,,,,,,,,,,,,,,,,,,,,,,,460.1812491930905,None,None,1,460.1812491930905,None,,,,,,,,,,,,,,,,,,,,,,,,,,,,,,,,,,,,,,,,,,,,,,julianG,001,c,2019_Oct_10_1246,Experimento,3.2.3,60.027994298001175,
8,14,14,999,0.5,0:10,3,Cyan,None,0,0,1,15:50,./completed_changuitos/montage_lzwcv_77.05_66.25.jpg,left,0,0,0,0,,,,,0,9,9,9,,,,,,,,,0,0,0,0,0,18,18,18,,,,,,,,,,,,,,,,,,,,,,,,,,,,,,,,460.1812491930905,None,None,1,460.1812491930905,None,,,,,,,,,,,,,,,,,,,,,,,,,,,,,,,,,,,,,,,,,,,,,,julianG,001,c,2019_Oct_10_1246,Experimento,3.2.3,60.027994298001175,
8,14,14,999,0.5,0:10,3,Blue,['space'],0,0,1,15:50,./completed_changuitos/montage_lzwcv_77.05_66.25.jpg,left,0,0,0,0,,,,,0,9,9,9,,,,,,,,,0,0,0,0,0,19,19,19,,,,,,,,,,,,,,,,,,,,,,,,,,,,,,,,460.1812491930905,None,None,0,460.1812491930905,None,,,,,,,,,,,,,,,,,,,,,,,,,,,,,,,,,,,,,,,,,,,,,,julianG,001,c,2019_Oct_10_1246,Experimento,3.2.3,60.027994298001175,
8,14,14,999,0.5,0:10,3,Yellow,None,0,0,1,15:50,./completed_changuitos/montage_lzwcv_77.05_66.25.jpg,left,0,0,0,0,,,,,0,9,9,9,,,,,,,,,0,0,0,0,0,20,20,20,,,,,,,,,,,,,,,,,,,,,,,,,,,,,,,,460.1812491930905,None,None,1,460.1812491930905,None,,,,,,,,,,,,,,,,,,,,,,,,,,,,,,,,,,,,,,,,,,,,,,julianG,001,c,2019_Oct_10_1246,Experimento,3.2.3,60.027994298001175,
8,14,14,999,0.5,0:10,3,Cyan,None,0,0,1,15:50,./completed_changuitos/montage_lzwcv_77.05_66.25.jpg,left,0,0,0,0,,,,,0,9,9,9,,,,,,,,,0,0,0,0,0,21,21,21,,,,,,,,,,,,,,,,,,,,,,,,,,,,,,,,460.1812491930905,None,None,1,460.1812491930905,None,,,,,,,,,,,,,,,,,,,,,,,,,,,,,,,,,,,,,,,,,,,,,,julianG,001,c,2019_Oct_10_1246,Experimento,3.2.3,60.027994298001175,
8,14,14,999,0.5,0:10,3,Yellow,['space'],0,0,1,15:50,./completed_changuitos/montage_lzwcv_77.05_66.25.jpg,left,0,0,0,0,,,,,0,9,9,9,,,,,,,,,0,0,0,0,0,22,22,22,,,,,,,,,,,,,,,,,,,,,,,,,,,,,,,,460.1812491930905,None,None,0,460.1812491930905,None,,,,,,,,,,,,,,,,,,,,,,,,,,,,,,,,,,,,,,,,,,,,,,julianG,001,c,2019_Oct_10_1246,Experimento,3.2.3,60.027994298001175,
8,14,14,999,0.5,0:10,3,Magenta,None,0,0,1,15:50,./completed_changuitos/montage_lzwcv_77.05_66.25.jpg,left,0,0,0,0,,,,,0,9,9,9,,,,,,,,,0,0,0,0,0,23,23,23,,,,,,,,,,,,,,,,,,,,,,,,,,,,,,,,460.1812491930905,None,None,1,460.1812491930905,None,,,,,,,,,,,,,,,,,,,,,,,,,,,,,,,,,,,,,,,,,,,,,,julianG,001,c,2019_Oct_10_1246,Experimento,3.2.3,60.027994298001175,
8,14,14,999,0.5,0:10,3,Red,None,0,0,1,15:50,./completed_changuitos/montage_lzwcv_77.05_66.25.jpg,left,0,0,0,0,,,,,0,9,9,9,,,,,,,,,0,0,0,0,0,24,24,24,,,,,,,,,,,,,,,,,,,,,,,,,,,,,,,,460.1812491930905,None,None,1,460.1812491930905,None,,,,,,,,,,,,,,,,,,,,,,,,,,,,,,,,,,,,,,,,,,,,,,julianG,001,c,2019_Oct_10_1246,Experimento,3.2.3,60.027994298001175,
8,14,14,999,0.5,0:10,3,Magenta,['space'],0,0,1,15:50,./completed_changuitos/montage_lzwcv_77.05_66.25.jpg,left,0,0,0,0,,,,,0,9,9,9,,,,,,,,,0,0,0,0,0,25,25,25,,,,,,,,,,,,,,,,,,,,,,,,,,,,,,,,460.1812491930905,None,None,0,460.1812491930905,None,,,,,,,,,,,,,,,,,,,,,,,,,,,,,,,,,,,,,,,,,,,,,,julianG,001,c,2019_Oct_10_1246,Experimento,3.2.3,60.027994298001175,
8,14,14,999,0.5,0:10,3,Red,['space'],0,0,1,15:50,./completed_changuitos/montage_lzwcv_77.05_66.25.jpg,left,0,0,0,0,,,,,0,9,9,9,,,,,,,,,0,0,0,0,0,26,26,26,,,,,,,,,,,,,,,,,,,,,,,,,,,,,,,,460.1812491930905,None,None,0,460.1812491930905,None,,,,,,,,,,,,,,,,,,,,,,,,,,,,,,,,,,,,,,,,,,,,,,julianG,001,c,2019_Oct_10_1246,Experimento,3.2.3,60.027994298001175,
8,14,14,999,0.5,0:10,3,Yellow,None,0,0,1,15:50,./completed_changuitos/montage_lzwcv_77.05_66.25.jpg,left,0,0,0,0,,,,,0,9,9,9,,,,,,,,,0,0,0,0,0,27,27,27,,,,,,,,,,,,,,,,,,,,,,,,,,,,,,,,460.1812491930905,None,None,1,460.1812491930905,None,,,,,,,,,,,,,,,,,,,,,,,,,,,,,,,,,,,,,,,,,,,,,,julianG,001,c,2019_Oct_10_1246,Experimento,3.2.3,60.027994298001175,
8,14,14,999,0.5,0:10,3,Cyan,None,0,0,1,15:50,./completed_changuitos/montage_lzwcv_77.05_66.25.jpg,left,0,0,0,0,,,,,0,9,9,9,,,,,,,,,0,0,0,0,0,28,28,28,,,,,,,,,,,,,,,,,,,,,,,,,,,,,,,,460.1979139937903,None,None,1,460.1979139937903,None,,,,,,,,,,,,,,,,,,,,,,,,,,,,,,,,,,,,,,,,,,,,,,julianG,001,c,2019_Oct_10_1246,Experimento,3.2.3,60.027994298001175,
8,14,14,999,0.5,0:10,3,Green,None,0,0,1,15:50,./completed_changuitos/montage_lzwcv_77.05_66.25.jpg,left,0,0,0,0,,,,,0,9,9,9,,,,,,,,,0,0,0,0,0,29,29,29,,,,,,,,,,,,,,,,,,,,,,,,,,,,,,,,460.1979139937903,None,None,1,460.1979139937903,None,,,,,,,,,,,,,,,,,,,,,,,,,,,,,,,,,,,,,,,,,,,,,,julianG,001,c,2019_Oct_10_1246,Experimento,3.2.3,60.027994298001175,
8,14,14,999,0.5,0:10,3,White,None,0,0,1,15:50,./completed_changuitos/montage_lzwcv_77.05_66.25.jpg,left,0,0,0,0,,,,,0,9,9,9,,,,,,,,,0,0,0,0,0,30,30,30,,,,,,,,,,,,,,,,,,,,,,,,,,,,,,,,460.1979139937903,None,None,1,460.1979139937903,None,,,,,,,,,,,,,,,,,,,,,,,,,,,,,,,,,,,,,,,,,,,,,,julianG,001,c,2019_Oct_10_1246,Experimento,3.2.3,60.027994298001175,
8,14,14,999,0.5,0:10,3,Green,['space'],0,0,1,15:50,./completed_changuitos/montage_lzwcv_77.05_66.25.jpg,left,0,0,0,0,,,,,0,9,9,9,,,,,,,,,0,0,0,0,0,31,31,31,,,,,,,,,,,,,,,,,,,,,,,,,,,,,,,,460.1979139937903,None,None,0,460.1979139937903,None,,,,,,,,,,,,,,,,,,,,,,,,,,,,,,,,,,,,,,,,,,,,,,julianG,001,c,2019_Oct_10_1246,Experimento,3.2.3,60.027994298001175,
8,14,14,999,0.5,0:10,3,Red,None,0,0,1,15:50,./completed_changuitos/montage_lzwcv_77.05_66.25.jpg,left,0,0,0,0,,,,,0,9,9,9,,,,,,,,,0,0,0,0,0,32,32,32,,,,,,,,,,,,,,,,,,,,,,,,,,,,,,,,460.1979139937903,None,None,1,460.1979139937903,None,,,,,,,,,,,,,,,,,,,,,,,,,,,,,,,,,,,,,,,,,,,,,,julianG,001,c,2019_Oct_10_1246,Experimento,3.2.3,60.027994298001175,
8,14,14,999,0.5,0:10,3,Blue,None,0,0,1,15:50,./completed_changuitos/montage_lzwcv_77.05_66.25.jpg,left,0,0,0,0,,,,,0,9,9,9,,,,,,,,,0,0,0,0,0,33,33,33,,,,,,,,,,,,,,,,,,,,,,,,,,,,,,,,460.1979139937903,None,None,1,460.1979139937903,None,,,,,,,,,,,,,,,,,,,,,,,,,,,,,,,,,,,,,,,,,,,,,,julianG,001,c,2019_Oct_10_1246,Experimento,3.2.3,60.027994298001175,
8,14,14,999,0.5,0:10,3,Green,None,0,0,1,15:50,./completed_changuitos/montage_lzwcv_77.05_66.25.jpg,left,0,0,0,0,,,,,0,9,9,9,,,,,,,,,0,0,0,0,0,34,34,34,,,,,,,,,,,,,,,,,,,,,,,,,,,,,,,,460.1979139937903,None,None,1,460.1979139937903,None,,,,,,,,,,,,,,,,,,,,,,,,,,,,,,,,,,,,,,,,,,,,,,julianG,001,c,2019_Oct_10_1246,Experimento,3.2.3,60.027994298001175,
8,14,14,999,0.5,0:10,3,,,0,0,1,15:50,./completed_changuitos/montage_lzwcv_77.05_66.25.jpg,left,0,0,0,0,,,,,0,9,9,9,,,,,,,,,0,0,0,0,,,,,,,,,,,,,,,,,,,,,,,,,,,,,,,,,,,,,,,,,,,460.2275132319919,None,right,0,2.5856389260006836,460.2275132319919,None,460.2275132319919,None,,,,,,,,,,,,,,,,,,,,,,,,,,,,,,,,,,,,julianG,001,c,2019_Oct_10_1246,Experimento,3.2.3,60.027994298001175,
8,14,14,999,0.5,0:10,3,,,0,0,1,15:50,,,0,0,0,0,,,,,0,9,9,9,,,,,,,,,,,,,,,,,,,,,,,,,,,,,,,,,,,,,,,,,,,,,,,,,,,,,,,,,,,,,,,,,,,,,,,,,,,,,,,,,,,,,,,,,,,,,,,,,,,julianG,001,c,2019_Oct_10_1246,Experimento,3.2.3,60.027994298001175,
8,14,14,999,0.5,0:10,3,,,0,1,0,25:50,./completed_changuitos/montage_lgsnr_23.55_27.29.jpg,right,0,0,0,0,,,,,0,10,10,10,,,,,0,0,0,0,,,,,,,,,,,,,,,,,,,,,462.9511745419877,468.37847499299096,468.37847499299096,476.3923740099999,476.3923740099999,490.40427964698756,right,1,1.3831144220021088,490.40427964698756,None,490.40427964698756,None,490.40427964698756,None,,,,,,,,,,,,,,,,,,,,,,,,,,,,,,,,,,,,,,,,,,,,,,,,,,,,,,,,julianG,001,c,2019_Oct_10_1246,Experimento,3.2.3,60.027994298001175,
8,14,14,999,0.5,0:10,3,,,0,1,0,25:50,,,0,0,0,0,,,,,0,10,10,10,,,,,,,,,,,,,,,,,,,,,,,,,,,,,,,,,,,,,,,,,,,,,,,,,,,,,,,,,,,,,,,,,,,,,,,,,,,,,,,,,,,,,,,,,,,,,,,,,,,julianG,001,c,2019_Oct_10_1246,Experimento,3.2.3,60.027994298001175,
8,14,14,999,0.5,0:10,3,Red,None,0,0,1,28:50,./completed_changuitos/montage_jljhf_41.09_46.0.jpg,right,0,0,0,0,,,,,0,11,11,11,,,,,,,,,0,0,0,0,0,0,0,0,,,,,,,,,,,,,,,,,,,,,,,,,,,,491.9211501329992,493.45320248299686,493.45320248299686,None,501.4951558109897,502.00026185599563,None,1,501.4951558109897,None,,,,,,,,,,,,,,,,,,,,,,,,,,,,,,,,,,,,,,,,,,,,,,julianG,001,c,2019_Oct_10_1246,Experimento,3.2.3,60.027994298001175,
8,14,14,999,0.5,0:10,3,Magenta,['space'],0,0,1,28:50,./completed_changuitos/montage_jljhf_41.09_46.0.jpg,right,0,0,0,0,,,,,0,11,11,11,,,,,,,,,0,0,0,0,0,1,1,1,,,,,,,,,,,,,,,,,,,,,,,,,,,,,,,,503.4996369379951,503.99921537499176,None,0,503.4996369379951,503.4996369379951,,,,,,,,,,,,,,,,,,,,,,,,,,,,,,,,,,,,,,,,,,,,,,julianG,001,c,2019_Oct_10_1246,Experimento,3.2.3,60.027994298001175,
8,14,14,999,0.5,0:10,3,Green,None,0,0,1,28:50,./completed_changuitos/montage_jljhf_41.09_46.0.jpg,right,0,0,0,0,,,,,0,11,11,11,,,,,,,,,0,0,0,0,0,2,2,2,,,,,,,,,,,,,,,,,,,,,,,,,,,,,,,,505.49904914799845,505.998647179993,None,1,505.49904914799845,505.49904914799845,,,,,,,,,,,,,,,,,,,,,,,,,,,,,,,,,,,,,,,,,,,,,,julianG,001,c,2019_Oct_10_1246,Experimento,3.2.3,60.027994298001175,
8,14,14,999,0.5,0:10,3,Yellow,['space'],0,0,1,28:50,./completed_changuitos/montage_jljhf_41.09_46.0.jpg,right,0,0,0,0,,,,,0,11,11,11,,,,,,,,,0,0,0,0,0,3,3,3,,,,,,,,,,,,,,,,,,,,,,,,,,,,,,,,507.51474587198754,508.0149270760012,None,0,507.51474587198754,507.51474587198754,,,,,,,,,,,,,,,,,,,,,,,,,,,,,,,,,,,,,,,,,,,,,,julianG,001,c,2019_Oct_10_1246,Experimento,3.2.3,60.027994298001175,
8,14,14,999,0.5,0:10,3,Blue,None,0,0,1,28:50,./completed_changuitos/montage_jljhf_41.09_46.0.jpg,right,0,0,0,0,,,,,0,11,11,11,,,,,,,,,0,0,0,0,0,4,4,4,,,,,,,,,,,,,,,,,,,,,,,,,,,,,,,,509.51399565298925,510.01388055999996,None,1,509.51399565298925,509.51399565298925,,,,,,,,,,,,,,,,,,,,,,,,,,,,,,,,,,,,,,,,,,,,,,julianG,001,c,2019_Oct_10_1246,Experimento,3.2.3,60.027994298001175,
8,14,14,999,0.5,0:10,3,Cyan,None,0,0,1,28:50,./completed_changuitos/montage_jljhf_41.09_46.0.jpg,right,0,0,0,0,,,,,0,11,11,11,,,,,,,,,0,0,0,0,0,5,5,5,,,,,,,,,,,,,,,,,,,,,,,,,,,,,,,,511.5132881929894,512.0131356310012,None,1,511.5132881929894,511.5132881929894,,,,,,,,,,,,,,,,,,,,,,,,,,,,,,,,,,,,,,,,,,,,,,julianG,001,c,2019_Oct_10_1246,Experimento,3.2.3,60.027994298001175,
8,14,14,999,0.5,0:10,3,Blue,['space'],0,0,1,28:50,./completed_changuitos/montage_jljhf_41.09_46.0.jpg,right,0,0,0,0,,,,,0,11,11,11,,,,,,,,,0,0,0,0,0,6,6,6,,,,,,,,,,,,,,,,,,,,,,,,,,,,,,,,513.5129842780007,514.0127183659934,['return'],0,513.5129842780007,513.5129842780007,[0.8836379150016],,,,,,,,,,,,,,,,,,,,,,,,,,,,,,,,,,,,,,,,,,,,,julianG,001,c,2019_Oct_10_1246,Experimento,3.2.3,60.027994298001175,
8,14,14,999,0.5,0:10,3,Yellow,None,0,0,1,28:50,./completed_changuitos/montage_jljhf_41.09_46.0.jpg,right,0,0,0,0,,,,,0,11,11,11,,,,,,,,,0,0,0,0,0,7,7,7,,,,,,,,,,,,,,,,,,,,,,,,,,,,,,,,515.4786631526949,None,None,1,515.4786631526949,None,,,,,,,,,,,,,,,,,,,,,,,,,,,,,,,,,,,,,,,,,,,,,,julianG,001,c,2019_Oct_10_1246,Experimento,3.2.3,60.027994298001175,
8,14,14,999,0.5,0:10,3,Cyan,None,0,0,1,28:50,./completed_changuitos/montage_jljhf_41.09_46.0.jpg,right,0,0,0,0,,,,,0,11,11,11,,,,,,,,,0,0,0,0,0,8,8,8,,,,,,,,,,,,,,,,,,,,,,,,,,,,,,,,515.4786631526949,None,None,1,515.4786631526949,None,,,,,,,,,,,,,,,,,,,,,,,,,,,,,,,,,,,,,,,,,,,,,,julianG,001,c,2019_Oct_10_1246,Experimento,3.2.3,60.027994298001175,
8,14,14,999,0.5,0:10,3,Yellow,['space'],0,0,1,28:50,./completed_changuitos/montage_jljhf_41.09_46.0.jpg,right,0,0,0,0,,,,,0,11,11,11,,,,,,,,,0,0,0,0,0,9,9,9,,,,,,,,,,,,,,,,,,,,,,,,,,,,,,,,515.4786631526949,None,None,0,515.4786631526949,None,,,,,,,,,,,,,,,,,,,,,,,,,,,,,,,,,,,,,,,,,,,,,,julianG,001,c,2019_Oct_10_1246,Experimento,3.2.3,60.027994298001175,
8,14,14,999,0.5,0:10,3,Magenta,None,0,0,1,28:50,./completed_changuitos/montage_jljhf_41.09_46.0.jpg,right,0,0,0,0,,,,,0,11,11,11,,,,,,,,,0,0,0,0,0,10,10,10,,,,,,,,,,,,,,,,,,,,,,,,,,,,,,,,515.4786631526949,None,None,1,515.4786631526949,None,,,,,,,,,,,,,,,,,,,,,,,,,,,,,,,,,,,,,,,,,,,,,,julianG,001,c,2019_Oct_10_1246,Experimento,3.2.3,60.027994298001175,
8,14,14,999,0.5,0:10,3,Red,None,0,0,1,28:50,./completed_changuitos/montage_jljhf_41.09_46.0.jpg,right,0,0,0,0,,,,,0,11,11,11,,,,,,,,,0,0,0,0,0,11,11,11,,,,,,,,,,,,,,,,,,,,,,,,,,,,,,,,515.4786631526949,None,None,1,515.4786631526949,None,,,,,,,,,,,,,,,,,,,,,,,,,,,,,,,,,,,,,,,,,,,,,,julianG,001,c,2019_Oct_10_1246,Experimento,3.2.3,60.027994298001175,
8,14,14,999,0.5,0:10,3,Magenta,['space'],0,0,1,28:50,./completed_changuitos/montage_jljhf_41.09_46.0.jpg,right,0,0,0,0,,,,,0,11,11,11,,,,,,,,,0,0,0,0,0,12,12,12,,,,,,,,,,,,,,,,,,,,,,,,,,,,,,,,515.4786631526949,None,None,0,515.4786631526949,None,,,,,,,,,,,,,,,,,,,,,,,,,,,,,,,,,,,,,,,,,,,,,,julianG,001,c,2019_Oct_10_1246,Experimento,3.2.3,60.027994298001175,
8,14,14,999,0.5,0:10,3,Red,['space'],0,0,1,28:50,./completed_changuitos/montage_jljhf_41.09_46.0.jpg,right,0,0,0,0,,,,,0,11,11,11,,,,,,,,,0,0,0,0,0,13,13,13,,,,,,,,,,,,,,,,,,,,,,,,,,,,,,,,515.4786631526949,None,None,0,515.4786631526949,None,,,,,,,,,,,,,,,,,,,,,,,,,,,,,,,,,,,,,,,,,,,,,,julianG,001,c,2019_Oct_10_1246,Experimento,3.2.3,60.027994298001175,
8,14,14,999,0.5,0:10,3,Yellow,None,0,0,1,28:50,./completed_changuitos/montage_jljhf_41.09_46.0.jpg,right,0,0,0,0,,,,,0,11,11,11,,,,,,,,,0,0,0,0,0,14,14,14,,,,,,,,,,,,,,,,,,,,,,,,,,,,,,,,515.4786631526949,None,None,1,515.4786631526949,None,,,,,,,,,,,,,,,,,,,,,,,,,,,,,,,,,,,,,,,,,,,,,,julianG,001,c,2019_Oct_10_1246,Experimento,3.2.3,60.027994298001175,
8,14,14,999,0.5,0:10,3,Cyan,None,0,0,1,28:50,./completed_changuitos/montage_jljhf_41.09_46.0.jpg,right,0,0,0,0,,,,,0,11,11,11,,,,,,,,,0,0,0,0,0,15,15,15,,,,,,,,,,,,,,,,,,,,,,,,,,,,,,,,515.4786631526949,None,None,1,515.4786631526949,None,,,,,,,,,,,,,,,,,,,,,,,,,,,,,,,,,,,,,,,,,,,,,,julianG,001,c,2019_Oct_10_1246,Experimento,3.2.3,60.027994298001175,
8,14,14,999,0.5,0:10,3,Green,None,0,0,1,28:50,./completed_changuitos/montage_jljhf_41.09_46.0.jpg,right,0,0,0,0,,,,,0,11,11,11,,,,,,,,,0,0,0,0,0,16,16,16,,,,,,,,,,,,,,,,,,,,,,,,,,,,,,,,515.4786631526949,None,None,1,515.4786631526949,None,,,,,,,,,,,,,,,,,,,,,,,,,,,,,,,,,,,,,,,,,,,,,,julianG,001,c,2019_Oct_10_1246,Experimento,3.2.3,60.027994298001175,
8,14,14,999,0.5,0:10,3,White,None,0,0,1,28:50,./completed_changuitos/montage_jljhf_41.09_46.0.jpg,right,0,0,0,0,,,,,0,11,11,11,,,,,,,,,0,0,0,0,0,17,17,17,,,,,,,,,,,,,,,,,,,,,,,,,,,,,,,,515.4786631526949,None,None,1,515.4786631526949,None,,,,,,,,,,,,,,,,,,,,,,,,,,,,,,,,,,,,,,,,,,,,,,julianG,001,c,2019_Oct_10_1246,Experimento,3.2.3,60.027994298001175,
8,14,14,999,0.5,0:10,3,Green,['space'],0,0,1,28:50,./completed_changuitos/montage_jljhf_41.09_46.0.jpg,right,0,0,0,0,,,,,0,11,11,11,,,,,,,,,0,0,0,0,0,18,18,18,,,,,,,,,,,,,,,,,,,,,,,,,,,,,,,,515.4786631526949,None,None,0,515.4786631526949,None,,,,,,,,,,,,,,,,,,,,,,,,,,,,,,,,,,,,,,,,,,,,,,julianG,001,c,2019_Oct_10_1246,Experimento,3.2.3,60.027994298001175,
8,14,14,999,0.5,0:10,3,Red,None,0,0,1,28:50,./completed_changuitos/montage_jljhf_41.09_46.0.jpg,right,0,0,0,0,,,,,0,11,11,11,,,,,,,,,0,0,0,0,0,19,19,19,,,,,,,,,,,,,,,,,,,,,,,,,,,,,,,,515.4786631526949,None,None,1,515.4786631526949,None,,,,,,,,,,,,,,,,,,,,,,,,,,,,,,,,,,,,,,,,,,,,,,julianG,001,c,2019_Oct_10_1246,Experimento,3.2.3,60.027994298001175,
8,14,14,999,0.5,0:10,3,Blue,None,0,0,1,28:50,./completed_changuitos/montage_jljhf_41.09_46.0.jpg,right,0,0,0,0,,,,,0,11,11,11,,,,,,,,,0,0,0,0,0,20,20,20,,,,,,,,,,,,,,,,,,,,,,,,,,,,,,,,515.4786631526949,None,None,1,515.4786631526949,None,,,,,,,,,,,,,,,,,,,,,,,,,,,,,,,,,,,,,,,,,,,,,,julianG,001,c,2019_Oct_10_1246,Experimento,3.2.3,60.027994298001175,
8,14,14,999,0.5,0:10,3,Green,None,0,0,1,28:50,./completed_changuitos/montage_jljhf_41.09_46.0.jpg,right,0,0,0,0,,,,,0,11,11,11,,,,,,,,,0,0,0,0,0,21,21,21,,,,,,,,,,,,,,,,,,,,,,,,,,,,,,,,515.4953279533947,None,None,1,515.4953279533947,None,,,,,,,,,,,,,,,,,,,,,,,,,,,,,,,,,,,,,,,,,,,,,,julianG,001,c,2019_Oct_10_1246,Experimento,3.2.3,60.027994298001175,
8,14,14,999,0.5,0:10,3,,,0,0,1,28:50,./completed_changuitos/montage_jljhf_41.09_46.0.jpg,right,0,0,0,0,,,,,0,11,11,11,,,,,,,,,0,0,0,0,,,,,,,,,,,,,,,,,,,,,,,,,,,,,,,,,,,,,,,,,,,515.5265788309916,None,right,1,5.083831104988349,515.5265788309916,None,515.5265788309916,518.5280073789909,,,,,,,,,,,,,,,,,,,,,,,,,,,,,,,,,,,,julianG,001,c,2019_Oct_10_1246,Experimento,3.2.3,60.027994298001175,
8,14,14,999,0.5,0:10,3,,,0,0,1,28:50,,,0,0,0,0,,,,,0,11,11,11,,,,,,,,,,,,,,,,,,,,,,,,,,,,,,,,,,,,,,,,,,,,,,,,,,,,,,,,,,,,,,,,,,,,,,,,,,,,,,,,,,,,,,,,,,,,,,,,,,,julianG,001,c,2019_Oct_10_1246,Experimento,3.2.3,60.027994298001175,
8,14,14,999,0.5,0:10,3,,,1,0,0,30:50,./completed_changuitos/montage_qbbbl_66.25_76.85.jpg,right,0,0,0,0,,,,,0,12,12,12,0,0,0,0,,,,,,,,,,,,,,,,,,,,,,,,,,,,,,,,,,,,,,,,,,,,,,,,,,,,,,,,,,,,521.2266675149876,527.8081666770013,527.8081666770013,535.8220003489987,right,1,1.733391173009295,535.8220003489987,None,535.8220003489987,None,535.8220003489987,None,,,,,,,,,,,,,,,,,,,,,,,julianG,001,c,2019_Oct_10_1246,Experimento,3.2.3,60.027994298001175,
8,14,14,999,0.5,0:10,3,,,1,0,0,30:50,,,0,0,0,0,,,,,0,12,12,12,,,,,,,,,,,,,,,,,,,,,,,,,,,,,,,,,,,,,,,,,,,,,,,,,,,,,,,,,,,,,,,,,,,,,,,,,,,,,,,,,,,,,,,,,,,,,,,,,,,julianG,001,c,2019_Oct_10_1246,Experimento,3.2.3,60.027994298001175,
8,14,14,999,0.5,0:10,3,,,1,0,0,32:50,./completed_changuitos/montage_wjxoa_266.35_309.25.jpg,right,0,0,0,0,,,,,0,13,13,13,0,0,0,0,,,,,,,,,,,,,,,,,,,,,,,,,,,,,,,,,,,,,,,,,,,,,,,,,,,,,,,,,,,,538.1879420979967,539.9204499069892,539.9204499069892,547.9345904649963,right,1,1.0171176069998182,547.9345904649963,None,547.9345904649963,None,547.9345904649963,None,,,,,,,,,,,,,,,,,,,,,,,julianG,001,c,2019_Oct_10_1246,Experimento,3.2.3,60.027994298001175,
8,14,14,999,0.5,0:10,3,,,1,0,0,32:50,,,0,0,0,0,,,,,0,13,13,13,,,,,,,,,,,,,,,,,,,,,,,,,,,,,,,,,,,,,,,,,,,,,,,,,,,,,,,,,,,,,,,,,,,,,,,,,,,,,,,,,,,,,,,,,,,,,,,,,,,julianG,001,c,2019_Oct_10_1246,Experimento,3.2.3,60.027994298001175,
8,14,14,999,0.5,0:10,3,,,1,0,0,34:50,./completed_changuitos/montage_gmgzw_131.6_114.69.jpg,left,0,0,0,0,,,,,0,14,14,14,0,0,0,0,,,,,,,,,,,,,,,,,,,,,,,,,,,,,,,,,,,,,,,,,,,,,,,,,,,,,,,,,,,,549.600687949991,550.5003817199904,550.5003817199904,558.5142792400002,right,0,0.5496685879916186,558.5142792400002,None,558.5142792400002,None,558.5142792400002,None,,,,,,,,,,,,,,,,,,,,,,,julianG,001,c,2019_Oct_10_1246,Experimento,3.2.3,60.027994298001175,
8,14,14,999,0.5,0:10,3,,,1,0,0,34:50,,,0,0,0,0,,,,,0,14,14,14,,,,,,,,,,,,,,,,,,,,,,,,,,,,,,,,,,,,,,,,,,,,,,,,,,,,,,,,,,,,,,,,,,,,,,,,,,,,,,,,,,,,,,,,,,,,,,,,,,,julianG,001,c,2019_Oct_10_1246,Experimento,3.2.3,60.027994298001175,
8,14,14,999,0.5,0:10,3,,,1,0,0,30:50,./completed_changuitos/montage_mloxj_124.15_109.15.jpg,left,0,0,0,0,,,,,0,15,15,15,0,0,0,0,,,,,,,,,,,,,,,,,,,,,,,,,,,,,,,,,,,,,,,,,,,,,,,,,,,,,,,,,,,,559.6805828659999,560.6135539919924,560.6135539919924,568.6272910859989,right,0,0.38510430199676193,568.6272910859989,None,568.6272910859989,None,568.6272910859989,None,,,,,,,,,,,,,,,,,,,,,,,julianG,001,c,2019_Oct_10_1246,Experimento,3.2.3,60.027994298001175,
8,14,14,999,0.5,0:10,3,,,1,0,0,30:50,,,0,0,0,0,,,,,0,15,15,15,,,,,,,,,,,,,,,,,,,,,,,,,,,,,,,,,,,,,,,,,,,,,,,,,,,,,,,,,,,,,,,,,,,,,,,,,,,,,,,,,,,,,,,,,,,,,,,,,,,julianG,001,c,2019_Oct_10_1246,Experimento,3.2.3,60.027994298001175,
8,14,14,999,0.5,0:10,3,,,1,0,0,32:50,./completed_changuitos/montage_obksw_25.99_29.45.jpg,right,0,0,0,0,,,,,0,16,16,16,0,0,0,0,,,,,,,,,,,,,,,,,,,,,,,,,,,,,,,,,,,,,,,,,,,,,,,,,,,,,,,,,,,,569.6434405819891,570.5430841849884,570.5430841849884,578.5570358529949,right,1,2.0835457459907047,578.5570358529949,None,578.5570358529949,None,578.5570358529949,None,,,,,,,,,,,,,,,,,,,,,,,julianG,001,c,2019_Oct_10_1246,Experimento,3.2.3,60.027994298001175,
8,14,14,999,0.5,0:10,3,,,1,0,0,32:50,,,0,0,0,0,,,,,0,16,16,16,,,,,,,,,,,,,,,,,,,,,,,,,,,,,,,,,,,,,,,,,,,,,,,,,,,,,,,,,,,,,,,,,,,,,,,,,,,,,,,,,,,,,,,,,,,,,,,,,,,julianG,001,c,2019_Oct_10_1246,Experimento,3.2.3,60.027994298001175,
8,14,14,999,0.5,0:10,3,,,1,0,0,34:50,./completed_changuitos/montage_hmghc_70.65_62.05.jpg,left,0,0,0,0,,,,,0,17,17,17,0,0,0,0,,,,,,,,,,,,,,,,,,,,,,,,,,,,,,,,,,,,,,,,,,,,,,,,,,,,,,,,,,,,581.2728394479927,582.7060576399963,582.7060576399963,590.7199586099887,left,1,0.6505820659949677,590.7199586099887,None,590.7199586099887,None,590.7199586099887,None,,,,,,,,,,,,,,,,,,,,,,,julianG,001,c,2019_Oct_10_1246,Experimento,3.2.3,60.027994298001175,
8,14,14,999,0.5,0:10,3,,,1,0,0,34:50,,,0,0,0,0,,,,,0,17,17,17,,,,,,,,,,,,,,,,,,,,,,,,,,,,,,,,,,,,,,,,,,,,,,,,,,,,,,,,,,,,,,,,,,,,,,,,,,,,,,,,,,,,,,,,,,,,,,,,,,,julianG,001,c,2019_Oct_10_1246,Experimento,3.2.3,60.027994298001175,
8,14,14,999,0.5,0:10,3,,,,,,,,,0,0,0,0,,,,,,,,,,,,,,,,,,,,,,,,,,,,,,,,,,,,,,,,,,,,,,,,,,,,,,,,,,,,,,,,,,,,,,,,,,,,,,,,,,,,,591.4412008989893,593.8188663909968,1,11.329957490001107,593.8188663909968,None,593.8188663909968,None,b,12.563150690999464,605.1648152909911,None,605.1648152909911,None,605.1648152909911,None,617.7439587589906,None,4,13.329452566991677,617.7439587589906,None,julianG,001,c,2019_Oct_10_1246,Experimento,3.2.3,60.027994298001175,
