changuito_time_to_show,time_to_think,time_to_play,total_items,nback_stimulus_time,nback_training,time_to_show_tiny_stimulus,colourtest,corresp,inmediato,consciente,inconsciente,nback_slice,imagen,correcta,trials_5.thisRepN,trials_5.thisTrialN,trials_5.thisN,trials_5.thisIndex,nback_train.thisRepN,nback_train.thisTrialN,nback_train.thisN,nback_train.thisIndex,treatment_order.thisRepN,treatment_order.thisTrialN,treatment_order.thisN,treatment_order.thisIndex,trials.thisRepN,trials.thisTrialN,trials.thisN,trials.thisIndex,trials_2.thisRepN,trials_2.thisTrialN,trials_2.thisN,trials_2.thisIndex,trials_3.thisRepN,trials_3.thisTrialN,trials_3.thisN,trials_3.thisIndex,trials_4.thisRepN,trials_4.thisTrialN,trials_4.thisN,trials_4.thisIndex,Presentacion.started,Presentacion.stopped,Juego.started,Juego.stopped,image_6.started,image_6.stopped,polygon.started,polygon.stopped,nback_train_resp.keys,nback_train_resp.corr,nback_train_resp.started,nback_train_resp.stopped,nback_train_resp.rt,hola.started,hola.stopped,image_2.started,image_2.stopped,tiempo_para_pensar.started,tiempo_para_pensar.stopped,respuesta_consciente.keys,respuesta_consciente.corr,respuesta_consciente.rt,respuesta_consciente.started,respuesta_consciente.stopped,cual_es_la_mas_barata.started,cual_es_la_mas_barata.stopped,image_4.started,image_4.stopped,holi.started,holi.stopped,image_3.started,image_3.stopped,polygon_2.started,polygon_2.stopped,nback_train_resp_2.keys,nback_train_resp_2.corr,nback_train_resp_2.started,nback_train_resp_2.stopped,nback_train_resp_2.rt,text_2.started,text_2.stopped,key_resp.keys,key_resp.corr,key_resp.rt,key_resp.started,key_resp.stopped,image_5.started,image_5.stopped,text.started,text.stopped,image.started,image.stopped,respuesta_inmediato.keys,respuesta_inmediato.corr,respuesta_inmediato.rt,respuesta_inmediato.started,respuesta_inmediato.stopped,pregunta_cual_es_el_mas_barato.started,pregunta_cual_es_el_mas_barato.stopped,short_stim1.started,short_stim1.stopped,gracias.started,gracias.stopped,respuesta1.keys,respuesta1.rt,respuesta1.started,respuesta1.stopped,pregunta1.started,pregunta1.stopped,respuesta3bis_3.keys,respuesta3bis_3.rt,respuesta3bis_3.started,respuesta3bis_3.stopped,pregunta3_3.started,pregunta3_3.stopped,productoCon3RANGOSabc_3.started,productoCon3RANGOSabc_3.stopped,text_3.started,text_3.stopped,key_resp_2.keys,key_resp_2.rt,key_resp_2.started,key_resp_2.stopped,participant,session,group,date,expName,psychopyVersion,frameRate,
8,14,14,999,0.5,0:10,3,White,None,,,,,,,0,0,0,0,0,0,0,0,,,,,,,,,,,,,,,,,,,,,19.765663645011955,None,33.451044781002565,None,33.451044781002565,None,47.39584900200134,47.8959651220066,None,1,47.39584900200134,None,,,,,,,,,,,,,,,,,,,,,,,,,,,,,,,,,,,,,,,,,,,,,,,,,,,,,,,,,,,,,,,,,,,,,,,,jul_l,001,a,2019_Oct_10_1306,Experimento,3.2.3,59.93962928247254,
8,14,14,999,0.5,0:10,3,Red,None,,,,,,,0,0,0,0,0,1,1,1,,,,,,,,,,,,,,,,,,,,,,,,,,,49.39563844499935,49.89577284301049,None,1,49.39563844499935,49.39563844499935,,,,,,,,,,,,,,,,,,,,,,,,,,,,,,,,,,,,,,,,,,,,,,,,,,,,,,,,,,,,,,,,,,,,,,,,jul_l,001,a,2019_Oct_10_1306,Experimento,3.2.3,59.93962928247254,
8,14,14,999,0.5,0:10,3,Magenta,None,,,,,,,0,0,0,0,0,2,2,2,,,,,,,,,,,,,,,,,,,,,,,,,,,51.39509176800493,51.89493115400546,None,1,51.39509176800493,51.39509176800493,,,,,,,,,,,,,,,,,,,,,,,,,,,,,,,,,,,,,,,,,,,,,,,,,,,,,,,,,,,,,,,,,,,,,,,,jul_l,001,a,2019_Oct_10_1306,Experimento,3.2.3,59.93962928247254,
8,14,14,999,0.5,0:10,3,Cyan,None,,,,,,,0,0,0,0,0,3,3,3,,,,,,,,,,,,,,,,,,,,,,,,,,,53.3940743770072,53.89846454100916,None,1,53.3940743770072,53.3940743770072,,,,,,,,,,,,,,,,,,,,,,,,,,,,,,,,,,,,,,,,,,,,,,,,,,,,,,,,,,,,,,,,,,,,,,,,jul_l,001,a,2019_Oct_10_1306,Experimento,3.2.3,59.93962928247254,
8,14,14,999,0.5,0:10,3,Magenta,['space'],,,,,,,0,0,0,0,0,4,4,4,,,,,,,,,,,,,,,,,,,,,,,,,,,55.39369118399918,55.89362525100296,None,0,55.39369118399918,55.39369118399918,,,,,,,,,,,,,,,,,,,,,,,,,,,,,,,,,,,,,,,,,,,,,,,,,,,,,,,,,,,,,,,,,,,,,,,,jul_l,001,a,2019_Oct_10_1306,Experimento,3.2.3,59.93962928247254,
8,14,14,999,0.5,0:10,3,Green,None,,,,,,,0,0,0,0,0,5,5,5,,,,,,,,,,,,,,,,,,,,,,,,,,,57.392995015005,57.892885331006255,None,1,57.392995015005,57.392995015005,,,,,,,,,,,,,,,,,,,,,,,,,,,,,,,,,,,,,,,,,,,,,,,,,,,,,,,,,,,,,,,,,,,,,,,,jul_l,001,a,2019_Oct_10_1306,Experimento,3.2.3,59.93962928247254,
8,14,14,999,0.5,0:10,3,White,None,,,,,,,0,0,0,0,0,6,6,6,,,,,,,,,,,,,,,,,,,,,,,,,,,59.39236689500103,59.89219582200167,None,1,59.39236689500103,59.39236689500103,,,,,,,,,,,,,,,,,,,,,,,,,,,,,,,,,,,,,,,,,,,,,,,,,,,,,,,,,,,,,,,,,,,,,,,,jul_l,001,a,2019_Oct_10_1306,Experimento,3.2.3,59.93962928247254,
8,14,14,999,0.5,0:10,3,Green,['space'],,,,,,,0,0,0,0,0,7,7,7,,,,,,,,,,,,,,,,,,,,,,,,,,,61.391755830001784,61.8915335519996,['return'],0,61.391755830001784,61.391755830001784,[0.5340721780085005],,,,,,,,,,,,,,,,,,,,,,,,,,,,,,,,,,,,,,,,,,,,,,,,,,,,,,,,,,,,,,,,,,,,,,,jul_l,001,a,2019_Oct_10_1306,Experimento,3.2.3,59.93962928247254,
8,14,14,999,0.5,0:10,3,Blue,None,,,,,,,0,0,0,0,0,8,8,8,,,,,,,,,,,,,,,,,,,,,,,,,,,63.39093578100437,63.89083819500229,None,1,63.39093578100437,63.39093578100437,,,,,,,,,,,,,,,,,,,,,,,,,,,,,,,,,,,,,,,,,,,,,,,,,,,,,,,,,,,,,,,,,,,,,,,,jul_l,001,a,2019_Oct_10_1306,Experimento,3.2.3,59.93962928247254,
8,14,14,999,0.5,0:10,3,Green,['space'],,,,,,,0,0,0,0,0,9,9,9,,,,,,,,,,,,,,,,,,,,,,,,,,,65.39029844199831,65.89015461500094,['return'],0,65.39029844199831,65.39029844199831,[0.700285746002919],,,,,,,,,,,,,,,,,,,,,,,,,,,,,,,,,,,,,,,,,,,,,,,,,,,,,,,,,,,,,,,,,,,,,,,jul_l,001,a,2019_Oct_10_1306,Experimento,3.2.3,59.93962928247254,
8,14,14,999,0.5,0:10,3,,,0,1,0,10:50,./completed_changuitos/montage_ajqet_71.55_62.05.jpg,left,0,0,0,0,,,,,0,0,0,0,,,,,0,0,0,0,,,,,,,,,,,,,,,,,,,,,,67.53183924101177,77.16926542700094,77.16926542700094,85.18318500000169,85.18318500000169,99.19542201900913,right,0,2.8828467410057783,99.19542201900913,None,99.19542201900913,None,99.19542201900913,None,,,,,,,,,,,,,,,,,,,,,,,,,,,,,,,,,,,,,,,,,,,,,,,,,,,,,,,,jul_l,001,a,2019_Oct_10_1306,Experimento,3.2.3,59.93962928247254,
8,14,14,999,0.5,0:10,3,,,0,1,0,10:50,,,0,0,0,0,,,,,0,0,0,0,,,,,,,,,,,,,,,,,,,,,,,,,,,,,,,,,,,,,,,,,,,,,,,,,,,,,,,,,,,,,,,,,,,,,,,,,,,,,,,,,,,,,,,,,,,,,,,,,,,,jul_l,001,a,2019_Oct_10_1306,Experimento,3.2.3,59.93962928247254,
8,14,14,999,0.5,0:10,3,Yellow,None,0,0,1,15:50,./completed_changuitos/montage_pssky_35.5_40.55.jpg,right,0,0,0,0,,,,,0,1,1,1,,,,,,,,,0,0,0,0,0,0,0,0,,,,,,,,,,,,,,,,,,,,,,,,,,,,,102.21729950200825,104.56030860100873,104.56030860100873,None,112.6028069640015,113.10735415700765,None,1,112.6028069640015,None,,,,,,,,,,,,,,,,,,,,,,,,,,,,,,,,,,,,,,,,,,,,,,jul_l,001,a,2019_Oct_10_1306,Experimento,3.2.3,59.93962928247254,
8,14,14,999,0.5,0:10,3,White,['space'],0,0,1,15:50,./completed_changuitos/montage_pssky_35.5_40.55.jpg,right,0,0,0,0,,,,,0,1,1,1,,,,,,,,,0,0,0,0,0,1,1,1,,,,,,,,,,,,,,,,,,,,,,,,,,,,,,,,,114.60679879000236,115.10669476300245,None,0,114.60679879000236,114.60679879000236,,,,,,,,,,,,,,,,,,,,,,,,,,,,,,,,,,,,,,,,,,,,,,jul_l,001,a,2019_Oct_10_1306,Experimento,3.2.3,59.93962928247254,
8,14,14,999,0.5,0:10,3,Magenta,None,0,0,1,15:50,./completed_changuitos/montage_pssky_35.5_40.55.jpg,right,0,0,0,0,,,,,0,1,1,1,,,,,,,,,0,0,0,0,0,2,2,2,,,,,,,,,,,,,,,,,,,,,,,,,,,,,,,,,116.60643519400037,117.10598644500715,None,1,116.60643519400037,116.60643519400037,,,,,,,,,,,,,,,,,,,,,,,,,,,,,,,,,,,,,,,,,,,,,,jul_l,001,a,2019_Oct_10_1306,Experimento,3.2.3,59.93962928247254,
8,14,14,999,0.5,0:10,3,Cyan,None,0,0,1,15:50,./completed_changuitos/montage_pssky_35.5_40.55.jpg,right,0,0,0,0,,,,,0,1,1,1,,,,,,,,,0,0,0,0,0,3,3,3,,,,,,,,,,,,,,,,,,,,,,,,,,,,,,,,,118.6054994790029,119.10532994499954,None,1,118.6054994790029,118.6054994790029,,,,,,,,,,,,,,,,,,,,,,,,,,,,,,,,,,,,,,,,,,,,,,jul_l,001,a,2019_Oct_10_1306,Experimento,3.2.3,59.93962928247254,
8,14,14,999,0.5,0:10,3,Blue,None,0,0,1,15:50,./completed_changuitos/montage_pssky_35.5_40.55.jpg,right,0,0,0,0,,,,,0,1,1,1,,,,,,,,,0,0,0,0,0,4,4,4,,,,,,,,,,,,,,,,,,,,,,,,,,,,,,,,,120.6047395200003,121.10465329600265,None,1,120.6047395200003,120.6047395200003,,,,,,,,,,,,,,,,,,,,,,,,,,,,,,,,,,,,,,,,,,,,,,jul_l,001,a,2019_Oct_10_1306,Experimento,3.2.3,59.93962928247254,
8,14,14,999,0.5,0:10,3,Magenta,None,0,0,1,15:50,./completed_changuitos/montage_pssky_35.5_40.55.jpg,right,0,0,0,0,,,,,0,1,1,1,,,,,,,,,0,0,0,0,0,5,5,5,,,,,,,,,,,,,,,,,,,,,,,,,,,,,,,,,122.60400467900035,123.10393530200236,['return'],0,122.60400467900035,122.60400467900035,[0.4505687649943866],,,,,,,,,,,,,,,,,,,,,,,,,,,,,,,,,,,,,,,,,,,,,jul_l,001,a,2019_Oct_10_1306,Experimento,3.2.3,59.93962928247254,
8,14,14,999,0.5,0:10,3,Blue,['space'],0,0,1,15:50,./completed_changuitos/montage_pssky_35.5_40.55.jpg,right,0,0,0,0,,,,,0,1,1,1,,,,,,,,,0,0,0,0,0,6,6,6,,,,,,,,,,,,,,,,,,,,,,,,,,,,,,,,,124.60327970000799,125.10324556101114,['return'],0,124.60327970000799,124.60327970000799,[0.46720139899116475],,,,,,,,,,,,,,,,,,,,,,,,,,,,,,,,,,,,,,,,,,,,,jul_l,001,a,2019_Oct_10_1306,Experimento,3.2.3,59.93962928247254,
8,14,14,999,0.5,0:10,3,Cyan,None,0,0,1,15:50,./completed_changuitos/montage_pssky_35.5_40.55.jpg,right,0,0,0,0,,,,,0,1,1,1,,,,,,,,,0,0,0,0,0,7,7,7,,,,,,,,,,,,,,,,,,,,,,,,,,,,,,,,,126.58606537831074,None,None,1,126.58606537831074,None,,,,,,,,,,,,,,,,,,,,,,,,,,,,,,,,,,,,,,,,,,,,,,jul_l,001,a,2019_Oct_10_1306,Experimento,3.2.3,59.93962928247254,
8,14,14,999,0.5,0:10,3,Yellow,None,0,0,1,15:50,./completed_changuitos/montage_pssky_35.5_40.55.jpg,right,0,0,0,0,,,,,0,1,1,1,,,,,,,,,0,0,0,0,0,8,8,8,,,,,,,,,,,,,,,,,,,,,,,,,,,,,,,,,126.58606537831074,None,None,1,126.58606537831074,None,,,,,,,,,,,,,,,,,,,,,,,,,,,,,,,,,,,,,,,,,,,,,,jul_l,001,a,2019_Oct_10_1306,Experimento,3.2.3,59.93962928247254,
8,14,14,999,0.5,0:10,3,Cyan,None,0,0,1,15:50,./completed_changuitos/montage_pssky_35.5_40.55.jpg,right,0,0,0,0,,,,,0,1,1,1,,,,,,,,,0,0,0,0,0,9,9,9,,,,,,,,,,,,,,,,,,,,,,,,,,,,,,,,,126.58606537831074,None,None,1,126.58606537831074,None,,,,,,,,,,,,,,,,,,,,,,,,,,,,,,,,,,,,,,,,,,,,,,jul_l,001,a,2019_Oct_10_1306,Experimento,3.2.3,59.93962928247254,
8,14,14,999,0.5,0:10,3,Blue,None,0,0,1,15:50,./completed_changuitos/montage_pssky_35.5_40.55.jpg,right,0,0,0,0,,,,,0,1,1,1,,,,,,,,,0,0,0,0,0,10,10,10,,,,,,,,,,,,,,,,,,,,,,,,,,,,,,,,,126.58606537831074,None,None,1,126.58606537831074,None,,,,,,,,,,,,,,,,,,,,,,,,,,,,,,,,,,,,,,,,,,,,,,jul_l,001,a,2019_Oct_10_1306,Experimento,3.2.3,59.93962928247254,
8,14,14,999,0.5,0:10,3,Cyan,['space'],0,0,1,15:50,./completed_changuitos/montage_pssky_35.5_40.55.jpg,right,0,0,0,0,,,,,0,1,1,1,,,,,,,,,0,0,0,0,0,11,11,11,,,,,,,,,,,,,,,,,,,,,,,,,,,,,,,,,126.60273028860973,None,None,0,126.60273028860973,None,,,,,,,,,,,,,,,,,,,,,,,,,,,,,,,,,,,,,,,,,,,,,,jul_l,001,a,2019_Oct_10_1306,Experimento,3.2.3,59.93962928247254,
8,14,14,999,0.5,0:10,3,Magenta,None,0,0,1,15:50,./completed_changuitos/montage_pssky_35.5_40.55.jpg,right,0,0,0,0,,,,,0,1,1,1,,,,,,,,,0,0,0,0,0,12,12,12,,,,,,,,,,,,,,,,,,,,,,,,,,,,,,,,,126.60273028860973,None,None,1,126.60273028860973,None,,,,,,,,,,,,,,,,,,,,,,,,,,,,,,,,,,,,,,,,,,,,,,jul_l,001,a,2019_Oct_10_1306,Experimento,3.2.3,59.93962928247254,
8,14,14,999,0.5,0:10,3,Red,None,0,0,1,15:50,./completed_changuitos/montage_pssky_35.5_40.55.jpg,right,0,0,0,0,,,,,0,1,1,1,,,,,,,,,0,0,0,0,0,13,13,13,,,,,,,,,,,,,,,,,,,,,,,,,,,,,,,,,126.60273028860973,None,None,1,126.60273028860973,None,,,,,,,,,,,,,,,,,,,,,,,,,,,,,,,,,,,,,,,,,,,,,,jul_l,001,a,2019_Oct_10_1306,Experimento,3.2.3,59.93962928247254,
8,14,14,999,0.5,0:10,3,Magenta,['space'],0,0,1,15:50,./completed_changuitos/montage_pssky_35.5_40.55.jpg,right,0,0,0,0,,,,,0,1,1,1,,,,,,,,,0,0,0,0,0,14,14,14,,,,,,,,,,,,,,,,,,,,,,,,,,,,,,,,,126.60273028860973,None,None,0,126.60273028860973,None,,,,,,,,,,,,,,,,,,,,,,,,,,,,,,,,,,,,,,,,,,,,,,jul_l,001,a,2019_Oct_10_1306,Experimento,3.2.3,59.93962928247254,
8,14,14,999,0.5,0:10,3,Green,None,0,0,1,15:50,./completed_changuitos/montage_pssky_35.5_40.55.jpg,right,0,0,0,0,,,,,0,1,1,1,,,,,,,,,0,0,0,0,0,15,15,15,,,,,,,,,,,,,,,,,,,,,,,,,,,,,,,,,126.60273028860973,None,None,1,126.60273028860973,None,,,,,,,,,,,,,,,,,,,,,,,,,,,,,,,,,,,,,,,,,,,,,,jul_l,001,a,2019_Oct_10_1306,Experimento,3.2.3,59.93962928247254,
8,14,14,999,0.5,0:10,3,Yellow,['space'],0,0,1,15:50,./completed_changuitos/montage_pssky_35.5_40.55.jpg,right,0,0,0,0,,,,,0,1,1,1,,,,,,,,,0,0,0,0,0,16,16,16,,,,,,,,,,,,,,,,,,,,,,,,,,,,,,,,,126.60273028860973,None,None,0,126.60273028860973,None,,,,,,,,,,,,,,,,,,,,,,,,,,,,,,,,,,,,,,,,,,,,,,jul_l,001,a,2019_Oct_10_1306,Experimento,3.2.3,59.93962928247254,
8,14,14,999,0.5,0:10,3,Blue,None,0,0,1,15:50,./completed_changuitos/montage_pssky_35.5_40.55.jpg,right,0,0,0,0,,,,,0,1,1,1,,,,,,,,,0,0,0,0,0,17,17,17,,,,,,,,,,,,,,,,,,,,,,,,,,,,,,,,,126.61939519890875,None,None,1,126.61939519890875,None,,,,,,,,,,,,,,,,,,,,,,,,,,,,,,,,,,,,,,,,,,,,,,jul_l,001,a,2019_Oct_10_1306,Experimento,3.2.3,59.93962928247254,
8,14,14,999,0.5,0:10,3,Cyan,None,0,0,1,15:50,./completed_changuitos/montage_pssky_35.5_40.55.jpg,right,0,0,0,0,,,,,0,1,1,1,,,,,,,,,0,0,0,0,0,18,18,18,,,,,,,,,,,,,,,,,,,,,,,,,,,,,,,,,126.61939519890875,None,None,1,126.61939519890875,None,,,,,,,,,,,,,,,,,,,,,,,,,,,,,,,,,,,,,,,,,,,,,,jul_l,001,a,2019_Oct_10_1306,Experimento,3.2.3,59.93962928247254,
8,14,14,999,0.5,0:10,3,Blue,['space'],0,0,1,15:50,./completed_changuitos/montage_pssky_35.5_40.55.jpg,right,0,0,0,0,,,,,0,1,1,1,,,,,,,,,0,0,0,0,0,19,19,19,,,,,,,,,,,,,,,,,,,,,,,,,,,,,,,,,126.61939519890875,None,None,0,126.61939519890875,None,,,,,,,,,,,,,,,,,,,,,,,,,,,,,,,,,,,,,,,,,,,,,,jul_l,001,a,2019_Oct_10_1306,Experimento,3.2.3,59.93962928247254,
8,14,14,999,0.5,0:10,3,Yellow,None,0,0,1,15:50,./completed_changuitos/montage_pssky_35.5_40.55.jpg,right,0,0,0,0,,,,,0,1,1,1,,,,,,,,,0,0,0,0,0,20,20,20,,,,,,,,,,,,,,,,,,,,,,,,,,,,,,,,,126.61939519890875,None,None,1,126.61939519890875,None,,,,,,,,,,,,,,,,,,,,,,,,,,,,,,,,,,,,,,,,,,,,,,jul_l,001,a,2019_Oct_10_1306,Experimento,3.2.3,59.93962928247254,
8,14,14,999,0.5,0:10,3,Cyan,None,0,0,1,15:50,./completed_changuitos/montage_pssky_35.5_40.55.jpg,right,0,0,0,0,,,,,0,1,1,1,,,,,,,,,0,0,0,0,0,21,21,21,,,,,,,,,,,,,,,,,,,,,,,,,,,,,,,,,126.61939519890875,None,None,1,126.61939519890875,None,,,,,,,,,,,,,,,,,,,,,,,,,,,,,,,,,,,,,,,,,,,,,,jul_l,001,a,2019_Oct_10_1306,Experimento,3.2.3,59.93962928247254,
8,14,14,999,0.5,0:10,3,Yellow,['space'],0,0,1,15:50,./completed_changuitos/montage_pssky_35.5_40.55.jpg,right,0,0,0,0,,,,,0,1,1,1,,,,,,,,,0,0,0,0,0,22,22,22,,,,,,,,,,,,,,,,,,,,,,,,,,,,,,,,,126.61939519890875,None,None,0,126.61939519890875,None,,,,,,,,,,,,,,,,,,,,,,,,,,,,,,,,,,,,,,,,,,,,,,jul_l,001,a,2019_Oct_10_1306,Experimento,3.2.3,59.93962928247254,
8,14,14,999,0.5,0:10,3,Magenta,None,0,0,1,15:50,./completed_changuitos/montage_pssky_35.5_40.55.jpg,right,0,0,0,0,,,,,0,1,1,1,,,,,,,,,0,0,0,0,0,23,23,23,,,,,,,,,,,,,,,,,,,,,,,,,,,,,,,,,126.61939519890875,None,None,1,126.61939519890875,None,,,,,,,,,,,,,,,,,,,,,,,,,,,,,,,,,,,,,,,,,,,,,,jul_l,001,a,2019_Oct_10_1306,Experimento,3.2.3,59.93962928247254,
8,14,14,999,0.5,0:10,3,Red,None,0,0,1,15:50,./completed_changuitos/montage_pssky_35.5_40.55.jpg,right,0,0,0,0,,,,,0,1,1,1,,,,,,,,,0,0,0,0,0,24,24,24,,,,,,,,,,,,,,,,,,,,,,,,,,,,,,,,,126.61939519890875,None,None,1,126.61939519890875,None,,,,,,,,,,,,,,,,,,,,,,,,,,,,,,,,,,,,,,,,,,,,,,jul_l,001,a,2019_Oct_10_1306,Experimento,3.2.3,59.93962928247254,
8,14,14,999,0.5,0:10,3,Magenta,['space'],0,0,1,15:50,./completed_changuitos/montage_pssky_35.5_40.55.jpg,right,0,0,0,0,,,,,0,1,1,1,,,,,,,,,0,0,0,0,0,25,25,25,,,,,,,,,,,,,,,,,,,,,,,,,,,,,,,,,126.61939519890875,None,None,0,126.61939519890875,None,,,,,,,,,,,,,,,,,,,,,,,,,,,,,,,,,,,,,,,,,,,,,,jul_l,001,a,2019_Oct_10_1306,Experimento,3.2.3,59.93962928247254,
8,14,14,999,0.5,0:10,3,Red,['space'],0,0,1,15:50,./completed_changuitos/montage_pssky_35.5_40.55.jpg,right,0,0,0,0,,,,,0,1,1,1,,,,,,,,,0,0,0,0,0,26,26,26,,,,,,,,,,,,,,,,,,,,,,,,,,,,,,,,,126.61939519890875,None,None,0,126.61939519890875,None,,,,,,,,,,,,,,,,,,,,,,,,,,,,,,,,,,,,,,,,,,,,,,jul_l,001,a,2019_Oct_10_1306,Experimento,3.2.3,59.93962928247254,
8,14,14,999,0.5,0:10,3,Yellow,None,0,0,1,15:50,./completed_changuitos/montage_pssky_35.5_40.55.jpg,right,0,0,0,0,,,,,0,1,1,1,,,,,,,,,0,0,0,0,0,27,27,27,,,,,,,,,,,,,,,,,,,,,,,,,,,,,,,,,126.61939519890875,None,None,1,126.61939519890875,None,,,,,,,,,,,,,,,,,,,,,,,,,,,,,,,,,,,,,,,,,,,,,,jul_l,001,a,2019_Oct_10_1306,Experimento,3.2.3,59.93962928247254,
8,14,14,999,0.5,0:10,3,Cyan,None,0,0,1,15:50,./completed_changuitos/montage_pssky_35.5_40.55.jpg,right,0,0,0,0,,,,,0,1,1,1,,,,,,,,,0,0,0,0,0,28,28,28,,,,,,,,,,,,,,,,,,,,,,,,,,,,,,,,,126.61939519890875,None,None,1,126.61939519890875,None,,,,,,,,,,,,,,,,,,,,,,,,,,,,,,,,,,,,,,,,,,,,,,jul_l,001,a,2019_Oct_10_1306,Experimento,3.2.3,59.93962928247254,
8,14,14,999,0.5,0:10,3,Green,None,0,0,1,15:50,./completed_changuitos/montage_pssky_35.5_40.55.jpg,right,0,0,0,0,,,,,0,1,1,1,,,,,,,,,0,0,0,0,0,29,29,29,,,,,,,,,,,,,,,,,,,,,,,,,,,,,,,,,126.61939519890875,None,None,1,126.61939519890875,None,,,,,,,,,,,,,,,,,,,,,,,,,,,,,,,,,,,,,,,,,,,,,,jul_l,001,a,2019_Oct_10_1306,Experimento,3.2.3,59.93962928247254,
8,14,14,999,0.5,0:10,3,White,None,0,0,1,15:50,./completed_changuitos/montage_pssky_35.5_40.55.jpg,right,0,0,0,0,,,,,0,1,1,1,,,,,,,,,0,0,0,0,0,30,30,30,,,,,,,,,,,,,,,,,,,,,,,,,,,,,,,,,126.63606010920775,None,None,1,126.63606010920775,None,,,,,,,,,,,,,,,,,,,,,,,,,,,,,,,,,,,,,,,,,,,,,,jul_l,001,a,2019_Oct_10_1306,Experimento,3.2.3,59.93962928247254,
8,14,14,999,0.5,0:10,3,Green,['space'],0,0,1,15:50,./completed_changuitos/montage_pssky_35.5_40.55.jpg,right,0,0,0,0,,,,,0,1,1,1,,,,,,,,,0,0,0,0,0,31,31,31,,,,,,,,,,,,,,,,,,,,,,,,,,,,,,,,,126.63606010920775,None,None,0,126.63606010920775,None,,,,,,,,,,,,,,,,,,,,,,,,,,,,,,,,,,,,,,,,,,,,,,jul_l,001,a,2019_Oct_10_1306,Experimento,3.2.3,59.93962928247254,
8,14,14,999,0.5,0:10,3,Red,None,0,0,1,15:50,./completed_changuitos/montage_pssky_35.5_40.55.jpg,right,0,0,0,0,,,,,0,1,1,1,,,,,,,,,0,0,0,0,0,32,32,32,,,,,,,,,,,,,,,,,,,,,,,,,,,,,,,,,126.63606010920775,None,None,1,126.63606010920775,None,,,,,,,,,,,,,,,,,,,,,,,,,,,,,,,,,,,,,,,,,,,,,,jul_l,001,a,2019_Oct_10_1306,Experimento,3.2.3,59.93962928247254,
8,14,14,999,0.5,0:10,3,Blue,None,0,0,1,15:50,./completed_changuitos/montage_pssky_35.5_40.55.jpg,right,0,0,0,0,,,,,0,1,1,1,,,,,,,,,0,0,0,0,0,33,33,33,,,,,,,,,,,,,,,,,,,,,,,,,,,,,,,,,126.63606010920775,None,None,1,126.63606010920775,None,,,,,,,,,,,,,,,,,,,,,,,,,,,,,,,,,,,,,,,,,,,,,,jul_l,001,a,2019_Oct_10_1306,Experimento,3.2.3,59.93962928247254,
8,14,14,999,0.5,0:10,3,Green,None,0,0,1,15:50,./completed_changuitos/montage_pssky_35.5_40.55.jpg,right,0,0,0,0,,,,,0,1,1,1,,,,,,,,,0,0,0,0,0,34,34,34,,,,,,,,,,,,,,,,,,,,,,,,,,,,,,,,,126.63606010920775,None,None,1,126.63606010920775,None,,,,,,,,,,,,,,,,,,,,,,,,,,,,,,,,,,,,,,,,,,,,,,jul_l,001,a,2019_Oct_10_1306,Experimento,3.2.3,59.93962928247254,
8,14,14,999,0.5,0:10,3,,,0,0,1,15:50,./completed_changuitos/montage_pssky_35.5_40.55.jpg,right,0,0,0,0,,,,,0,1,1,1,,,,,,,,,0,0,0,0,,,,,,,,,,,,,,,,,,,,,,,,,,,,,,,,,,,,,,,,,,,,126.66936068401264,None,right,1,3.4987152729881927,126.66936068401264,None,126.66936068401264,129.68501315100002,,,,,,,,,,,,,,,,,,,,,,,,,,,,,,,,,,,,jul_l,001,a,2019_Oct_10_1306,Experimento,3.2.3,59.93962928247254,
8,14,14,999,0.5,0:10,3,,,0,0,1,15:50,,,0,0,0,0,,,,,0,1,1,1,,,,,,,,,,,,,,,,,,,,,,,,,,,,,,,,,,,,,,,,,,,,,,,,,,,,,,,,,,,,,,,,,,,,,,,,,,,,,,,,,,,,,,,,,,,,,,,,,,,,jul_l,001,a,2019_Oct_10_1306,Experimento,3.2.3,59.93962928247254,
8,14,14,999,0.5,0:10,3,,,0,1,0,19:50,./completed_changuitos/montage_wkiif_73.3_64.19.jpg,left,0,0,0,0,,,,,0,2,2,2,,,,,0,0,0,0,,,,,,,,,,,,,,,,,,,,,,130.3101265310106,132.86688411500654,132.86688411500654,140.88119234000624,140.88119234000624,154.89308605200495,left,1,1.0334643550013425,154.89308605200495,None,154.89308605200495,None,154.89308605200495,None,,,,,,,,,,,,,,,,,,,,,,,,,,,,,,,,,,,,,,,,,,,,,,,,,,,,,,,,jul_l,001,a,2019_Oct_10_1306,Experimento,3.2.3,59.93962928247254,
8,14,14,999,0.5,0:10,3,,,0,1,0,19:50,,,0,0,0,0,,,,,0,2,2,2,,,,,,,,,,,,,,,,,,,,,,,,,,,,,,,,,,,,,,,,,,,,,,,,,,,,,,,,,,,,,,,,,,,,,,,,,,,,,,,,,,,,,,,,,,,,,,,,,,,,jul_l,001,a,2019_Oct_10_1306,Experimento,3.2.3,59.93962928247254,
8,14,14,999,0.5,0:10,3,Magenta,None,0,0,1,20:50,./completed_changuitos/montage_dxlru_106.79_123.05.jpg,right,0,0,0,0,,,,,0,3,3,3,,,,,,,,,0,0,0,0,0,0,0,0,,,,,,,,,,,,,,,,,,,,,,,,,,,,,156.06251405901276,159.44347421200655,159.44347421200655,None,167.4844302450074,167.98858497499896,None,1,167.4844302450074,None,,,,,,,,,,,,,,,,,,,,,,,,,,,,,,,,,,,,,,,,,,,,,,jul_l,001,a,2019_Oct_10_1306,Experimento,3.2.3,59.93962928247254,
8,14,14,999,0.5,0:10,3,Blue,['space'],0,0,1,20:50,./completed_changuitos/montage_dxlru_106.79_123.05.jpg,right,0,0,0,0,,,,,0,3,3,3,,,,,,,,,0,0,0,0,0,1,1,1,,,,,,,,,,,,,,,,,,,,,,,,,,,,,,,,,169.48795339600474,169.9879079710081,None,0,169.48795339600474,169.48795339600474,,,,,,,,,,,,,,,,,,,,,,,,,,,,,,,,,,,,,,,,,,,,,,jul_l,001,a,2019_Oct_10_1306,Experimento,3.2.3,59.93962928247254,
8,14,14,999,0.5,0:10,3,Cyan,None,0,0,1,20:50,./completed_changuitos/montage_dxlru_106.79_123.05.jpg,right,0,0,0,0,,,,,0,3,3,3,,,,,,,,,0,0,0,0,0,2,2,2,,,,,,,,,,,,,,,,,,,,,,,,,,,,,,,,,171.48735656400095,171.98727069501183,None,1,171.48735656400095,171.48735656400095,,,,,,,,,,,,,,,,,,,,,,,,,,,,,,,,,,,,,,,,,,,,,,jul_l,001,a,2019_Oct_10_1306,Experimento,3.2.3,59.93962928247254,
8,14,14,999,0.5,0:10,3,Yellow,None,0,0,1,20:50,./completed_changuitos/montage_dxlru_106.79_123.05.jpg,right,0,0,0,0,,,,,0,3,3,3,,,,,,,,,0,0,0,0,0,3,3,3,,,,,,,,,,,,,,,,,,,,,,,,,,,,,,,,,173.48670633501024,173.98655871200026,None,1,173.48670633501024,173.48670633501024,,,,,,,,,,,,,,,,,,,,,,,,,,,,,,,,,,,,,,,,,,,,,,jul_l,001,a,2019_Oct_10_1306,Experimento,3.2.3,59.93962928247254,
8,14,14,999,0.5,0:10,3,Cyan,None,0,0,1,20:50,./completed_changuitos/montage_dxlru_106.79_123.05.jpg,right,0,0,0,0,,,,,0,3,3,3,,,,,,,,,0,0,0,0,0,4,4,4,,,,,,,,,,,,,,,,,,,,,,,,,,,,,,,,,175.50239008900826,176.0021467070037,['return'],0,175.50239008900826,175.50239008900826,[0.43358842500310857],,,,,,,,,,,,,,,,,,,,,,,,,,,,,,,,,,,,,,,,,,,,,jul_l,001,a,2019_Oct_10_1306,Experimento,3.2.3,59.93962928247254,
8,14,14,999,0.5,0:10,3,Blue,None,0,0,1,20:50,./completed_changuitos/montage_dxlru_106.79_123.05.jpg,right,0,0,0,0,,,,,0,3,3,3,,,,,,,,,0,0,0,0,0,5,5,5,,,,,,,,,,,,,,,,,,,,,,,,,,,,,,,,,177.50177019600233,178.00192272200366,None,1,177.50177019600233,177.50177019600233,,,,,,,,,,,,,,,,,,,,,,,,,,,,,,,,,,,,,,,,,,,,,,jul_l,001,a,2019_Oct_10_1306,Experimento,3.2.3,59.93962928247254,
8,14,14,999,0.5,0:10,3,Cyan,['space'],0,0,1,20:50,./completed_changuitos/montage_dxlru_106.79_123.05.jpg,right,0,0,0,0,,,,,0,3,3,3,,,,,,,,,0,0,0,0,0,6,6,6,,,,,,,,,,,,,,,,,,,,,,,,,,,,,,,,,179.50127334600256,180.0011719380127,['return'],0,179.50127334600256,179.50127334600256,[0.5674885340122273],,,,,,,,,,,,,,,,,,,,,,,,,,,,,,,,,,,,,,,,,,,,,jul_l,001,a,2019_Oct_10_1306,Experimento,3.2.3,59.93962928247254,
8,14,14,999,0.5,0:10,3,Magenta,None,0,0,1,20:50,./completed_changuitos/montage_dxlru_106.79_123.05.jpg,right,0,0,0,0,,,,,0,3,3,3,,,,,,,,,0,0,0,0,0,7,7,7,,,,,,,,,,,,,,,,,,,,,,,,,,,,,,,,,181.46732114030746,None,None,1,181.46732114030746,None,,,,,,,,,,,,,,,,,,,,,,,,,,,,,,,,,,,,,,,,,,,,,,jul_l,001,a,2019_Oct_10_1306,Experimento,3.2.3,59.93962928247254,
8,14,14,999,0.5,0:10,3,Red,None,0,0,1,20:50,./completed_changuitos/montage_dxlru_106.79_123.05.jpg,right,0,0,0,0,,,,,0,3,3,3,,,,,,,,,0,0,0,0,0,8,8,8,,,,,,,,,,,,,,,,,,,,,,,,,,,,,,,,,181.46732114030746,None,None,1,181.46732114030746,None,,,,,,,,,,,,,,,,,,,,,,,,,,,,,,,,,,,,,,,,,,,,,,jul_l,001,a,2019_Oct_10_1306,Experimento,3.2.3,59.93962928247254,
8,14,14,999,0.5,0:10,3,Magenta,['space'],0,0,1,20:50,./completed_changuitos/montage_dxlru_106.79_123.05.jpg,right,0,0,0,0,,,,,0,3,3,3,,,,,,,,,0,0,0,0,0,9,9,9,,,,,,,,,,,,,,,,,,,,,,,,,,,,,,,,,181.46732114030746,None,None,0,181.46732114030746,None,,,,,,,,,,,,,,,,,,,,,,,,,,,,,,,,,,,,,,,,,,,,,,jul_l,001,a,2019_Oct_10_1306,Experimento,3.2.3,59.93962928247254,
8,14,14,999,0.5,0:10,3,Green,None,0,0,1,20:50,./completed_changuitos/montage_dxlru_106.79_123.05.jpg,right,0,0,0,0,,,,,0,3,3,3,,,,,,,,,0,0,0,0,0,10,10,10,,,,,,,,,,,,,,,,,,,,,,,,,,,,,,,,,181.46732114030746,None,None,1,181.46732114030746,None,,,,,,,,,,,,,,,,,,,,,,,,,,,,,,,,,,,,,,,,,,,,,,jul_l,001,a,2019_Oct_10_1306,Experimento,3.2.3,59.93962928247254,
8,14,14,999,0.5,0:10,3,Yellow,['space'],0,0,1,20:50,./completed_changuitos/montage_dxlru_106.79_123.05.jpg,right,0,0,0,0,,,,,0,3,3,3,,,,,,,,,0,0,0,0,0,11,11,11,,,,,,,,,,,,,,,,,,,,,,,,,,,,,,,,,181.48398605060646,None,None,0,181.48398605060646,None,,,,,,,,,,,,,,,,,,,,,,,,,,,,,,,,,,,,,,,,,,,,,,jul_l,001,a,2019_Oct_10_1306,Experimento,3.2.3,59.93962928247254,
8,14,14,999,0.5,0:10,3,Blue,None,0,0,1,20:50,./completed_changuitos/montage_dxlru_106.79_123.05.jpg,right,0,0,0,0,,,,,0,3,3,3,,,,,,,,,0,0,0,0,0,12,12,12,,,,,,,,,,,,,,,,,,,,,,,,,,,,,,,,,181.48398605060646,None,None,1,181.48398605060646,None,,,,,,,,,,,,,,,,,,,,,,,,,,,,,,,,,,,,,,,,,,,,,,jul_l,001,a,2019_Oct_10_1306,Experimento,3.2.3,59.93962928247254,
8,14,14,999,0.5,0:10,3,Cyan,None,0,0,1,20:50,./completed_changuitos/montage_dxlru_106.79_123.05.jpg,right,0,0,0,0,,,,,0,3,3,3,,,,,,,,,0,0,0,0,0,13,13,13,,,,,,,,,,,,,,,,,,,,,,,,,,,,,,,,,181.48398605060646,None,None,1,181.48398605060646,None,,,,,,,,,,,,,,,,,,,,,,,,,,,,,,,,,,,,,,,,,,,,,,jul_l,001,a,2019_Oct_10_1306,Experimento,3.2.3,59.93962928247254,
8,14,14,999,0.5,0:10,3,Blue,['space'],0,0,1,20:50,./completed_changuitos/montage_dxlru_106.79_123.05.jpg,right,0,0,0,0,,,,,0,3,3,3,,,,,,,,,0,0,0,0,0,14,14,14,,,,,,,,,,,,,,,,,,,,,,,,,,,,,,,,,181.48398605060646,None,None,0,181.48398605060646,None,,,,,,,,,,,,,,,,,,,,,,,,,,,,,,,,,,,,,,,,,,,,,,jul_l,001,a,2019_Oct_10_1306,Experimento,3.2.3,59.93962928247254,
8,14,14,999,0.5,0:10,3,Yellow,None,0,0,1,20:50,./completed_changuitos/montage_dxlru_106.79_123.05.jpg,right,0,0,0,0,,,,,0,3,3,3,,,,,,,,,0,0,0,0,0,15,15,15,,,,,,,,,,,,,,,,,,,,,,,,,,,,,,,,,181.48398605060646,None,None,1,181.48398605060646,None,,,,,,,,,,,,,,,,,,,,,,,,,,,,,,,,,,,,,,,,,,,,,,jul_l,001,a,2019_Oct_10_1306,Experimento,3.2.3,59.93962928247254,
8,14,14,999,0.5,0:10,3,Cyan,None,0,0,1,20:50,./completed_changuitos/montage_dxlru_106.79_123.05.jpg,right,0,0,0,0,,,,,0,3,3,3,,,,,,,,,0,0,0,0,0,16,16,16,,,,,,,,,,,,,,,,,,,,,,,,,,,,,,,,,181.48398605060646,None,None,1,181.48398605060646,None,,,,,,,,,,,,,,,,,,,,,,,,,,,,,,,,,,,,,,,,,,,,,,jul_l,001,a,2019_Oct_10_1306,Experimento,3.2.3,59.93962928247254,
8,14,14,999,0.5,0:10,3,Yellow,['space'],0,0,1,20:50,./completed_changuitos/montage_dxlru_106.79_123.05.jpg,right,0,0,0,0,,,,,0,3,3,3,,,,,,,,,0,0,0,0,0,17,17,17,,,,,,,,,,,,,,,,,,,,,,,,,,,,,,,,,181.50065096090546,None,None,0,181.50065096090546,None,,,,,,,,,,,,,,,,,,,,,,,,,,,,,,,,,,,,,,,,,,,,,,jul_l,001,a,2019_Oct_10_1306,Experimento,3.2.3,59.93962928247254,
8,14,14,999,0.5,0:10,3,Magenta,None,0,0,1,20:50,./completed_changuitos/montage_dxlru_106.79_123.05.jpg,right,0,0,0,0,,,,,0,3,3,3,,,,,,,,,0,0,0,0,0,18,18,18,,,,,,,,,,,,,,,,,,,,,,,,,,,,,,,,,181.50065096090546,None,None,1,181.50065096090546,None,,,,,,,,,,,,,,,,,,,,,,,,,,,,,,,,,,,,,,,,,,,,,,jul_l,001,a,2019_Oct_10_1306,Experimento,3.2.3,59.93962928247254,
8,14,14,999,0.5,0:10,3,Red,None,0,0,1,20:50,./completed_changuitos/montage_dxlru_106.79_123.05.jpg,right,0,0,0,0,,,,,0,3,3,3,,,,,,,,,0,0,0,0,0,19,19,19,,,,,,,,,,,,,,,,,,,,,,,,,,,,,,,,,181.50065096090546,None,None,1,181.50065096090546,None,,,,,,,,,,,,,,,,,,,,,,,,,,,,,,,,,,,,,,,,,,,,,,jul_l,001,a,2019_Oct_10_1306,Experimento,3.2.3,59.93962928247254,
8,14,14,999,0.5,0:10,3,Magenta,['space'],0,0,1,20:50,./completed_changuitos/montage_dxlru_106.79_123.05.jpg,right,0,0,0,0,,,,,0,3,3,3,,,,,,,,,0,0,0,0,0,20,20,20,,,,,,,,,,,,,,,,,,,,,,,,,,,,,,,,,181.50065096090546,None,None,0,181.50065096090546,None,,,,,,,,,,,,,,,,,,,,,,,,,,,,,,,,,,,,,,,,,,,,,,jul_l,001,a,2019_Oct_10_1306,Experimento,3.2.3,59.93962928247254,
8,14,14,999,0.5,0:10,3,Red,['space'],0,0,1,20:50,./completed_changuitos/montage_dxlru_106.79_123.05.jpg,right,0,0,0,0,,,,,0,3,3,3,,,,,,,,,0,0,0,0,0,21,21,21,,,,,,,,,,,,,,,,,,,,,,,,,,,,,,,,,181.50065096090546,None,None,0,181.50065096090546,None,,,,,,,,,,,,,,,,,,,,,,,,,,,,,,,,,,,,,,,,,,,,,,jul_l,001,a,2019_Oct_10_1306,Experimento,3.2.3,59.93962928247254,
8,14,14,999,0.5,0:10,3,Yellow,None,0,0,1,20:50,./completed_changuitos/montage_dxlru_106.79_123.05.jpg,right,0,0,0,0,,,,,0,3,3,3,,,,,,,,,0,0,0,0,0,22,22,22,,,,,,,,,,,,,,,,,,,,,,,,,,,,,,,,,181.50065096090546,None,None,1,181.50065096090546,None,,,,,,,,,,,,,,,,,,,,,,,,,,,,,,,,,,,,,,,,,,,,,,jul_l,001,a,2019_Oct_10_1306,Experimento,3.2.3,59.93962928247254,
8,14,14,999,0.5,0:10,3,Cyan,None,0,0,1,20:50,./completed_changuitos/montage_dxlru_106.79_123.05.jpg,right,0,0,0,0,,,,,0,3,3,3,,,,,,,,,0,0,0,0,0,23,23,23,,,,,,,,,,,,,,,,,,,,,,,,,,,,,,,,,181.50065096090546,None,None,1,181.50065096090546,None,,,,,,,,,,,,,,,,,,,,,,,,,,,,,,,,,,,,,,,,,,,,,,jul_l,001,a,2019_Oct_10_1306,Experimento,3.2.3,59.93962928247254,
8,14,14,999,0.5,0:10,3,Green,None,0,0,1,20:50,./completed_changuitos/montage_dxlru_106.79_123.05.jpg,right,0,0,0,0,,,,,0,3,3,3,,,,,,,,,0,0,0,0,0,24,24,24,,,,,,,,,,,,,,,,,,,,,,,,,,,,,,,,,181.50065096090546,None,None,1,181.50065096090546,None,,,,,,,,,,,,,,,,,,,,,,,,,,,,,,,,,,,,,,,,,,,,,,jul_l,001,a,2019_Oct_10_1306,Experimento,3.2.3,59.93962928247254,
8,14,14,999,0.5,0:10,3,White,None,0,0,1,20:50,./completed_changuitos/montage_dxlru_106.79_123.05.jpg,right,0,0,0,0,,,,,0,3,3,3,,,,,,,,,0,0,0,0,0,25,25,25,,,,,,,,,,,,,,,,,,,,,,,,,,,,,,,,,181.50065096090546,None,None,1,181.50065096090546,None,,,,,,,,,,,,,,,,,,,,,,,,,,,,,,,,,,,,,,,,,,,,,,jul_l,001,a,2019_Oct_10_1306,Experimento,3.2.3,59.93962928247254,
8,14,14,999,0.5,0:10,3,Green,['space'],0,0,1,20:50,./completed_changuitos/montage_dxlru_106.79_123.05.jpg,right,0,0,0,0,,,,,0,3,3,3,,,,,,,,,0,0,0,0,0,26,26,26,,,,,,,,,,,,,,,,,,,,,,,,,,,,,,,,,181.50065096090546,None,None,0,181.50065096090546,None,,,,,,,,,,,,,,,,,,,,,,,,,,,,,,,,,,,,,,,,,,,,,,jul_l,001,a,2019_Oct_10_1306,Experimento,3.2.3,59.93962928247254,
8,14,14,999,0.5,0:10,3,Red,None,0,0,1,20:50,./completed_changuitos/montage_dxlru_106.79_123.05.jpg,right,0,0,0,0,,,,,0,3,3,3,,,,,,,,,0,0,0,0,0,27,27,27,,,,,,,,,,,,,,,,,,,,,,,,,,,,,,,,,181.50065096090546,None,None,1,181.50065096090546,None,,,,,,,,,,,,,,,,,,,,,,,,,,,,,,,,,,,,,,,,,,,,,,jul_l,001,a,2019_Oct_10_1306,Experimento,3.2.3,59.93962928247254,
8,14,14,999,0.5,0:10,3,Blue,None,0,0,1,20:50,./completed_changuitos/montage_dxlru_106.79_123.05.jpg,right,0,0,0,0,,,,,0,3,3,3,,,,,,,,,0,0,0,0,0,28,28,28,,,,,,,,,,,,,,,,,,,,,,,,,,,,,,,,,181.50065096090546,None,None,1,181.50065096090546,None,,,,,,,,,,,,,,,,,,,,,,,,,,,,,,,,,,,,,,,,,,,,,,jul_l,001,a,2019_Oct_10_1306,Experimento,3.2.3,59.93962928247254,
8,14,14,999,0.5,0:10,3,Green,None,0,0,1,20:50,./completed_changuitos/montage_dxlru_106.79_123.05.jpg,right,0,0,0,0,,,,,0,3,3,3,,,,,,,,,0,0,0,0,0,29,29,29,,,,,,,,,,,,,,,,,,,,,,,,,,,,,,,,,181.5173158712045,None,None,1,181.5173158712045,None,,,,,,,,,,,,,,,,,,,,,,,,,,,,,,,,,,,,,,,,,,,,,,jul_l,001,a,2019_Oct_10_1306,Experimento,3.2.3,59.93962928247254,
8,14,14,999,0.5,0:10,3,,,0,0,1,20:50,./completed_changuitos/montage_dxlru_106.79_123.05.jpg,right,0,0,0,0,,,,,0,3,3,3,,,,,,,,,0,0,0,0,,,,,,,,,,,,,,,,,,,,,,,,,,,,,,,,,,,,,,,,,,,,181.5442082810041,None,right,1,3.022537642988027,181.5442082810041,None,181.5442082810041,184.54956801100343,,,,,,,,,,,,,,,,,,,,,,,,,,,,,,,,,,,,jul_l,001,a,2019_Oct_10_1306,Experimento,3.2.3,59.93962928247254,
8,14,14,999,0.5,0:10,3,,,0,0,1,20:50,,,0,0,0,0,,,,,0,3,3,3,,,,,,,,,,,,,,,,,,,,,,,,,,,,,,,,,,,,,,,,,,,,,,,,,,,,,,,,,,,,,,,,,,,,,,,,,,,,,,,,,,,,,,,,,,,,,,,,,,,,jul_l,001,a,2019_Oct_10_1306,Experimento,3.2.3,59.93962928247254,
8,14,14,999,0.5,0:10,3,,,0,1,0,25:50,./completed_changuitos/montage_ajqet_71.55_62.05.jpg,left,0,0,0,0,,,,,0,4,4,4,,,,,0,0,0,0,,,,,,,,,,,,,,,,,,,,,,184.7035533610033,188.015070155001,188.015070155001,196.02900831399893,196.02900831399893,210.04046622900933,right,0,3.0326001509965863,210.04046622900933,None,210.04046622900933,None,210.04046622900933,213.03950357600115,,,,,,,,,,,,,,,,,,,,,,,,,,,,,,,,,,,,,,,,,,,,,,,,,,,,,,,,jul_l,001,a,2019_Oct_10_1306,Experimento,3.2.3,59.93962928247254,
8,14,14,999,0.5,0:10,3,,,0,1,0,25:50,,,0,0,0,0,,,,,0,4,4,4,,,,,,,,,,,,,,,,,,,,,,,,,,,,,,,,,,,,,,,,,,,,,,,,,,,,,,,,,,,,,,,,,,,,,,,,,,,,,,,,,,,,,,,,,,,,,,,,,,,,jul_l,001,a,2019_Oct_10_1306,Experimento,3.2.3,59.93962928247254,
8,14,14,999,0.5,0:10,3,Red,None,0,0,1,28:50,./completed_changuitos/montage_cyddr_54.79_63.65.jpg,right,0,0,0,0,,,,,0,5,5,5,,,,,,,,,0,0,0,0,0,0,0,0,,,,,,,,,,,,,,,,,,,,,,,,,,,,,213.2071357780078,214.92287793400465,214.92287793400465,None,222.96434242300165,223.4694289020117,None,1,222.96434242300165,None,,,,,,,,,,,,,,,,,,,,,,,,,,,,,,,,,,,,,,,,,,,,,,jul_l,001,a,2019_Oct_10_1306,Experimento,3.2.3,59.93962928247254,
8,14,14,999,0.5,0:10,3,Magenta,['space'],0,0,1,28:50,./completed_changuitos/montage_cyddr_54.79_63.65.jpg,right,0,0,0,0,,,,,0,5,5,5,,,,,,,,,0,0,0,0,0,1,1,1,,,,,,,,,,,,,,,,,,,,,,,,,,,,,,,,,224.96899815399956,225.46894169200095,None,0,224.96899815399956,224.96899815399956,,,,,,,,,,,,,,,,,,,,,,,,,,,,,,,,,,,,,,,,,,,,,,jul_l,001,a,2019_Oct_10_1306,Experimento,3.2.3,59.93962928247254,
8,14,14,999,0.5,0:10,3,Green,None,0,0,1,28:50,./completed_changuitos/montage_cyddr_54.79_63.65.jpg,right,0,0,0,0,,,,,0,5,5,5,,,,,,,,,0,0,0,0,0,2,2,2,,,,,,,,,,,,,,,,,,,,,,,,,,,,,,,,,226.96838607400423,227.46823718800442,None,1,226.96838607400423,226.96838607400423,,,,,,,,,,,,,,,,,,,,,,,,,,,,,,,,,,,,,,,,,,,,,,jul_l,001,a,2019_Oct_10_1306,Experimento,3.2.3,59.93962928247254,
8,14,14,999,0.5,0:10,3,Yellow,['space'],0,0,1,28:50,./completed_changuitos/montage_cyddr_54.79_63.65.jpg,right,0,0,0,0,,,,,0,5,5,5,,,,,,,,,0,0,0,0,0,3,3,3,,,,,,,,,,,,,,,,,,,,,,,,,,,,,,,,,228.96774614900642,229.4675486490014,None,0,228.96774614900642,228.96774614900642,,,,,,,,,,,,,,,,,,,,,,,,,,,,,,,,,,,,,,,,,,,,,,jul_l,001,a,2019_Oct_10_1306,Experimento,3.2.3,59.93962928247254,
8,14,14,999,0.5,0:10,3,Blue,None,0,0,1,28:50,./completed_changuitos/montage_cyddr_54.79_63.65.jpg,right,0,0,0,0,,,,,0,5,5,5,,,,,,,,,0,0,0,0,0,4,4,4,,,,,,,,,,,,,,,,,,,,,,,,,,,,,,,,,230.96700185300142,231.46691214400926,None,1,230.96700185300142,230.96700185300142,,,,,,,,,,,,,,,,,,,,,,,,,,,,,,,,,,,,,,,,,,,,,,jul_l,001,a,2019_Oct_10_1306,Experimento,3.2.3,59.93962928247254,
8,14,14,999,0.5,0:10,3,Cyan,None,0,0,1,28:50,./completed_changuitos/montage_cyddr_54.79_63.65.jpg,right,0,0,0,0,,,,,0,5,5,5,,,,,,,,,0,0,0,0,0,5,5,5,,,,,,,,,,,,,,,,,,,,,,,,,,,,,,,,,232.9663152180001,233.4662212240073,None,1,232.9663152180001,232.9663152180001,,,,,,,,,,,,,,,,,,,,,,,,,,,,,,,,,,,,,,,,,,,,,,jul_l,001,a,2019_Oct_10_1306,Experimento,3.2.3,59.93962928247254,
8,14,14,999,0.5,0:10,3,Blue,['space'],0,0,1,28:50,./completed_changuitos/montage_cyddr_54.79_63.65.jpg,right,0,0,0,0,,,,,0,5,5,5,,,,,,,,,0,0,0,0,0,6,6,6,,,,,,,,,,,,,,,,,,,,,,,,,,,,,,,,,234.96564652099914,235.46550967700023,['return'],0,234.96564652099914,234.96564652099914,[0.8170269780093804],,,,,,,,,,,,,,,,,,,,,,,,,,,,,,,,,,,,,,,,,,,,,jul_l,001,a,2019_Oct_10_1306,Experimento,3.2.3,59.93962928247254,
8,14,14,999,0.5,0:10,3,Yellow,None,0,0,1,28:50,./completed_changuitos/montage_cyddr_54.79_63.65.jpg,right,0,0,0,0,,,,,0,5,5,5,,,,,,,,,0,0,0,0,0,7,7,7,,,,,,,,,,,,,,,,,,,,,,,,,,,,,,,,,236.94834180130565,None,None,1,236.94834180130565,None,,,,,,,,,,,,,,,,,,,,,,,,,,,,,,,,,,,,,,,,,,,,,,jul_l,001,a,2019_Oct_10_1306,Experimento,3.2.3,59.93962928247254,
8,14,14,999,0.5,0:10,3,Cyan,None,0,0,1,28:50,./completed_changuitos/montage_cyddr_54.79_63.65.jpg,right,0,0,0,0,,,,,0,5,5,5,,,,,,,,,0,0,0,0,0,8,8,8,,,,,,,,,,,,,,,,,,,,,,,,,,,,,,,,,236.94834180130565,None,None,1,236.94834180130565,None,,,,,,,,,,,,,,,,,,,,,,,,,,,,,,,,,,,,,,,,,,,,,,jul_l,001,a,2019_Oct_10_1306,Experimento,3.2.3,59.93962928247254,
8,14,14,999,0.5,0:10,3,Yellow,['space'],0,0,1,28:50,./completed_changuitos/montage_cyddr_54.79_63.65.jpg,right,0,0,0,0,,,,,0,5,5,5,,,,,,,,,0,0,0,0,0,9,9,9,,,,,,,,,,,,,,,,,,,,,,,,,,,,,,,,,236.94834180130565,None,None,0,236.94834180130565,None,,,,,,,,,,,,,,,,,,,,,,,,,,,,,,,,,,,,,,,,,,,,,,jul_l,001,a,2019_Oct_10_1306,Experimento,3.2.3,59.93962928247254,
8,14,14,999,0.5,0:10,3,Magenta,None,0,0,1,28:50,./completed_changuitos/montage_cyddr_54.79_63.65.jpg,right,0,0,0,0,,,,,0,5,5,5,,,,,,,,,0,0,0,0,0,10,10,10,,,,,,,,,,,,,,,,,,,,,,,,,,,,,,,,,236.94834180130565,None,None,1,236.94834180130565,None,,,,,,,,,,,,,,,,,,,,,,,,,,,,,,,,,,,,,,,,,,,,,,jul_l,001,a,2019_Oct_10_1306,Experimento,3.2.3,59.93962928247254,
8,14,14,999,0.5,0:10,3,Red,None,0,0,1,28:50,./completed_changuitos/montage_cyddr_54.79_63.65.jpg,right,0,0,0,0,,,,,0,5,5,5,,,,,,,,,0,0,0,0,0,11,11,11,,,,,,,,,,,,,,,,,,,,,,,,,,,,,,,,,236.96500671160464,None,None,1,236.96500671160464,None,,,,,,,,,,,,,,,,,,,,,,,,,,,,,,,,,,,,,,,,,,,,,,jul_l,001,a,2019_Oct_10_1306,Experimento,3.2.3,59.93962928247254,
8,14,14,999,0.5,0:10,3,Magenta,['space'],0,0,1,28:50,./completed_changuitos/montage_cyddr_54.79_63.65.jpg,right,0,0,0,0,,,,,0,5,5,5,,,,,,,,,0,0,0,0,0,12,12,12,,,,,,,,,,,,,,,,,,,,,,,,,,,,,,,,,236.96500671160464,None,None,0,236.96500671160464,None,,,,,,,,,,,,,,,,,,,,,,,,,,,,,,,,,,,,,,,,,,,,,,jul_l,001,a,2019_Oct_10_1306,Experimento,3.2.3,59.93962928247254,
8,14,14,999,0.5,0:10,3,Red,['space'],0,0,1,28:50,./completed_changuitos/montage_cyddr_54.79_63.65.jpg,right,0,0,0,0,,,,,0,5,5,5,,,,,,,,,0,0,0,0,0,13,13,13,,,,,,,,,,,,,,,,,,,,,,,,,,,,,,,,,236.96500671160464,None,None,0,236.96500671160464,None,,,,,,,,,,,,,,,,,,,,,,,,,,,,,,,,,,,,,,,,,,,,,,jul_l,001,a,2019_Oct_10_1306,Experimento,3.2.3,59.93962928247254,
8,14,14,999,0.5,0:10,3,Yellow,None,0,0,1,28:50,./completed_changuitos/montage_cyddr_54.79_63.65.jpg,right,0,0,0,0,,,,,0,5,5,5,,,,,,,,,0,0,0,0,0,14,14,14,,,,,,,,,,,,,,,,,,,,,,,,,,,,,,,,,236.96500671160464,None,None,1,236.96500671160464,None,,,,,,,,,,,,,,,,,,,,,,,,,,,,,,,,,,,,,,,,,,,,,,jul_l,001,a,2019_Oct_10_1306,Experimento,3.2.3,59.93962928247254,
8,14,14,999,0.5,0:10,3,Cyan,None,0,0,1,28:50,./completed_changuitos/montage_cyddr_54.79_63.65.jpg,right,0,0,0,0,,,,,0,5,5,5,,,,,,,,,0,0,0,0,0,15,15,15,,,,,,,,,,,,,,,,,,,,,,,,,,,,,,,,,236.96500671160464,None,None,1,236.96500671160464,None,,,,,,,,,,,,,,,,,,,,,,,,,,,,,,,,,,,,,,,,,,,,,,jul_l,001,a,2019_Oct_10_1306,Experimento,3.2.3,59.93962928247254,
8,14,14,999,0.5,0:10,3,Green,None,0,0,1,28:50,./completed_changuitos/montage_cyddr_54.79_63.65.jpg,right,0,0,0,0,,,,,0,5,5,5,,,,,,,,,0,0,0,0,0,16,16,16,,,,,,,,,,,,,,,,,,,,,,,,,,,,,,,,,236.96500671160464,None,None,1,236.96500671160464,None,,,,,,,,,,,,,,,,,,,,,,,,,,,,,,,,,,,,,,,,,,,,,,jul_l,001,a,2019_Oct_10_1306,Experimento,3.2.3,59.93962928247254,
8,14,14,999,0.5,0:10,3,White,None,0,0,1,28:50,./completed_changuitos/montage_cyddr_54.79_63.65.jpg,right,0,0,0,0,,,,,0,5,5,5,,,,,,,,,0,0,0,0,0,17,17,17,,,,,,,,,,,,,,,,,,,,,,,,,,,,,,,,,236.98167162190364,None,None,1,236.98167162190364,None,,,,,,,,,,,,,,,,,,,,,,,,,,,,,,,,,,,,,,,,,,,,,,jul_l,001,a,2019_Oct_10_1306,Experimento,3.2.3,59.93962928247254,
8,14,14,999,0.5,0:10,3,Green,['space'],0,0,1,28:50,./completed_changuitos/montage_cyddr_54.79_63.65.jpg,right,0,0,0,0,,,,,0,5,5,5,,,,,,,,,0,0,0,0,0,18,18,18,,,,,,,,,,,,,,,,,,,,,,,,,,,,,,,,,236.98167162190364,None,None,0,236.98167162190364,None,,,,,,,,,,,,,,,,,,,,,,,,,,,,,,,,,,,,,,,,,,,,,,jul_l,001,a,2019_Oct_10_1306,Experimento,3.2.3,59.93962928247254,
8,14,14,999,0.5,0:10,3,Red,None,0,0,1,28:50,./completed_changuitos/montage_cyddr_54.79_63.65.jpg,right,0,0,0,0,,,,,0,5,5,5,,,,,,,,,0,0,0,0,0,19,19,19,,,,,,,,,,,,,,,,,,,,,,,,,,,,,,,,,236.98167162190364,None,None,1,236.98167162190364,None,,,,,,,,,,,,,,,,,,,,,,,,,,,,,,,,,,,,,,,,,,,,,,jul_l,001,a,2019_Oct_10_1306,Experimento,3.2.3,59.93962928247254,
8,14,14,999,0.5,0:10,3,Blue,None,0,0,1,28:50,./completed_changuitos/montage_cyddr_54.79_63.65.jpg,right,0,0,0,0,,,,,0,5,5,5,,,,,,,,,0,0,0,0,0,20,20,20,,,,,,,,,,,,,,,,,,,,,,,,,,,,,,,,,236.98167162190364,None,None,1,236.98167162190364,None,,,,,,,,,,,,,,,,,,,,,,,,,,,,,,,,,,,,,,,,,,,,,,jul_l,001,a,2019_Oct_10_1306,Experimento,3.2.3,59.93962928247254,
8,14,14,999,0.5,0:10,3,Green,None,0,0,1,28:50,./completed_changuitos/montage_cyddr_54.79_63.65.jpg,right,0,0,0,0,,,,,0,5,5,5,,,,,,,,,0,0,0,0,0,21,21,21,,,,,,,,,,,,,,,,,,,,,,,,,,,,,,,,,236.98167162190364,None,None,1,236.98167162190364,None,,,,,,,,,,,,,,,,,,,,,,,,,,,,,,,,,,,,,,,,,,,,,,jul_l,001,a,2019_Oct_10_1306,Experimento,3.2.3,59.93962928247254,
8,14,14,999,0.5,0:10,3,,,0,0,1,28:50,./completed_changuitos/montage_cyddr_54.79_63.65.jpg,right,0,0,0,0,,,,,0,5,5,5,,,,,,,,,0,0,0,0,,,,,,,,,,,,,,,,,,,,,,,,,,,,,,,,,,,,,,,,,,,,237.01595490700856,None,left,0,1.9986201599967899,237.01595490700856,None,237.01595490700856,None,,,,,,,,,,,,,,,,,,,,,,,,,,,,,,,,,,,,jul_l,001,a,2019_Oct_10_1306,Experimento,3.2.3,59.93962928247254,
8,14,14,999,0.5,0:10,3,,,0,0,1,28:50,,,0,0,0,0,,,,,0,5,5,5,,,,,,,,,,,,,,,,,,,,,,,,,,,,,,,,,,,,,,,,,,,,,,,,,,,,,,,,,,,,,,,,,,,,,,,,,,,,,,,,,,,,,,,,,,,,,,,,,,,,jul_l,001,a,2019_Oct_10_1306,Experimento,3.2.3,59.93962928247254,
8,14,14,999,0.5,0:10,3,,,0,1,0,10:50,./completed_changuitos/montage_nugmq_27.29_23.55.jpg,left,0,0,0,0,,,,,0,6,6,6,,,,,0,0,0,0,,,,,,,,,,,,,,,,,,,,,,239.15940413200587,241.93000170300365,241.93000170300365,249.94392403200618,249.94392403200618,263.9553845629998,left,1,3.249897362999036,263.9553845629998,None,263.9553845629998,None,263.9553845629998,266.95477556900005,,,,,,,,,,,,,,,,,,,,,,,,,,,,,,,,,,,,,,,,,,,,,,,,,,,,,,,,jul_l,001,a,2019_Oct_10_1306,Experimento,3.2.3,59.93962928247254,
8,14,14,999,0.5,0:10,3,,,0,1,0,10:50,,,0,0,0,0,,,,,0,6,6,6,,,,,,,,,,,,,,,,,,,,,,,,,,,,,,,,,,,,,,,,,,,,,,,,,,,,,,,,,,,,,,,,,,,,,,,,,,,,,,,,,,,,,,,,,,,,,,,,,,,,jul_l,001,a,2019_Oct_10_1306,Experimento,3.2.3,59.93962928247254,
8,14,14,999,0.5,0:10,3,Yellow,None,0,0,1,15:50,./completed_changuitos/montage_dimth_31.05_26.75.jpg,left,0,0,0,0,,,,,0,7,7,7,,,,,,,,,0,0,0,0,0,0,0,0,,,,,,,,,,,,,,,,,,,,,,,,,,,,,267.33601543201075,269.05365054101276,269.05365054101276,None,277.0938823010074,277.6007321260113,None,1,277.0938823010074,None,,,,,,,,,,,,,,,,,,,,,,,,,,,,,,,,,,,,,,,,,,,,,,jul_l,001,a,2019_Oct_10_1306,Experimento,3.2.3,59.93962928247254,
8,14,14,999,0.5,0:10,3,White,['space'],0,0,1,15:50,./completed_changuitos/montage_dimth_31.05_26.75.jpg,left,0,0,0,0,,,,,0,7,7,7,,,,,,,,,0,0,0,0,0,1,1,1,,,,,,,,,,,,,,,,,,,,,,,,,,,,,,,,,279.10044020600617,279.6001437080122,None,0,279.10044020600617,279.10044020600617,,,,,,,,,,,,,,,,,,,,,,,,,,,,,,,,,,,,,,,,,,,,,,jul_l,001,a,2019_Oct_10_1306,Experimento,3.2.3,59.93962928247254,
8,14,14,999,0.5,0:10,3,Magenta,None,0,0,1,15:50,./completed_changuitos/montage_dimth_31.05_26.75.jpg,left,0,0,0,0,,,,,0,7,7,7,,,,,,,,,0,0,0,0,0,2,2,2,,,,,,,,,,,,,,,,,,,,,,,,,,,,,,,,,281.09984117200656,281.5997227780026,None,1,281.09984117200656,281.09984117200656,,,,,,,,,,,,,,,,,,,,,,,,,,,,,,,,,,,,,,,,,,,,,,jul_l,001,a,2019_Oct_10_1306,Experimento,3.2.3,59.93962928247254,
8,14,14,999,0.5,0:10,3,Cyan,None,0,0,1,15:50,./completed_changuitos/montage_dimth_31.05_26.75.jpg,left,0,0,0,0,,,,,0,7,7,7,,,,,,,,,0,0,0,0,0,3,3,3,,,,,,,,,,,,,,,,,,,,,,,,,,,,,,,,,283.09916824899847,283.5990612970054,None,1,283.09916824899847,283.09916824899847,,,,,,,,,,,,,,,,,,,,,,,,,,,,,,,,,,,,,,,,,,,,,,jul_l,001,a,2019_Oct_10_1306,Experimento,3.2.3,59.93962928247254,
8,14,14,999,0.5,0:10,3,Blue,None,0,0,1,15:50,./completed_changuitos/montage_dimth_31.05_26.75.jpg,left,0,0,0,0,,,,,0,7,7,7,,,,,,,,,0,0,0,0,0,4,4,4,,,,,,,,,,,,,,,,,,,,,,,,,,,,,,,,,285.0985340059997,285.5980036430119,None,1,285.0985340059997,285.0985340059997,,,,,,,,,,,,,,,,,,,,,,,,,,,,,,,,,,,,,,,,,,,,,,jul_l,001,a,2019_Oct_10_1306,Experimento,3.2.3,59.93962928247254,
8,14,14,999,0.5,0:10,3,Magenta,None,0,0,1,15:50,./completed_changuitos/montage_dimth_31.05_26.75.jpg,left,0,0,0,0,,,,,0,7,7,7,,,,,,,,,0,0,0,0,0,5,5,5,,,,,,,,,,,,,,,,,,,,,,,,,,,,,,,,,287.09775831500883,287.5977074780094,None,1,287.09775831500883,287.09775831500883,,,,,,,,,,,,,,,,,,,,,,,,,,,,,,,,,,,,,,,,,,,,,,jul_l,001,a,2019_Oct_10_1306,Experimento,3.2.3,59.93962928247254,
8,14,14,999,0.5,0:10,3,Blue,['space'],0,0,1,15:50,./completed_changuitos/montage_dimth_31.05_26.75.jpg,left,0,0,0,0,,,,,0,7,7,7,,,,,,,,,0,0,0,0,0,6,6,6,,,,,,,,,,,,,,,,,,,,,,,,,,,,,,,,,289.09713343300973,289.59694824200415,['return'],0,289.09713343300973,289.09713343300973,[0.6515676940034609],,,,,,,,,,,,,,,,,,,,,,,,,,,,,,,,,,,,,,,,,,,,,jul_l,001,a,2019_Oct_10_1306,Experimento,3.2.3,59.93962928247254,
8,14,14,999,0.5,0:10,3,Cyan,None,0,0,1,15:50,./completed_changuitos/montage_dimth_31.05_26.75.jpg,left,0,0,0,0,,,,,0,7,7,7,,,,,,,,,0,0,0,0,0,7,7,7,,,,,,,,,,,,,,,,,,,,,,,,,,,,,,,,,291.0798307773017,None,None,1,291.0798307773017,None,,,,,,,,,,,,,,,,,,,,,,,,,,,,,,,,,,,,,,,,,,,,,,jul_l,001,a,2019_Oct_10_1306,Experimento,3.2.3,59.93962928247254,
8,14,14,999,0.5,0:10,3,Yellow,None,0,0,1,15:50,./completed_changuitos/montage_dimth_31.05_26.75.jpg,left,0,0,0,0,,,,,0,7,7,7,,,,,,,,,0,0,0,0,0,8,8,8,,,,,,,,,,,,,,,,,,,,,,,,,,,,,,,,,291.0798307773017,None,None,1,291.0798307773017,None,,,,,,,,,,,,,,,,,,,,,,,,,,,,,,,,,,,,,,,,,,,,,,jul_l,001,a,2019_Oct_10_1306,Experimento,3.2.3,59.93962928247254,
8,14,14,999,0.5,0:10,3,Cyan,None,0,0,1,15:50,./completed_changuitos/montage_dimth_31.05_26.75.jpg,left,0,0,0,0,,,,,0,7,7,7,,,,,,,,,0,0,0,0,0,9,9,9,,,,,,,,,,,,,,,,,,,,,,,,,,,,,,,,,291.0798307773017,None,None,1,291.0798307773017,None,,,,,,,,,,,,,,,,,,,,,,,,,,,,,,,,,,,,,,,,,,,,,,jul_l,001,a,2019_Oct_10_1306,Experimento,3.2.3,59.93962928247254,
8,14,14,999,0.5,0:10,3,Blue,None,0,0,1,15:50,./completed_changuitos/montage_dimth_31.05_26.75.jpg,left,0,0,0,0,,,,,0,7,7,7,,,,,,,,,0,0,0,0,0,10,10,10,,,,,,,,,,,,,,,,,,,,,,,,,,,,,,,,,291.0798307773017,None,None,1,291.0798307773017,None,,,,,,,,,,,,,,,,,,,,,,,,,,,,,,,,,,,,,,,,,,,,,,jul_l,001,a,2019_Oct_10_1306,Experimento,3.2.3,59.93962928247254,
8,14,14,999,0.5,0:10,3,Cyan,['space'],0,0,1,15:50,./completed_changuitos/montage_dimth_31.05_26.75.jpg,left,0,0,0,0,,,,,0,7,7,7,,,,,,,,,0,0,0,0,0,11,11,11,,,,,,,,,,,,,,,,,,,,,,,,,,,,,,,,,291.09649568760074,None,None,0,291.09649568760074,None,,,,,,,,,,,,,,,,,,,,,,,,,,,,,,,,,,,,,,,,,,,,,,jul_l,001,a,2019_Oct_10_1306,Experimento,3.2.3,59.93962928247254,
8,14,14,999,0.5,0:10,3,Magenta,None,0,0,1,15:50,./completed_changuitos/montage_dimth_31.05_26.75.jpg,left,0,0,0,0,,,,,0,7,7,7,,,,,,,,,0,0,0,0,0,12,12,12,,,,,,,,,,,,,,,,,,,,,,,,,,,,,,,,,291.09649568760074,None,None,1,291.09649568760074,None,,,,,,,,,,,,,,,,,,,,,,,,,,,,,,,,,,,,,,,,,,,,,,jul_l,001,a,2019_Oct_10_1306,Experimento,3.2.3,59.93962928247254,
8,14,14,999,0.5,0:10,3,Red,None,0,0,1,15:50,./completed_changuitos/montage_dimth_31.05_26.75.jpg,left,0,0,0,0,,,,,0,7,7,7,,,,,,,,,0,0,0,0,0,13,13,13,,,,,,,,,,,,,,,,,,,,,,,,,,,,,,,,,291.09649568760074,None,None,1,291.09649568760074,None,,,,,,,,,,,,,,,,,,,,,,,,,,,,,,,,,,,,,,,,,,,,,,jul_l,001,a,2019_Oct_10_1306,Experimento,3.2.3,59.93962928247254,
8,14,14,999,0.5,0:10,3,Magenta,['space'],0,0,1,15:50,./completed_changuitos/montage_dimth_31.05_26.75.jpg,left,0,0,0,0,,,,,0,7,7,7,,,,,,,,,0,0,0,0,0,14,14,14,,,,,,,,,,,,,,,,,,,,,,,,,,,,,,,,,291.09649568760074,None,None,0,291.09649568760074,None,,,,,,,,,,,,,,,,,,,,,,,,,,,,,,,,,,,,,,,,,,,,,,jul_l,001,a,2019_Oct_10_1306,Experimento,3.2.3,59.93962928247254,
8,14,14,999,0.5,0:10,3,Green,None,0,0,1,15:50,./completed_changuitos/montage_dimth_31.05_26.75.jpg,left,0,0,0,0,,,,,0,7,7,7,,,,,,,,,0,0,0,0,0,15,15,15,,,,,,,,,,,,,,,,,,,,,,,,,,,,,,,,,291.09649568760074,None,None,1,291.09649568760074,None,,,,,,,,,,,,,,,,,,,,,,,,,,,,,,,,,,,,,,,,,,,,,,jul_l,001,a,2019_Oct_10_1306,Experimento,3.2.3,59.93962928247254,
8,14,14,999,0.5,0:10,3,Yellow,['space'],0,0,1,15:50,./completed_changuitos/montage_dimth_31.05_26.75.jpg,left,0,0,0,0,,,,,0,7,7,7,,,,,,,,,0,0,0,0,0,16,16,16,,,,,,,,,,,,,,,,,,,,,,,,,,,,,,,,,291.09649568760074,None,None,0,291.09649568760074,None,,,,,,,,,,,,,,,,,,,,,,,,,,,,,,,,,,,,,,,,,,,,,,jul_l,001,a,2019_Oct_10_1306,Experimento,3.2.3,59.93962928247254,
8,14,14,999,0.5,0:10,3,Blue,None,0,0,1,15:50,./completed_changuitos/montage_dimth_31.05_26.75.jpg,left,0,0,0,0,,,,,0,7,7,7,,,,,,,,,0,0,0,0,0,17,17,17,,,,,,,,,,,,,,,,,,,,,,,,,,,,,,,,,291.1131605978997,None,None,1,291.1131605978997,None,,,,,,,,,,,,,,,,,,,,,,,,,,,,,,,,,,,,,,,,,,,,,,jul_l,001,a,2019_Oct_10_1306,Experimento,3.2.3,59.93962928247254,
8,14,14,999,0.5,0:10,3,Cyan,None,0,0,1,15:50,./completed_changuitos/montage_dimth_31.05_26.75.jpg,left,0,0,0,0,,,,,0,7,7,7,,,,,,,,,0,0,0,0,0,18,18,18,,,,,,,,,,,,,,,,,,,,,,,,,,,,,,,,,291.1131605978997,None,None,1,291.1131605978997,None,,,,,,,,,,,,,,,,,,,,,,,,,,,,,,,,,,,,,,,,,,,,,,jul_l,001,a,2019_Oct_10_1306,Experimento,3.2.3,59.93962928247254,
8,14,14,999,0.5,0:10,3,Blue,['space'],0,0,1,15:50,./completed_changuitos/montage_dimth_31.05_26.75.jpg,left,0,0,0,0,,,,,0,7,7,7,,,,,,,,,0,0,0,0,0,19,19,19,,,,,,,,,,,,,,,,,,,,,,,,,,,,,,,,,291.1131605978997,None,None,0,291.1131605978997,None,,,,,,,,,,,,,,,,,,,,,,,,,,,,,,,,,,,,,,,,,,,,,,jul_l,001,a,2019_Oct_10_1306,Experimento,3.2.3,59.93962928247254,
8,14,14,999,0.5,0:10,3,Yellow,None,0,0,1,15:50,./completed_changuitos/montage_dimth_31.05_26.75.jpg,left,0,0,0,0,,,,,0,7,7,7,,,,,,,,,0,0,0,0,0,20,20,20,,,,,,,,,,,,,,,,,,,,,,,,,,,,,,,,,291.1131605978997,None,None,1,291.1131605978997,None,,,,,,,,,,,,,,,,,,,,,,,,,,,,,,,,,,,,,,,,,,,,,,jul_l,001,a,2019_Oct_10_1306,Experimento,3.2.3,59.93962928247254,
8,14,14,999,0.5,0:10,3,Cyan,None,0,0,1,15:50,./completed_changuitos/montage_dimth_31.05_26.75.jpg,left,0,0,0,0,,,,,0,7,7,7,,,,,,,,,0,0,0,0,0,21,21,21,,,,,,,,,,,,,,,,,,,,,,,,,,,,,,,,,291.1131605978997,None,None,1,291.1131605978997,None,,,,,,,,,,,,,,,,,,,,,,,,,,,,,,,,,,,,,,,,,,,,,,jul_l,001,a,2019_Oct_10_1306,Experimento,3.2.3,59.93962928247254,
8,14,14,999,0.5,0:10,3,Yellow,['space'],0,0,1,15:50,./completed_changuitos/montage_dimth_31.05_26.75.jpg,left,0,0,0,0,,,,,0,7,7,7,,,,,,,,,0,0,0,0,0,22,22,22,,,,,,,,,,,,,,,,,,,,,,,,,,,,,,,,,291.1131605978997,None,None,0,291.1131605978997,None,,,,,,,,,,,,,,,,,,,,,,,,,,,,,,,,,,,,,,,,,,,,,,jul_l,001,a,2019_Oct_10_1306,Experimento,3.2.3,59.93962928247254,
8,14,14,999,0.5,0:10,3,Magenta,None,0,0,1,15:50,./completed_changuitos/montage_dimth_31.05_26.75.jpg,left,0,0,0,0,,,,,0,7,7,7,,,,,,,,,0,0,0,0,0,23,23,23,,,,,,,,,,,,,,,,,,,,,,,,,,,,,,,,,291.1131605978997,None,None,1,291.1131605978997,None,,,,,,,,,,,,,,,,,,,,,,,,,,,,,,,,,,,,,,,,,,,,,,jul_l,001,a,2019_Oct_10_1306,Experimento,3.2.3,59.93962928247254,
8,14,14,999,0.5,0:10,3,Red,None,0,0,1,15:50,./completed_changuitos/montage_dimth_31.05_26.75.jpg,left,0,0,0,0,,,,,0,7,7,7,,,,,,,,,0,0,0,0,0,24,24,24,,,,,,,,,,,,,,,,,,,,,,,,,,,,,,,,,291.1131605978997,None,None,1,291.1131605978997,None,,,,,,,,,,,,,,,,,,,,,,,,,,,,,,,,,,,,,,,,,,,,,,jul_l,001,a,2019_Oct_10_1306,Experimento,3.2.3,59.93962928247254,
8,14,14,999,0.5,0:10,3,Magenta,['space'],0,0,1,15:50,./completed_changuitos/montage_dimth_31.05_26.75.jpg,left,0,0,0,0,,,,,0,7,7,7,,,,,,,,,0,0,0,0,0,25,25,25,,,,,,,,,,,,,,,,,,,,,,,,,,,,,,,,,291.1131605978997,None,None,0,291.1131605978997,None,,,,,,,,,,,,,,,,,,,,,,,,,,,,,,,,,,,,,,,,,,,,,,jul_l,001,a,2019_Oct_10_1306,Experimento,3.2.3,59.93962928247254,
8,14,14,999,0.5,0:10,3,Red,['space'],0,0,1,15:50,./completed_changuitos/montage_dimth_31.05_26.75.jpg,left,0,0,0,0,,,,,0,7,7,7,,,,,,,,,0,0,0,0,0,26,26,26,,,,,,,,,,,,,,,,,,,,,,,,,,,,,,,,,291.1131605978997,None,None,0,291.1131605978997,None,,,,,,,,,,,,,,,,,,,,,,,,,,,,,,,,,,,,,,,,,,,,,,jul_l,001,a,2019_Oct_10_1306,Experimento,3.2.3,59.93962928247254,
8,14,14,999,0.5,0:10,3,Yellow,None,0,0,1,15:50,./completed_changuitos/montage_dimth_31.05_26.75.jpg,left,0,0,0,0,,,,,0,7,7,7,,,,,,,,,0,0,0,0,0,27,27,27,,,,,,,,,,,,,,,,,,,,,,,,,,,,,,,,,291.1131605978997,None,None,1,291.1131605978997,None,,,,,,,,,,,,,,,,,,,,,,,,,,,,,,,,,,,,,,,,,,,,,,jul_l,001,a,2019_Oct_10_1306,Experimento,3.2.3,59.93962928247254,
8,14,14,999,0.5,0:10,3,Cyan,None,0,0,1,15:50,./completed_changuitos/montage_dimth_31.05_26.75.jpg,left,0,0,0,0,,,,,0,7,7,7,,,,,,,,,0,0,0,0,0,28,28,28,,,,,,,,,,,,,,,,,,,,,,,,,,,,,,,,,291.1131605978997,None,None,1,291.1131605978997,None,,,,,,,,,,,,,,,,,,,,,,,,,,,,,,,,,,,,,,,,,,,,,,jul_l,001,a,2019_Oct_10_1306,Experimento,3.2.3,59.93962928247254,
8,14,14,999,0.5,0:10,3,Green,None,0,0,1,15:50,./completed_changuitos/montage_dimth_31.05_26.75.jpg,left,0,0,0,0,,,,,0,7,7,7,,,,,,,,,0,0,0,0,0,29,29,29,,,,,,,,,,,,,,,,,,,,,,,,,,,,,,,,,291.12982550819873,None,None,1,291.12982550819873,None,,,,,,,,,,,,,,,,,,,,,,,,,,,,,,,,,,,,,,,,,,,,,,jul_l,001,a,2019_Oct_10_1306,Experimento,3.2.3,59.93962928247254,
8,14,14,999,0.5,0:10,3,White,None,0,0,1,15:50,./completed_changuitos/montage_dimth_31.05_26.75.jpg,left,0,0,0,0,,,,,0,7,7,7,,,,,,,,,0,0,0,0,0,30,30,30,,,,,,,,,,,,,,,,,,,,,,,,,,,,,,,,,291.12982550819873,None,None,1,291.12982550819873,None,,,,,,,,,,,,,,,,,,,,,,,,,,,,,,,,,,,,,,,,,,,,,,jul_l,001,a,2019_Oct_10_1306,Experimento,3.2.3,59.93962928247254,
8,14,14,999,0.5,0:10,3,Green,['space'],0,0,1,15:50,./completed_changuitos/montage_dimth_31.05_26.75.jpg,left,0,0,0,0,,,,,0,7,7,7,,,,,,,,,0,0,0,0,0,31,31,31,,,,,,,,,,,,,,,,,,,,,,,,,,,,,,,,,291.12982550819873,None,None,0,291.12982550819873,None,,,,,,,,,,,,,,,,,,,,,,,,,,,,,,,,,,,,,,,,,,,,,,jul_l,001,a,2019_Oct_10_1306,Experimento,3.2.3,59.93962928247254,
8,14,14,999,0.5,0:10,3,Red,None,0,0,1,15:50,./completed_changuitos/montage_dimth_31.05_26.75.jpg,left,0,0,0,0,,,,,0,7,7,7,,,,,,,,,0,0,0,0,0,32,32,32,,,,,,,,,,,,,,,,,,,,,,,,,,,,,,,,,291.12982550819873,None,None,1,291.12982550819873,None,,,,,,,,,,,,,,,,,,,,,,,,,,,,,,,,,,,,,,,,,,,,,,jul_l,001,a,2019_Oct_10_1306,Experimento,3.2.3,59.93962928247254,
8,14,14,999,0.5,0:10,3,Blue,None,0,0,1,15:50,./completed_changuitos/montage_dimth_31.05_26.75.jpg,left,0,0,0,0,,,,,0,7,7,7,,,,,,,,,0,0,0,0,0,33,33,33,,,,,,,,,,,,,,,,,,,,,,,,,,,,,,,,,291.12982550819873,None,None,1,291.12982550819873,None,,,,,,,,,,,,,,,,,,,,,,,,,,,,,,,,,,,,,,,,,,,,,,jul_l,001,a,2019_Oct_10_1306,Experimento,3.2.3,59.93962928247254,
8,14,14,999,0.5,0:10,3,Green,None,0,0,1,15:50,./completed_changuitos/montage_dimth_31.05_26.75.jpg,left,0,0,0,0,,,,,0,7,7,7,,,,,,,,,0,0,0,0,0,34,34,34,,,,,,,,,,,,,,,,,,,,,,,,,,,,,,,,,291.12982550819873,None,None,1,291.12982550819873,None,,,,,,,,,,,,,,,,,,,,,,,,,,,,,,,,,,,,,,,,,,,,,,jul_l,001,a,2019_Oct_10_1306,Experimento,3.2.3,59.93962928247254,
8,14,14,999,0.5,0:10,3,,,0,0,1,15:50,./completed_changuitos/montage_dimth_31.05_26.75.jpg,left,0,0,0,0,,,,,0,7,7,7,,,,,,,,,0,0,0,0,,,,,,,,,,,,,,,,,,,,,,,,,,,,,,,,,,,,,,,,,,,,291.1589328580012,None,right,0,1.7868954950099578,291.1589328580012,None,291.1589328580012,None,,,,,,,,,,,,,,,,,,,,,,,,,,,,,,,,,,,,jul_l,001,a,2019_Oct_10_1306,Experimento,3.2.3,59.93962928247254,
8,14,14,999,0.5,0:10,3,,,0,0,1,15:50,,,0,0,0,0,,,,,0,7,7,7,,,,,,,,,,,,,,,,,,,,,,,,,,,,,,,,,,,,,,,,,,,,,,,,,,,,,,,,,,,,,,,,,,,,,,,,,,,,,,,,,,,,,,,,,,,,,,,,,,,,jul_l,001,a,2019_Oct_10_1306,Experimento,3.2.3,59.93962928247254,
8,14,14,999,0.5,0:10,3,,,0,1,0,19:50,./completed_changuitos/montage_zrnmh_89.65_78.0.jpg,left,0,0,0,0,,,,,0,8,8,8,,,,,0,0,0,0,,,,,,,,,,,,,,,,,,,,,,293.0863029739994,294.7452800440078,294.7452800440078,302.75919164399966,302.75919164399966,316.7710521830013,right,0,0.9173097070015501,316.7710521830013,None,316.7710521830013,None,316.7710521830013,None,,,,,,,,,,,,,,,,,,,,,,,,,,,,,,,,,,,,,,,,,,,,,,,,,,,,,,,,jul_l,001,a,2019_Oct_10_1306,Experimento,3.2.3,59.93962928247254,
8,14,14,999,0.5,0:10,3,,,0,1,0,19:50,,,0,0,0,0,,,,,0,8,8,8,,,,,,,,,,,,,,,,,,,,,,,,,,,,,,,,,,,,,,,,,,,,,,,,,,,,,,,,,,,,,,,,,,,,,,,,,,,,,,,,,,,,,,,,,,,,,,,,,,,,jul_l,001,a,2019_Oct_10_1306,Experimento,3.2.3,59.93962928247254,
8,14,14,999,0.5,0:10,3,Magenta,None,0,0,1,20:50,./completed_changuitos/montage_jsivw_65.19_55.45.jpg,left,0,0,0,0,,,,,0,9,9,9,,,,,,,,,0,0,0,0,0,0,0,0,,,,,,,,,,,,,,,,,,,,,,,,,,,,,317.8249797340104,319.40307801200834,319.40307801200834,None,327.4441687619983,327.950580757999,None,1,327.4441687619983,None,,,,,,,,,,,,,,,,,,,,,,,,,,,,,,,,,,,,,,,,,,,,,,jul_l,001,a,2019_Oct_10_1306,Experimento,3.2.3,59.93962928247254,
8,14,14,999,0.5,0:10,3,Blue,['space'],0,0,1,20:50,./completed_changuitos/montage_jsivw_65.19_55.45.jpg,left,0,0,0,0,,,,,0,9,9,9,,,,,,,,,0,0,0,0,0,1,1,1,,,,,,,,,,,,,,,,,,,,,,,,,,,,,,,,,329.4496781449998,329.94977125900914,None,0,329.4496781449998,329.4496781449998,,,,,,,,,,,,,,,,,,,,,,,,,,,,,,,,,,,,,,,,,,,,,,jul_l,001,a,2019_Oct_10_1306,Experimento,3.2.3,59.93962928247254,
8,14,14,999,0.5,0:10,3,Cyan,None,0,0,1,20:50,./completed_changuitos/montage_jsivw_65.19_55.45.jpg,left,0,0,0,0,,,,,0,9,9,9,,,,,,,,,0,0,0,0,0,2,2,2,,,,,,,,,,,,,,,,,,,,,,,,,,,,,,,,,331.44901804300025,331.9488950540108,None,1,331.44901804300025,331.44901804300025,,,,,,,,,,,,,,,,,,,,,,,,,,,,,,,,,,,,,,,,,,,,,,jul_l,001,a,2019_Oct_10_1306,Experimento,3.2.3,59.93962928247254,
8,14,14,999,0.5,0:10,3,Yellow,None,0,0,1,20:50,./completed_changuitos/montage_jsivw_65.19_55.45.jpg,left,0,0,0,0,,,,,0,9,9,9,,,,,,,,,0,0,0,0,0,3,3,3,,,,,,,,,,,,,,,,,,,,,,,,,,,,,,,,,333.44870724000793,333.9484848300053,None,1,333.44870724000793,333.44870724000793,,,,,,,,,,,,,,,,,,,,,,,,,,,,,,,,,,,,,,,,,,,,,,jul_l,001,a,2019_Oct_10_1306,Experimento,3.2.3,59.93962928247254,
8,14,14,999,0.5,0:10,3,Cyan,None,0,0,1,20:50,./completed_changuitos/montage_jsivw_65.19_55.45.jpg,left,0,0,0,0,,,,,0,9,9,9,,,,,,,,,0,0,0,0,0,4,4,4,,,,,,,,,,,,,,,,,,,,,,,,,,,,,,,,,335.4476279060036,335.94787721500325,['return'],0,335.4476279060036,335.4476279060036,[0.4175062930007698],,,,,,,,,,,,,,,,,,,,,,,,,,,,,,,,,,,,,,,,,,,,,jul_l,001,a,2019_Oct_10_1306,Experimento,3.2.3,59.93962928247254,
8,14,14,999,0.5,0:10,3,Blue,None,0,0,1,20:50,./completed_changuitos/montage_jsivw_65.19_55.45.jpg,left,0,0,0,0,,,,,0,9,9,9,,,,,,,,,0,0,0,0,0,5,5,5,,,,,,,,,,,,,,,,,,,,,,,,,,,,,,,,,337.44722788300714,337.94714638601,None,1,337.44722788300714,337.44722788300714,,,,,,,,,,,,,,,,,,,,,,,,,,,,,,,,,,,,,,,,,,,,,,jul_l,001,a,2019_Oct_10_1306,Experimento,3.2.3,59.93962928247254,
8,14,14,999,0.5,0:10,3,Cyan,['space'],0,0,1,20:50,./completed_changuitos/montage_jsivw_65.19_55.45.jpg,left,0,0,0,0,,,,,0,9,9,9,,,,,,,,,0,0,0,0,0,6,6,6,,,,,,,,,,,,,,,,,,,,,,,,,,,,,,,,,339.4629037160048,339.96273135401134,['return'],0,339.4629037160048,339.4629037160048,[0.4167310969933169],,,,,,,,,,,,,,,,,,,,,,,,,,,,,,,,,,,,,,,,,,,,,jul_l,001,a,2019_Oct_10_1306,Experimento,3.2.3,59.93962928247254,
8,14,14,999,0.5,0:10,3,Magenta,None,0,0,1,20:50,./completed_changuitos/montage_jsivw_65.19_55.45.jpg,left,0,0,0,0,,,,,0,9,9,9,,,,,,,,,0,0,0,0,0,7,7,7,,,,,,,,,,,,,,,,,,,,,,,,,,,,,,,,,341.4292842543015,None,None,1,341.4292842543015,None,,,,,,,,,,,,,,,,,,,,,,,,,,,,,,,,,,,,,,,,,,,,,,jul_l,001,a,2019_Oct_10_1306,Experimento,3.2.3,59.93962928247254,
8,14,14,999,0.5,0:10,3,Red,None,0,0,1,20:50,./completed_changuitos/montage_jsivw_65.19_55.45.jpg,left,0,0,0,0,,,,,0,9,9,9,,,,,,,,,0,0,0,0,0,8,8,8,,,,,,,,,,,,,,,,,,,,,,,,,,,,,,,,,341.4292842543015,None,None,1,341.4292842543015,None,,,,,,,,,,,,,,,,,,,,,,,,,,,,,,,,,,,,,,,,,,,,,,jul_l,001,a,2019_Oct_10_1306,Experimento,3.2.3,59.93962928247254,
8,14,14,999,0.5,0:10,3,Magenta,['space'],0,0,1,20:50,./completed_changuitos/montage_jsivw_65.19_55.45.jpg,left,0,0,0,0,,,,,0,9,9,9,,,,,,,,,0,0,0,0,0,9,9,9,,,,,,,,,,,,,,,,,,,,,,,,,,,,,,,,,341.4292842543015,None,None,0,341.4292842543015,None,,,,,,,,,,,,,,,,,,,,,,,,,,,,,,,,,,,,,,,,,,,,,,jul_l,001,a,2019_Oct_10_1306,Experimento,3.2.3,59.93962928247254,
8,14,14,999,0.5,0:10,3,Green,None,0,0,1,20:50,./completed_changuitos/montage_jsivw_65.19_55.45.jpg,left,0,0,0,0,,,,,0,9,9,9,,,,,,,,,0,0,0,0,0,10,10,10,,,,,,,,,,,,,,,,,,,,,,,,,,,,,,,,,341.4292842543015,None,None,1,341.4292842543015,None,,,,,,,,,,,,,,,,,,,,,,,,,,,,,,,,,,,,,,,,,,,,,,jul_l,001,a,2019_Oct_10_1306,Experimento,3.2.3,59.93962928247254,
8,14,14,999,0.5,0:10,3,Yellow,['space'],0,0,1,20:50,./completed_changuitos/montage_jsivw_65.19_55.45.jpg,left,0,0,0,0,,,,,0,9,9,9,,,,,,,,,0,0,0,0,0,11,11,11,,,,,,,,,,,,,,,,,,,,,,,,,,,,,,,,,341.4459491646005,None,None,0,341.4459491646005,None,,,,,,,,,,,,,,,,,,,,,,,,,,,,,,,,,,,,,,,,,,,,,,jul_l,001,a,2019_Oct_10_1306,Experimento,3.2.3,59.93962928247254,
8,14,14,999,0.5,0:10,3,Blue,None,0,0,1,20:50,./completed_changuitos/montage_jsivw_65.19_55.45.jpg,left,0,0,0,0,,,,,0,9,9,9,,,,,,,,,0,0,0,0,0,12,12,12,,,,,,,,,,,,,,,,,,,,,,,,,,,,,,,,,341.4459491646005,None,None,1,341.4459491646005,None,,,,,,,,,,,,,,,,,,,,,,,,,,,,,,,,,,,,,,,,,,,,,,jul_l,001,a,2019_Oct_10_1306,Experimento,3.2.3,59.93962928247254,
8,14,14,999,0.5,0:10,3,Cyan,None,0,0,1,20:50,./completed_changuitos/montage_jsivw_65.19_55.45.jpg,left,0,0,0,0,,,,,0,9,9,9,,,,,,,,,0,0,0,0,0,13,13,13,,,,,,,,,,,,,,,,,,,,,,,,,,,,,,,,,341.4459491646005,None,None,1,341.4459491646005,None,,,,,,,,,,,,,,,,,,,,,,,,,,,,,,,,,,,,,,,,,,,,,,jul_l,001,a,2019_Oct_10_1306,Experimento,3.2.3,59.93962928247254,
8,14,14,999,0.5,0:10,3,Blue,['space'],0,0,1,20:50,./completed_changuitos/montage_jsivw_65.19_55.45.jpg,left,0,0,0,0,,,,,0,9,9,9,,,,,,,,,0,0,0,0,0,14,14,14,,,,,,,,,,,,,,,,,,,,,,,,,,,,,,,,,341.4459491646005,None,None,0,341.4459491646005,None,,,,,,,,,,,,,,,,,,,,,,,,,,,,,,,,,,,,,,,,,,,,,,jul_l,001,a,2019_Oct_10_1306,Experimento,3.2.3,59.93962928247254,
8,14,14,999,0.5,0:10,3,Yellow,None,0,0,1,20:50,./completed_changuitos/montage_jsivw_65.19_55.45.jpg,left,0,0,0,0,,,,,0,9,9,9,,,,,,,,,0,0,0,0,0,15,15,15,,,,,,,,,,,,,,,,,,,,,,,,,,,,,,,,,341.4459491646005,None,None,1,341.4459491646005,None,,,,,,,,,,,,,,,,,,,,,,,,,,,,,,,,,,,,,,,,,,,,,,jul_l,001,a,2019_Oct_10_1306,Experimento,3.2.3,59.93962928247254,
8,14,14,999,0.5,0:10,3,Cyan,None,0,0,1,20:50,./completed_changuitos/montage_jsivw_65.19_55.45.jpg,left,0,0,0,0,,,,,0,9,9,9,,,,,,,,,0,0,0,0,0,16,16,16,,,,,,,,,,,,,,,,,,,,,,,,,,,,,,,,,341.4459491646005,None,None,1,341.4459491646005,None,,,,,,,,,,,,,,,,,,,,,,,,,,,,,,,,,,,,,,,,,,,,,,jul_l,001,a,2019_Oct_10_1306,Experimento,3.2.3,59.93962928247254,
8,14,14,999,0.5,0:10,3,Yellow,['space'],0,0,1,20:50,./completed_changuitos/montage_jsivw_65.19_55.45.jpg,left,0,0,0,0,,,,,0,9,9,9,,,,,,,,,0,0,0,0,0,17,17,17,,,,,,,,,,,,,,,,,,,,,,,,,,,,,,,,,341.4626140748995,None,None,0,341.4626140748995,None,,,,,,,,,,,,,,,,,,,,,,,,,,,,,,,,,,,,,,,,,,,,,,jul_l,001,a,2019_Oct_10_1306,Experimento,3.2.3,59.93962928247254,
8,14,14,999,0.5,0:10,3,Magenta,None,0,0,1,20:50,./completed_changuitos/montage_jsivw_65.19_55.45.jpg,left,0,0,0,0,,,,,0,9,9,9,,,,,,,,,0,0,0,0,0,18,18,18,,,,,,,,,,,,,,,,,,,,,,,,,,,,,,,,,341.4626140748995,None,None,1,341.4626140748995,None,,,,,,,,,,,,,,,,,,,,,,,,,,,,,,,,,,,,,,,,,,,,,,jul_l,001,a,2019_Oct_10_1306,Experimento,3.2.3,59.93962928247254,
8,14,14,999,0.5,0:10,3,Red,None,0,0,1,20:50,./completed_changuitos/montage_jsivw_65.19_55.45.jpg,left,0,0,0,0,,,,,0,9,9,9,,,,,,,,,0,0,0,0,0,19,19,19,,,,,,,,,,,,,,,,,,,,,,,,,,,,,,,,,341.4626140748995,None,None,1,341.4626140748995,None,,,,,,,,,,,,,,,,,,,,,,,,,,,,,,,,,,,,,,,,,,,,,,jul_l,001,a,2019_Oct_10_1306,Experimento,3.2.3,59.93962928247254,
8,14,14,999,0.5,0:10,3,Magenta,['space'],0,0,1,20:50,./completed_changuitos/montage_jsivw_65.19_55.45.jpg,left,0,0,0,0,,,,,0,9,9,9,,,,,,,,,0,0,0,0,0,20,20,20,,,,,,,,,,,,,,,,,,,,,,,,,,,,,,,,,341.4626140748995,None,None,0,341.4626140748995,None,,,,,,,,,,,,,,,,,,,,,,,,,,,,,,,,,,,,,,,,,,,,,,jul_l,001,a,2019_Oct_10_1306,Experimento,3.2.3,59.93962928247254,
8,14,14,999,0.5,0:10,3,Red,['space'],0,0,1,20:50,./completed_changuitos/montage_jsivw_65.19_55.45.jpg,left,0,0,0,0,,,,,0,9,9,9,,,,,,,,,0,0,0,0,0,21,21,21,,,,,,,,,,,,,,,,,,,,,,,,,,,,,,,,,341.4626140748995,None,None,0,341.4626140748995,None,,,,,,,,,,,,,,,,,,,,,,,,,,,,,,,,,,,,,,,,,,,,,,jul_l,001,a,2019_Oct_10_1306,Experimento,3.2.3,59.93962928247254,
8,14,14,999,0.5,0:10,3,Yellow,None,0,0,1,20:50,./completed_changuitos/montage_jsivw_65.19_55.45.jpg,left,0,0,0,0,,,,,0,9,9,9,,,,,,,,,0,0,0,0,0,22,22,22,,,,,,,,,,,,,,,,,,,,,,,,,,,,,,,,,341.4626140748995,None,None,1,341.4626140748995,None,,,,,,,,,,,,,,,,,,,,,,,,,,,,,,,,,,,,,,,,,,,,,,jul_l,001,a,2019_Oct_10_1306,Experimento,3.2.3,59.93962928247254,
8,14,14,999,0.5,0:10,3,Cyan,None,0,0,1,20:50,./completed_changuitos/montage_jsivw_65.19_55.45.jpg,left,0,0,0,0,,,,,0,9,9,9,,,,,,,,,0,0,0,0,0,23,23,23,,,,,,,,,,,,,,,,,,,,,,,,,,,,,,,,,341.4626140748995,None,None,1,341.4626140748995,None,,,,,,,,,,,,,,,,,,,,,,,,,,,,,,,,,,,,,,,,,,,,,,jul_l,001,a,2019_Oct_10_1306,Experimento,3.2.3,59.93962928247254,
8,14,14,999,0.5,0:10,3,Green,None,0,0,1,20:50,./completed_changuitos/montage_jsivw_65.19_55.45.jpg,left,0,0,0,0,,,,,0,9,9,9,,,,,,,,,0,0,0,0,0,24,24,24,,,,,,,,,,,,,,,,,,,,,,,,,,,,,,,,,341.4626140748995,None,None,1,341.4626140748995,None,,,,,,,,,,,,,,,,,,,,,,,,,,,,,,,,,,,,,,,,,,,,,,jul_l,001,a,2019_Oct_10_1306,Experimento,3.2.3,59.93962928247254,
8,14,14,999,0.5,0:10,3,White,None,0,0,1,20:50,./completed_changuitos/montage_jsivw_65.19_55.45.jpg,left,0,0,0,0,,,,,0,9,9,9,,,,,,,,,0,0,0,0,0,25,25,25,,,,,,,,,,,,,,,,,,,,,,,,,,,,,,,,,341.4626140748995,None,None,1,341.4626140748995,None,,,,,,,,,,,,,,,,,,,,,,,,,,,,,,,,,,,,,,,,,,,,,,jul_l,001,a,2019_Oct_10_1306,Experimento,3.2.3,59.93962928247254,
8,14,14,999,0.5,0:10,3,Green,['space'],0,0,1,20:50,./completed_changuitos/montage_jsivw_65.19_55.45.jpg,left,0,0,0,0,,,,,0,9,9,9,,,,,,,,,0,0,0,0,0,26,26,26,,,,,,,,,,,,,,,,,,,,,,,,,,,,,,,,,341.4626140748995,None,None,0,341.4626140748995,None,,,,,,,,,,,,,,,,,,,,,,,,,,,,,,,,,,,,,,,,,,,,,,jul_l,001,a,2019_Oct_10_1306,Experimento,3.2.3,59.93962928247254,
8,14,14,999,0.5,0:10,3,Red,None,0,0,1,20:50,./completed_changuitos/montage_jsivw_65.19_55.45.jpg,left,0,0,0,0,,,,,0,9,9,9,,,,,,,,,0,0,0,0,0,27,27,27,,,,,,,,,,,,,,,,,,,,,,,,,,,,,,,,,341.4626140748995,None,None,1,341.4626140748995,None,,,,,,,,,,,,,,,,,,,,,,,,,,,,,,,,,,,,,,,,,,,,,,jul_l,001,a,2019_Oct_10_1306,Experimento,3.2.3,59.93962928247254,
8,14,14,999,0.5,0:10,3,Blue,None,0,0,1,20:50,./completed_changuitos/montage_jsivw_65.19_55.45.jpg,left,0,0,0,0,,,,,0,9,9,9,,,,,,,,,0,0,0,0,0,28,28,28,,,,,,,,,,,,,,,,,,,,,,,,,,,,,,,,,341.4626140748995,None,None,1,341.4626140748995,None,,,,,,,,,,,,,,,,,,,,,,,,,,,,,,,,,,,,,,,,,,,,,,jul_l,001,a,2019_Oct_10_1306,Experimento,3.2.3,59.93962928247254,
8,14,14,999,0.5,0:10,3,Green,None,0,0,1,20:50,./completed_changuitos/montage_jsivw_65.19_55.45.jpg,left,0,0,0,0,,,,,0,9,9,9,,,,,,,,,0,0,0,0,0,29,29,29,,,,,,,,,,,,,,,,,,,,,,,,,,,,,,,,,341.4792789851985,None,None,1,341.4792789851985,None,,,,,,,,,,,,,,,,,,,,,,,,,,,,,,,,,,,,,,,,,,,,,,jul_l,001,a,2019_Oct_10_1306,Experimento,3.2.3,59.93962928247254,
8,14,14,999,0.5,0:10,3,,,0,0,1,20:50,./completed_changuitos/montage_jsivw_65.19_55.45.jpg,left,0,0,0,0,,,,,0,9,9,9,,,,,,,,,0,0,0,0,,,,,,,,,,,,,,,,,,,,,,,,,,,,,,,,,,,,,,,,,,,,341.5072430670116,None,right,0,1.304182234001928,341.5072430670116,None,341.5072430670116,None,,,,,,,,,,,,,,,,,,,,,,,,,,,,,,,,,,,,jul_l,001,a,2019_Oct_10_1306,Experimento,3.2.3,59.93962928247254,
8,14,14,999,0.5,0:10,3,,,0,0,1,20:50,,,0,0,0,0,,,,,0,9,9,9,,,,,,,,,,,,,,,,,,,,,,,,,,,,,,,,,,,,,,,,,,,,,,,,,,,,,,,,,,,,,,,,,,,,,,,,,,,,,,,,,,,,,,,,,,,,,,,,,,,,jul_l,001,a,2019_Oct_10_1306,Experimento,3.2.3,59.93962928247254,
8,14,14,999,0.5,0:10,3,,,0,1,0,25:50,./completed_changuitos/montage_zrasw_89.0_103.79.jpg,right,0,0,0,0,,,,,0,10,10,10,,,,,0,0,0,0,,,,,,,,,,,,,,,,,,,,,,342.9513375230017,344.4778891330061,344.4778891330061,352.4921674940124,352.4921674940124,366.5040494390123,left,0,1.0160781559970928,366.5040494390123,None,366.5040494390123,None,366.5040494390123,None,,,,,,,,,,,,,,,,,,,,,,,,,,,,,,,,,,,,,,,,,,,,,,,,,,,,,,,,jul_l,001,a,2019_Oct_10_1306,Experimento,3.2.3,59.93962928247254,
8,14,14,999,0.5,0:10,3,,,0,1,0,25:50,,,0,0,0,0,,,,,0,10,10,10,,,,,,,,,,,,,,,,,,,,,,,,,,,,,,,,,,,,,,,,,,,,,,,,,,,,,,,,,,,,,,,,,,,,,,,,,,,,,,,,,,,,,,,,,,,,,,,,,,,,jul_l,001,a,2019_Oct_10_1306,Experimento,3.2.3,59.93962928247254,
8,14,14,999,0.5,0:10,3,Red,None,0,0,1,28:50,./completed_changuitos/montage_jteii_133.75_154.09.jpg,right,0,0,0,0,,,,,0,11,11,11,,,,,,,,,0,0,0,0,0,0,0,0,,,,,,,,,,,,,,,,,,,,,,,,,,,,,367.63551935899886,368.9865391420026,368.9865391420026,None,377.0297624300001,377.5336113880039,None,1,377.0297624300001,None,,,,,,,,,,,,,,,,,,,,,,,,,,,,,,,,,,,,,,,,,,,,,,jul_l,001,a,2019_Oct_10_1306,Experimento,3.2.3,59.93962928247254,
8,14,14,999,0.5,0:10,3,Magenta,['space'],0,0,1,28:50,./completed_changuitos/montage_jteii_133.75_154.09.jpg,right,0,0,0,0,,,,,0,11,11,11,,,,,,,,,0,0,0,0,0,1,1,1,,,,,,,,,,,,,,,,,,,,,,,,,,,,,,,,,379.0326782810007,379.5325065470097,None,0,379.0326782810007,379.0326782810007,,,,,,,,,,,,,,,,,,,,,,,,,,,,,,,,,,,,,,,,,,,,,,jul_l,001,a,2019_Oct_10_1306,Experimento,3.2.3,59.93962928247254,
8,14,14,999,0.5,0:10,3,Green,None,0,0,1,28:50,./completed_changuitos/montage_jteii_133.75_154.09.jpg,right,0,0,0,0,,,,,0,11,11,11,,,,,,,,,0,0,0,0,0,2,2,2,,,,,,,,,,,,,,,,,,,,,,,,,,,,,,,,,381.0323094129999,381.53227033400617,None,1,381.0323094129999,381.0323094129999,,,,,,,,,,,,,,,,,,,,,,,,,,,,,,,,,,,,,,,,,,,,,,jul_l,001,a,2019_Oct_10_1306,Experimento,3.2.3,59.93962928247254,
8,14,14,999,0.5,0:10,3,Yellow,['space'],0,0,1,28:50,./completed_changuitos/montage_jteii_133.75_154.09.jpg,right,0,0,0,0,,,,,0,11,11,11,,,,,,,,,0,0,0,0,0,3,3,3,,,,,,,,,,,,,,,,,,,,,,,,,,,,,,,,,383.0316506320087,383.5315603640047,None,0,383.0316506320087,383.0316506320087,,,,,,,,,,,,,,,,,,,,,,,,,,,,,,,,,,,,,,,,,,,,,,jul_l,001,a,2019_Oct_10_1306,Experimento,3.2.3,59.93962928247254,
8,14,14,999,0.5,0:10,3,Blue,None,0,0,1,28:50,./completed_changuitos/montage_jteii_133.75_154.09.jpg,right,0,0,0,0,,,,,0,11,11,11,,,,,,,,,0,0,0,0,0,4,4,4,,,,,,,,,,,,,,,,,,,,,,,,,,,,,,,,,385.03099564400327,385.5308805130044,None,1,385.03099564400327,385.03099564400327,,,,,,,,,,,,,,,,,,,,,,,,,,,,,,,,,,,,,,,,,,,,,,jul_l,001,a,2019_Oct_10_1306,Experimento,3.2.3,59.93962928247254,
8,14,14,999,0.5,0:10,3,Cyan,None,0,0,1,28:50,./completed_changuitos/montage_jteii_133.75_154.09.jpg,right,0,0,0,0,,,,,0,11,11,11,,,,,,,,,0,0,0,0,0,5,5,5,,,,,,,,,,,,,,,,,,,,,,,,,,,,,,,,,387.03031376900617,387.53020144600305,None,1,387.03031376900617,387.03031376900617,,,,,,,,,,,,,,,,,,,,,,,,,,,,,,,,,,,,,,,,,,,,,,jul_l,001,a,2019_Oct_10_1306,Experimento,3.2.3,59.93962928247254,
8,14,14,999,0.5,0:10,3,Blue,['space'],0,0,1,28:50,./completed_changuitos/montage_jteii_133.75_154.09.jpg,right,0,0,0,0,,,,,0,11,11,11,,,,,,,,,0,0,0,0,0,6,6,6,,,,,,,,,,,,,,,,,,,,,,,,,,,,,,,,,389.0292689430062,389.5294264039985,['return'],0,389.0292689430062,389.0292689430062,[0.33430352598952595],,,,,,,,,,,,,,,,,,,,,,,,,,,,,,,,,,,,,,,,,,,,,jul_l,001,a,2019_Oct_10_1306,Experimento,3.2.3,59.93962928247254,
8,14,14,999,0.5,0:10,3,Yellow,None,0,0,1,28:50,./completed_changuitos/montage_jteii_133.75_154.09.jpg,right,0,0,0,0,,,,,0,11,11,11,,,,,,,,,0,0,0,0,0,7,7,7,,,,,,,,,,,,,,,,,,,,,,,,,,,,,,,,,391.01228701430375,None,None,1,391.01228701430375,None,,,,,,,,,,,,,,,,,,,,,,,,,,,,,,,,,,,,,,,,,,,,,,jul_l,001,a,2019_Oct_10_1306,Experimento,3.2.3,59.93962928247254,
8,14,14,999,0.5,0:10,3,Cyan,None,0,0,1,28:50,./completed_changuitos/montage_jteii_133.75_154.09.jpg,right,0,0,0,0,,,,,0,11,11,11,,,,,,,,,0,0,0,0,0,8,8,8,,,,,,,,,,,,,,,,,,,,,,,,,,,,,,,,,391.01228701430375,None,None,1,391.01228701430375,None,,,,,,,,,,,,,,,,,,,,,,,,,,,,,,,,,,,,,,,,,,,,,,jul_l,001,a,2019_Oct_10_1306,Experimento,3.2.3,59.93962928247254,
8,14,14,999,0.5,0:10,3,Yellow,['space'],0,0,1,28:50,./completed_changuitos/montage_jteii_133.75_154.09.jpg,right,0,0,0,0,,,,,0,11,11,11,,,,,,,,,0,0,0,0,0,9,9,9,,,,,,,,,,,,,,,,,,,,,,,,,,,,,,,,,391.01228701430375,None,None,0,391.01228701430375,None,,,,,,,,,,,,,,,,,,,,,,,,,,,,,,,,,,,,,,,,,,,,,,jul_l,001,a,2019_Oct_10_1306,Experimento,3.2.3,59.93962928247254,
8,14,14,999,0.5,0:10,3,Magenta,None,0,0,1,28:50,./completed_changuitos/montage_jteii_133.75_154.09.jpg,right,0,0,0,0,,,,,0,11,11,11,,,,,,,,,0,0,0,0,0,10,10,10,,,,,,,,,,,,,,,,,,,,,,,,,,,,,,,,,391.01228701430375,None,None,1,391.01228701430375,None,,,,,,,,,,,,,,,,,,,,,,,,,,,,,,,,,,,,,,,,,,,,,,jul_l,001,a,2019_Oct_10_1306,Experimento,3.2.3,59.93962928247254,
8,14,14,999,0.5,0:10,3,Red,None,0,0,1,28:50,./completed_changuitos/montage_jteii_133.75_154.09.jpg,right,0,0,0,0,,,,,0,11,11,11,,,,,,,,,0,0,0,0,0,11,11,11,,,,,,,,,,,,,,,,,,,,,,,,,,,,,,,,,391.0289519246028,None,None,1,391.0289519246028,None,,,,,,,,,,,,,,,,,,,,,,,,,,,,,,,,,,,,,,,,,,,,,,jul_l,001,a,2019_Oct_10_1306,Experimento,3.2.3,59.93962928247254,
8,14,14,999,0.5,0:10,3,Magenta,['space'],0,0,1,28:50,./completed_changuitos/montage_jteii_133.75_154.09.jpg,right,0,0,0,0,,,,,0,11,11,11,,,,,,,,,0,0,0,0,0,12,12,12,,,,,,,,,,,,,,,,,,,,,,,,,,,,,,,,,391.0289519246028,None,None,0,391.0289519246028,None,,,,,,,,,,,,,,,,,,,,,,,,,,,,,,,,,,,,,,,,,,,,,,jul_l,001,a,2019_Oct_10_1306,Experimento,3.2.3,59.93962928247254,
8,14,14,999,0.5,0:10,3,Red,['space'],0,0,1,28:50,./completed_changuitos/montage_jteii_133.75_154.09.jpg,right,0,0,0,0,,,,,0,11,11,11,,,,,,,,,0,0,0,0,0,13,13,13,,,,,,,,,,,,,,,,,,,,,,,,,,,,,,,,,391.0289519246028,None,None,0,391.0289519246028,None,,,,,,,,,,,,,,,,,,,,,,,,,,,,,,,,,,,,,,,,,,,,,,jul_l,001,a,2019_Oct_10_1306,Experimento,3.2.3,59.93962928247254,
8,14,14,999,0.5,0:10,3,Yellow,None,0,0,1,28:50,./completed_changuitos/montage_jteii_133.75_154.09.jpg,right,0,0,0,0,,,,,0,11,11,11,,,,,,,,,0,0,0,0,0,14,14,14,,,,,,,,,,,,,,,,,,,,,,,,,,,,,,,,,391.0289519246028,None,None,1,391.0289519246028,None,,,,,,,,,,,,,,,,,,,,,,,,,,,,,,,,,,,,,,,,,,,,,,jul_l,001,a,2019_Oct_10_1306,Experimento,3.2.3,59.93962928247254,
8,14,14,999,0.5,0:10,3,Cyan,None,0,0,1,28:50,./completed_changuitos/montage_jteii_133.75_154.09.jpg,right,0,0,0,0,,,,,0,11,11,11,,,,,,,,,0,0,0,0,0,15,15,15,,,,,,,,,,,,,,,,,,,,,,,,,,,,,,,,,391.0289519246028,None,None,1,391.0289519246028,None,,,,,,,,,,,,,,,,,,,,,,,,,,,,,,,,,,,,,,,,,,,,,,jul_l,001,a,2019_Oct_10_1306,Experimento,3.2.3,59.93962928247254,
8,14,14,999,0.5,0:10,3,Green,None,0,0,1,28:50,./completed_changuitos/montage_jteii_133.75_154.09.jpg,right,0,0,0,0,,,,,0,11,11,11,,,,,,,,,0,0,0,0,0,16,16,16,,,,,,,,,,,,,,,,,,,,,,,,,,,,,,,,,391.04561683490175,None,None,1,391.04561683490175,None,,,,,,,,,,,,,,,,,,,,,,,,,,,,,,,,,,,,,,,,,,,,,,jul_l,001,a,2019_Oct_10_1306,Experimento,3.2.3,59.93962928247254,
8,14,14,999,0.5,0:10,3,White,None,0,0,1,28:50,./completed_changuitos/montage_jteii_133.75_154.09.jpg,right,0,0,0,0,,,,,0,11,11,11,,,,,,,,,0,0,0,0,0,17,17,17,,,,,,,,,,,,,,,,,,,,,,,,,,,,,,,,,391.04561683490175,None,None,1,391.04561683490175,None,,,,,,,,,,,,,,,,,,,,,,,,,,,,,,,,,,,,,,,,,,,,,,jul_l,001,a,2019_Oct_10_1306,Experimento,3.2.3,59.93962928247254,
8,14,14,999,0.5,0:10,3,Green,['space'],0,0,1,28:50,./completed_changuitos/montage_jteii_133.75_154.09.jpg,right,0,0,0,0,,,,,0,11,11,11,,,,,,,,,0,0,0,0,0,18,18,18,,,,,,,,,,,,,,,,,,,,,,,,,,,,,,,,,391.04561683490175,None,None,0,391.04561683490175,None,,,,,,,,,,,,,,,,,,,,,,,,,,,,,,,,,,,,,,,,,,,,,,jul_l,001,a,2019_Oct_10_1306,Experimento,3.2.3,59.93962928247254,
8,14,14,999,0.5,0:10,3,Red,None,0,0,1,28:50,./completed_changuitos/montage_jteii_133.75_154.09.jpg,right,0,0,0,0,,,,,0,11,11,11,,,,,,,,,0,0,0,0,0,19,19,19,,,,,,,,,,,,,,,,,,,,,,,,,,,,,,,,,391.04561683490175,None,None,1,391.04561683490175,None,,,,,,,,,,,,,,,,,,,,,,,,,,,,,,,,,,,,,,,,,,,,,,jul_l,001,a,2019_Oct_10_1306,Experimento,3.2.3,59.93962928247254,
8,14,14,999,0.5,0:10,3,Blue,None,0,0,1,28:50,./completed_changuitos/montage_jteii_133.75_154.09.jpg,right,0,0,0,0,,,,,0,11,11,11,,,,,,,,,0,0,0,0,0,20,20,20,,,,,,,,,,,,,,,,,,,,,,,,,,,,,,,,,391.04561683490175,None,None,1,391.04561683490175,None,,,,,,,,,,,,,,,,,,,,,,,,,,,,,,,,,,,,,,,,,,,,,,jul_l,001,a,2019_Oct_10_1306,Experimento,3.2.3,59.93962928247254,
8,14,14,999,0.5,0:10,3,Green,None,0,0,1,28:50,./completed_changuitos/montage_jteii_133.75_154.09.jpg,right,0,0,0,0,,,,,0,11,11,11,,,,,,,,,0,0,0,0,0,21,21,21,,,,,,,,,,,,,,,,,,,,,,,,,,,,,,,,,391.04561683490175,None,None,1,391.04561683490175,None,,,,,,,,,,,,,,,,,,,,,,,,,,,,,,,,,,,,,,,,,,,,,,jul_l,001,a,2019_Oct_10_1306,Experimento,3.2.3,59.93962928247254,
8,14,14,999,0.5,0:10,3,,,0,0,1,28:50,./completed_changuitos/montage_jteii_133.75_154.09.jpg,right,0,0,0,0,,,,,0,11,11,11,,,,,,,,,0,0,0,0,,,,,,,,,,,,,,,,,,,,,,,,,,,,,,,,,,,,,,,,,,,,391.0855322950083,None,right,1,1.342801499995403,391.0855322950083,None,391.0855322950083,None,,,,,,,,,,,,,,,,,,,,,,,,,,,,,,,,,,,,jul_l,001,a,2019_Oct_10_1306,Experimento,3.2.3,59.93962928247254,
8,14,14,999,0.5,0:10,3,,,0,0,1,28:50,,,0,0,0,0,,,,,0,11,11,11,,,,,,,,,,,,,,,,,,,,,,,,,,,,,,,,,,,,,,,,,,,,,,,,,,,,,,,,,,,,,,,,,,,,,,,,,,,,,,,,,,,,,,,,,,,,,,,,,,,,jul_l,001,a,2019_Oct_10_1306,Experimento,3.2.3,59.93962928247254,
8,14,14,999,0.5,0:10,3,,,1,0,0,30:50,./completed_changuitos/montage_barjo_153.0_138.05.jpg,left,0,0,0,0,,,,,0,12,12,12,0,0,0,0,,,,,,,,,,,,,,,,,,,,,,,,,,,,,,,,,,,,,,,,,,,,,,,,,,,,,,,,,,,,,393.04497183200147,394.32792740801233,394.32792740801233,402.3414295660041,right,0,1.9668828200083226,402.3414295660041,None,402.3414295660041,None,402.3414295660041,None,,,,,,,,,,,,,,,,,,,,,,,jul_l,001,a,2019_Oct_10_1306,Experimento,3.2.3,59.93962928247254,
8,14,14,999,0.5,0:10,3,,,1,0,0,30:50,,,0,0,0,0,,,,,0,12,12,12,,,,,,,,,,,,,,,,,,,,,,,,,,,,,,,,,,,,,,,,,,,,,,,,,,,,,,,,,,,,,,,,,,,,,,,,,,,,,,,,,,,,,,,,,,,,,,,,,,,,jul_l,001,a,2019_Oct_10_1306,Experimento,3.2.3,59.93962928247254,
8,14,14,999,0.5,0:10,3,,,1,0,0,32:50,./completed_changuitos/montage_zxnjp_141.15_163.7.jpg,right,0,0,0,0,,,,,0,13,13,13,0,0,0,0,,,,,,,,,,,,,,,,,,,,,,,,,,,,,,,,,,,,,,,,,,,,,,,,,,,,,,,,,,,,,404.94053547200747,406.49038469800144,406.49038469800144,414.50428994200774,left,0,2.284236223989865,414.50428994200774,None,414.50428994200774,None,414.50428994200774,None,,,,,,,,,,,,,,,,,,,,,,,jul_l,001,a,2019_Oct_10_1306,Experimento,3.2.3,59.93962928247254,
8,14,14,999,0.5,0:10,3,,,1,0,0,32:50,,,0,0,0,0,,,,,0,13,13,13,,,,,,,,,,,,,,,,,,,,,,,,,,,,,,,,,,,,,,,,,,,,,,,,,,,,,,,,,,,,,,,,,,,,,,,,,,,,,,,,,,,,,,,,,,,,,,,,,,,,jul_l,001,a,2019_Oct_10_1306,Experimento,3.2.3,59.93962928247254,
8,14,14,999,0.5,0:10,3,,,1,0,0,34:50,./completed_changuitos/montage_cyddr_54.79_63.65.jpg,right,0,0,0,0,,,,,0,14,14,14,0,0,0,0,,,,,,,,,,,,,,,,,,,,,,,,,,,,,,,,,,,,,,,,,,,,,,,,,,,,,,,,,,,,,417.4366194910108,418.6525680170016,418.6525680170016,426.6668442400114,left,0,0.799463631992694,426.6668442400114,None,426.6668442400114,None,426.6668442400114,None,,,,,,,,,,,,,,,,,,,,,,,jul_l,001,a,2019_Oct_10_1306,Experimento,3.2.3,59.93962928247254,
8,14,14,999,0.5,0:10,3,,,1,0,0,34:50,,,0,0,0,0,,,,,0,14,14,14,,,,,,,,,,,,,,,,,,,,,,,,,,,,,,,,,,,,,,,,,,,,,,,,,,,,,,,,,,,,,,,,,,,,,,,,,,,,,,,,,,,,,,,,,,,,,,,,,,,,jul_l,001,a,2019_Oct_10_1306,Experimento,3.2.3,59.93962928247254,
8,14,14,999,0.5,0:10,3,,,1,0,0,30:50,./completed_changuitos/montage_djeez_90.99_79.19.jpg,left,0,0,0,0,,,,,0,15,15,15,0,0,0,0,,,,,,,,,,,,,,,,,,,,,,,,,,,,,,,,,,,,,,,,,,,,,,,,,,,,,,,,,,,,,428.08298273901164,429.365892094007,429.365892094007,437.3797993629996,left,1,0.6831448779994389,437.3797993629996,None,437.3797993629996,None,437.3797993629996,None,,,,,,,,,,,,,,,,,,,,,,,jul_l,001,a,2019_Oct_10_1306,Experimento,3.2.3,59.93962928247254,
8,14,14,999,0.5,0:10,3,,,1,0,0,30:50,,,0,0,0,0,,,,,0,15,15,15,,,,,,,,,,,,,,,,,,,,,,,,,,,,,,,,,,,,,,,,,,,,,,,,,,,,,,,,,,,,,,,,,,,,,,,,,,,,,,,,,,,,,,,,,,,,,,,,,,,,jul_l,001,a,2019_Oct_10_1306,Experimento,3.2.3,59.93962928247254,
8,14,14,999,0.5,0:10,3,,,1,0,0,32:50,./completed_changuitos/montage_lgsnr_23.55_27.29.jpg,right,0,0,0,0,,,,,0,16,16,16,0,0,0,0,,,,,,,,,,,,,,,,,,,,,,,,,,,,,,,,,,,,,,,,,,,,,,,,,,,,,,,,,,,,,438.69602511000994,439.7956535830017,439.7956535830017,447.8095642670087,right,1,0.5998523930029478,447.8095642670087,None,447.8095642670087,None,447.8095642670087,None,,,,,,,,,,,,,,,,,,,,,,,jul_l,001,a,2019_Oct_10_1306,Experimento,3.2.3,59.93962928247254,
8,14,14,999,0.5,0:10,3,,,1,0,0,32:50,,,0,0,0,0,,,,,0,16,16,16,,,,,,,,,,,,,,,,,,,,,,,,,,,,,,,,,,,,,,,,,,,,,,,,,,,,,,,,,,,,,,,,,,,,,,,,,,,,,,,,,,,,,,,,,,,,,,,,,,,,jul_l,001,a,2019_Oct_10_1306,Experimento,3.2.3,59.93962928247254,
8,14,14,999,0.5,0:10,3,,,1,0,0,34:50,./completed_changuitos/montage_suwjp_90.95_104.65.jpg,right,0,0,0,0,,,,,0,17,17,17,0,0,0,0,,,,,,,,,,,,,,,,,,,,,,,,,,,,,,,,,,,,,,,,,,,,,,,,,,,,,,,,,,,,,449.0424893740128,449.9755010299996,449.9755010299996,457.98903574699943,right,1,0.9007020639983239,457.98903574699943,None,457.98903574699943,None,457.98903574699943,None,,,,,,,,,,,,,,,,,,,,,,,jul_l,001,a,2019_Oct_10_1306,Experimento,3.2.3,59.93962928247254,
8,14,14,999,0.5,0:10,3,,,1,0,0,34:50,,,0,0,0,0,,,,,0,17,17,17,,,,,,,,,,,,,,,,,,,,,,,,,,,,,,,,,,,,,,,,,,,,,,,,,,,,,,,,,,,,,,,,,,,,,,,,,,,,,,,,,,,,,,,,,,,,,,,,,,,,jul_l,001,a,2019_Oct_10_1306,Experimento,3.2.3,59.93962928247254,
8,14,14,999,0.5,0:10,3,,,,,,,,,0,0,0,0,,,,,,,,,,,,,,,,,,,,,,,,,,,,,,,,,,,,,,,,,,,,,,,,,,,,,,,,,,,,,,,,,,,,,,,,,,,,,,,,,,,,,,458.9606171980122,461.9547485570074,1,25.158595111002796,461.9547485570074,None,461.9547485570074,None,c,24.791465218993835,487.12926976400195,None,487.12926976400195,None,487.12926976400195,None,511.9372274780035,None,4,6.148071521005477,511.9372274780035,None,jul_l,001,a,2019_Oct_10_1306,Experimento,3.2.3,59.93962928247254,
