changuito_time_to_show,time_to_think,time_to_play,total_items,nback_stimulus_time,nback_training,time_to_show_tiny_stimulus,colourtest,corresp,inmediato,consciente,inconsciente,nback_slice,imagen,correcta,trials_5.thisRepN,trials_5.thisTrialN,trials_5.thisN,trials_5.thisIndex,nback_train.thisRepN,nback_train.thisTrialN,nback_train.thisN,nback_train.thisIndex,treatment_order.thisRepN,treatment_order.thisTrialN,treatment_order.thisN,treatment_order.thisIndex,trials.thisRepN,trials.thisTrialN,trials.thisN,trials.thisIndex,trials_2.thisRepN,trials_2.thisTrialN,trials_2.thisN,trials_2.thisIndex,trials_3.thisRepN,trials_3.thisTrialN,trials_3.thisN,trials_3.thisIndex,trials_4.thisRepN,trials_4.thisTrialN,trials_4.thisN,trials_4.thisIndex,Presentacion.started,Presentacion.stopped,Juego.started,Juego.stopped,image_6.started,image_6.stopped,polygon.started,polygon.stopped,nback_train_resp.keys,nback_train_resp.corr,nback_train_resp.started,nback_train_resp.stopped,nback_train_resp.rt,hola.started,hola.stopped,image_2.started,image_2.stopped,tiempo_para_pensar.started,tiempo_para_pensar.stopped,respuesta_consciente.keys,respuesta_consciente.corr,respuesta_consciente.rt,respuesta_consciente.started,respuesta_consciente.stopped,cual_es_la_mas_barata.started,cual_es_la_mas_barata.stopped,image_4.started,image_4.stopped,holi.started,holi.stopped,image_3.started,image_3.stopped,polygon_2.started,polygon_2.stopped,nback_train_resp_2.keys,nback_train_resp_2.corr,nback_train_resp_2.started,nback_train_resp_2.stopped,nback_train_resp_2.rt,text_2.started,text_2.stopped,key_resp.keys,key_resp.corr,key_resp.rt,key_resp.started,key_resp.stopped,image_5.started,image_5.stopped,text.started,text.stopped,image.started,image.stopped,respuesta_inmediato.keys,respuesta_inmediato.corr,respuesta_inmediato.rt,respuesta_inmediato.started,respuesta_inmediato.stopped,pregunta_cual_es_el_mas_barato.started,pregunta_cual_es_el_mas_barato.stopped,short_stim1.started,short_stim1.stopped,gracias.started,gracias.stopped,respuesta1.keys,respuesta1.rt,respuesta1.started,respuesta1.stopped,pregunta1.started,pregunta1.stopped,respuesta3bis_3.keys,respuesta3bis_3.rt,respuesta3bis_3.started,respuesta3bis_3.stopped,pregunta3_3.started,pregunta3_3.stopped,productoCon3RANGOSabc_3.started,productoCon3RANGOSabc_3.stopped,text_3.started,text_3.stopped,key_resp_2.keys,key_resp_2.rt,key_resp_2.started,key_resp_2.stopped,participant,session,group,date,expName,psychopyVersion,frameRate,
8,14,14,999,0.5,0:10,3,White,None,,,,,,,0,0,0,0,0,0,0,0,,,,,,,,,,,,,,,,,,,,,20.570262104003632,None,35.18091596200247,None,35.18091596200247,None,61.384076917005586,61.897209203001694,None,1,61.384076917005586,None,,,,,,,,,,,,,,,,,,,,,,,,,,,,,,,,,,,,,,,,,,,,,,,,,,,,,,,,,,,,,,,,,,,,,,,,martinaR,001,c,2019_Oct_11_2258,Experimento,3.2.3,60.49692232485378,
8,14,14,999,0.5,0:10,3,Red,None,,,,,,,0,0,0,0,0,1,1,1,,,,,,,,,,,,,,,,,,,,,,,,,,,63.397045516001526,63.89753949900478,None,1,63.397045516001526,63.397045516001526,,,,,,,,,,,,,,,,,,,,,,,,,,,,,,,,,,,,,,,,,,,,,,,,,,,,,,,,,,,,,,,,,,,,,,,,martinaR,001,c,2019_Oct_11_2258,Experimento,3.2.3,60.49692232485378,
8,14,14,999,0.5,0:10,3,Magenta,None,,,,,,,0,0,0,0,0,2,2,2,,,,,,,,,,,,,,,,,,,,,,,,,,,65.39732300399919,65.89772751000419,None,1,65.39732300399919,65.39732300399919,,,,,,,,,,,,,,,,,,,,,,,,,,,,,,,,,,,,,,,,,,,,,,,,,,,,,,,,,,,,,,,,,,,,,,,,martinaR,001,c,2019_Oct_11_2258,Experimento,3.2.3,60.49692232485378,
8,14,14,999,0.5,0:10,3,Cyan,None,,,,,,,0,0,0,0,0,3,3,3,,,,,,,,,,,,,,,,,,,,,,,,,,,67.39800712899887,67.89781943800335,None,1,67.39800712899887,67.39800712899887,,,,,,,,,,,,,,,,,,,,,,,,,,,,,,,,,,,,,,,,,,,,,,,,,,,,,,,,,,,,,,,,,,,,,,,,martinaR,001,c,2019_Oct_11_2258,Experimento,3.2.3,60.49692232485378,
8,14,14,999,0.5,0:10,3,Magenta,['space'],,,,,,,0,0,0,0,0,4,4,4,,,,,,,,,,,,,,,,,,,,,,,,,,,69.39765892900323,69.89761350900517,['return'],0,69.39765892900323,69.39765892900323,[0.3752421120007057],,,,,,,,,,,,,,,,,,,,,,,,,,,,,,,,,,,,,,,,,,,,,,,,,,,,,,,,,,,,,,,,,,,,,,,martinaR,001,c,2019_Oct_11_2258,Experimento,3.2.3,60.49692232485378,
8,14,14,999,0.5,0:10,3,Green,None,,,,,,,0,0,0,0,0,5,5,5,,,,,,,,,,,,,,,,,,,,,,,,,,,71.39778995099914,71.89784525900177,None,1,71.39778995099914,71.39778995099914,,,,,,,,,,,,,,,,,,,,,,,,,,,,,,,,,,,,,,,,,,,,,,,,,,,,,,,,,,,,,,,,,,,,,,,,martinaR,001,c,2019_Oct_11_2258,Experimento,3.2.3,60.49692232485378,
8,14,14,999,0.5,0:10,3,White,None,,,,,,,0,0,0,0,0,6,6,6,,,,,,,,,,,,,,,,,,,,,,,,,,,73.39716004000366,73.89776988000085,None,1,73.39716004000366,73.39716004000366,,,,,,,,,,,,,,,,,,,,,,,,,,,,,,,,,,,,,,,,,,,,,,,,,,,,,,,,,,,,,,,,,,,,,,,,martinaR,001,c,2019_Oct_11_2258,Experimento,3.2.3,60.49692232485378,
8,14,14,999,0.5,0:10,3,Green,['space'],,,,,,,0,0,0,0,0,7,7,7,,,,,,,,,,,,,,,,,,,,,,,,,,,75.39713394400314,75.89775801799988,['return'],0,75.39713394400314,75.39713394400314,[0.44420254100259626],,,,,,,,,,,,,,,,,,,,,,,,,,,,,,,,,,,,,,,,,,,,,,,,,,,,,,,,,,,,,,,,,,,,,,,martinaR,001,c,2019_Oct_11_2258,Experimento,3.2.3,60.49692232485378,
8,14,14,999,0.5,0:10,3,Blue,None,,,,,,,0,0,0,0,0,8,8,8,,,,,,,,,,,,,,,,,,,,,,,,,,,77.39753588700114,77.89770218700141,None,1,77.39753588700114,77.39753588700114,,,,,,,,,,,,,,,,,,,,,,,,,,,,,,,,,,,,,,,,,,,,,,,,,,,,,,,,,,,,,,,,,,,,,,,,martinaR,001,c,2019_Oct_11_2258,Experimento,3.2.3,60.49692232485378,
8,14,14,999,0.5,0:10,3,Green,['space'],,,,,,,0,0,0,0,0,9,9,9,,,,,,,,,,,,,,,,,,,,,,,,,,,79.39726188700297,79.89753133700287,['return'],0,79.39726188700297,79.39726188700297,[0.7739092869960587],,,,,,,,,,,,,,,,,,,,,,,,,,,,,,,,,,,,,,,,,,,,,,,,,,,,,,,,,,,,,,,,,,,,,,,martinaR,001,c,2019_Oct_11_2258,Experimento,3.2.3,60.49692232485378,
8,14,14,999,0.5,0:10,3,,,0,1,0,10:50,./completed_changuitos/montage_zlfcm_109.15_126.99.jpg,right,0,0,0,0,,,,,0,0,0,0,,,,,0,0,0,0,,,,,,,,,,,,,,,,,,,,,,81.7016536220035,89.59909335100383,89.59909335100383,97.61372665499948,97.61372665499948,111.613070393003,left,0,3.3030924999984563,111.613070393003,None,111.613070393003,None,111.613070393003,114.61344300000201,,,,,,,,,,,,,,,,,,,,,,,,,,,,,,,,,,,,,,,,,,,,,,,,,,,,,,,,martinaR,001,c,2019_Oct_11_2258,Experimento,3.2.3,60.49692232485378,
8,14,14,999,0.5,0:10,3,,,0,1,0,10:50,,,0,0,0,0,,,,,0,0,0,0,,,,,,,,,,,,,,,,,,,,,,,,,,,,,,,,,,,,,,,,,,,,,,,,,,,,,,,,,,,,,,,,,,,,,,,,,,,,,,,,,,,,,,,,,,,,,,,,,,,,martinaR,001,c,2019_Oct_11_2258,Experimento,3.2.3,60.49692232485378,
8,14,14,999,0.5,0:10,3,Yellow,None,0,0,1,15:50,./completed_changuitos/montage_tihii_100.05_86.69.jpg,left,0,0,0,0,,,,,0,1,1,1,,,,,,,,,0,0,0,0,0,0,0,0,,,,,,,,,,,,,,,,,,,,,,,,,,,,,115.18006167100248,119.91650225000194,119.91650225000194,None,127.96304920200055,128.46406042300077,None,1,127.96304920200055,None,,,,,,,,,,,,,,,,,,,,,,,,,,,,,,,,,,,,,,,,,,,,,,martinaR,001,c,2019_Oct_11_2258,Experimento,3.2.3,60.49692232485378,
8,14,14,999,0.5,0:10,3,White,['space'],0,0,1,15:50,./completed_changuitos/montage_tihii_100.05_86.69.jpg,left,0,0,0,0,,,,,0,1,1,1,,,,,,,,,0,0,0,0,0,1,1,1,,,,,,,,,,,,,,,,,,,,,,,,,,,,,,,,,129.96449339199899,130.46417334700527,None,0,129.96449339199899,129.96449339199899,,,,,,,,,,,,,,,,,,,,,,,,,,,,,,,,,,,,,,,,,,,,,,martinaR,001,c,2019_Oct_11_2258,Experimento,3.2.3,60.49692232485378,
8,14,14,999,0.5,0:10,3,Magenta,None,0,0,1,15:50,./completed_changuitos/montage_tihii_100.05_86.69.jpg,left,0,0,0,0,,,,,0,1,1,1,,,,,,,,,0,0,0,0,0,2,2,2,,,,,,,,,,,,,,,,,,,,,,,,,,,,,,,,,131.96408653099934,132.46401485400565,None,1,131.96408653099934,131.96408653099934,,,,,,,,,,,,,,,,,,,,,,,,,,,,,,,,,,,,,,,,,,,,,,martinaR,001,c,2019_Oct_11_2258,Experimento,3.2.3,60.49692232485378,
8,14,14,999,0.5,0:10,3,Cyan,None,0,0,1,15:50,./completed_changuitos/montage_tihii_100.05_86.69.jpg,left,0,0,0,0,,,,,0,1,1,1,,,,,,,,,0,0,0,0,0,3,3,3,,,,,,,,,,,,,,,,,,,,,,,,,,,,,,,,,133.96404114200413,134.4640373880029,None,1,133.96404114200413,133.96404114200413,,,,,,,,,,,,,,,,,,,,,,,,,,,,,,,,,,,,,,,,,,,,,,martinaR,001,c,2019_Oct_11_2258,Experimento,3.2.3,60.49692232485378,
8,14,14,999,0.5,0:10,3,Blue,None,0,0,1,15:50,./completed_changuitos/montage_tihii_100.05_86.69.jpg,left,0,0,0,0,,,,,0,1,1,1,,,,,,,,,0,0,0,0,0,4,4,4,,,,,,,,,,,,,,,,,,,,,,,,,,,,,,,,,135.96434106900415,136.464221318005,None,1,135.96434106900415,135.96434106900415,,,,,,,,,,,,,,,,,,,,,,,,,,,,,,,,,,,,,,,,,,,,,,martinaR,001,c,2019_Oct_11_2258,Experimento,3.2.3,60.49692232485378,
8,14,14,999,0.5,0:10,3,Magenta,None,0,0,1,15:50,./completed_changuitos/montage_tihii_100.05_86.69.jpg,left,0,0,0,0,,,,,0,1,1,1,,,,,,,,,0,0,0,0,0,5,5,5,,,,,,,,,,,,,,,,,,,,,,,,,,,,,,,,,137.96428361900325,138.464043674001,['return'],0,137.96428361900325,137.96428361900325,[0.4406860939998296],,,,,,,,,,,,,,,,,,,,,,,,,,,,,,,,,,,,,,,,,,,,,martinaR,001,c,2019_Oct_11_2258,Experimento,3.2.3,60.49692232485378,
8,14,14,999,0.5,0:10,3,Blue,['space'],0,0,1,15:50,./completed_changuitos/montage_tihii_100.05_86.69.jpg,left,0,0,0,0,,,,,0,1,1,1,,,,,,,,,0,0,0,0,0,6,6,6,,,,,,,,,,,,,,,,,,,,,,,,,,,,,,,,,139.96389410700067,140.46402802000375,['return'],0,139.96389410700067,139.96389410700067,[0.5538616409976385],,,,,,,,,,,,,,,,,,,,,,,,,,,,,,,,,,,,,,,,,,,,,martinaR,001,c,2019_Oct_11_2258,Experimento,3.2.3,60.49692232485378,
8,14,14,999,0.5,0:10,3,Cyan,None,0,0,1,15:50,./completed_changuitos/montage_tihii_100.05_86.69.jpg,left,0,0,0,0,,,,,0,1,1,1,,,,,,,,,0,0,0,0,0,7,7,7,,,,,,,,,,,,,,,,,,,,,,,,,,,,,,,,,141.93072318620398,None,None,1,141.93072318620398,None,,,,,,,,,,,,,,,,,,,,,,,,,,,,,,,,,,,,,,,,,,,,,,martinaR,001,c,2019_Oct_11_2258,Experimento,3.2.3,60.49692232485378,
8,14,14,999,0.5,0:10,3,Yellow,None,0,0,1,15:50,./completed_changuitos/montage_tihii_100.05_86.69.jpg,left,0,0,0,0,,,,,0,1,1,1,,,,,,,,,0,0,0,0,0,8,8,8,,,,,,,,,,,,,,,,,,,,,,,,,,,,,,,,,141.93072318620398,None,None,1,141.93072318620398,None,,,,,,,,,,,,,,,,,,,,,,,,,,,,,,,,,,,,,,,,,,,,,,martinaR,001,c,2019_Oct_11_2258,Experimento,3.2.3,60.49692232485378,
8,14,14,999,0.5,0:10,3,Cyan,None,0,0,1,15:50,./completed_changuitos/montage_tihii_100.05_86.69.jpg,left,0,0,0,0,,,,,0,1,1,1,,,,,,,,,0,0,0,0,0,9,9,9,,,,,,,,,,,,,,,,,,,,,,,,,,,,,,,,,141.93072318620398,None,None,1,141.93072318620398,None,,,,,,,,,,,,,,,,,,,,,,,,,,,,,,,,,,,,,,,,,,,,,,martinaR,001,c,2019_Oct_11_2258,Experimento,3.2.3,60.49692232485378,
8,14,14,999,0.5,0:10,3,Blue,None,0,0,1,15:50,./completed_changuitos/montage_tihii_100.05_86.69.jpg,left,0,0,0,0,,,,,0,1,1,1,,,,,,,,,0,0,0,0,0,10,10,10,,,,,,,,,,,,,,,,,,,,,,,,,,,,,,,,,141.93072318620398,None,None,1,141.93072318620398,None,,,,,,,,,,,,,,,,,,,,,,,,,,,,,,,,,,,,,,,,,,,,,,martinaR,001,c,2019_Oct_11_2258,Experimento,3.2.3,60.49692232485378,
8,14,14,999,0.5,0:10,3,Cyan,['space'],0,0,1,15:50,./completed_changuitos/montage_tihii_100.05_86.69.jpg,left,0,0,0,0,,,,,0,1,1,1,,,,,,,,,0,0,0,0,0,11,11,11,,,,,,,,,,,,,,,,,,,,,,,,,,,,,,,,,141.93072318620398,None,None,0,141.93072318620398,None,,,,,,,,,,,,,,,,,,,,,,,,,,,,,,,,,,,,,,,,,,,,,,martinaR,001,c,2019_Oct_11_2258,Experimento,3.2.3,60.49692232485378,
8,14,14,999,0.5,0:10,3,Magenta,None,0,0,1,15:50,./completed_changuitos/montage_tihii_100.05_86.69.jpg,left,0,0,0,0,,,,,0,1,1,1,,,,,,,,,0,0,0,0,0,12,12,12,,,,,,,,,,,,,,,,,,,,,,,,,,,,,,,,,141.93072318620398,None,None,1,141.93072318620398,None,,,,,,,,,,,,,,,,,,,,,,,,,,,,,,,,,,,,,,,,,,,,,,martinaR,001,c,2019_Oct_11_2258,Experimento,3.2.3,60.49692232485378,
8,14,14,999,0.5,0:10,3,Red,None,0,0,1,15:50,./completed_changuitos/montage_tihii_100.05_86.69.jpg,left,0,0,0,0,,,,,0,1,1,1,,,,,,,,,0,0,0,0,0,13,13,13,,,,,,,,,,,,,,,,,,,,,,,,,,,,,,,,,141.93072318620398,None,None,1,141.93072318620398,None,,,,,,,,,,,,,,,,,,,,,,,,,,,,,,,,,,,,,,,,,,,,,,martinaR,001,c,2019_Oct_11_2258,Experimento,3.2.3,60.49692232485378,
8,14,14,999,0.5,0:10,3,Magenta,['space'],0,0,1,15:50,./completed_changuitos/montage_tihii_100.05_86.69.jpg,left,0,0,0,0,,,,,0,1,1,1,,,,,,,,,0,0,0,0,0,14,14,14,,,,,,,,,,,,,,,,,,,,,,,,,,,,,,,,,141.93072318620398,None,None,0,141.93072318620398,None,,,,,,,,,,,,,,,,,,,,,,,,,,,,,,,,,,,,,,,,,,,,,,martinaR,001,c,2019_Oct_11_2258,Experimento,3.2.3,60.49692232485378,
8,14,14,999,0.5,0:10,3,Green,None,0,0,1,15:50,./completed_changuitos/montage_tihii_100.05_86.69.jpg,left,0,0,0,0,,,,,0,1,1,1,,,,,,,,,0,0,0,0,0,15,15,15,,,,,,,,,,,,,,,,,,,,,,,,,,,,,,,,,141.94733591640397,None,None,1,141.94733591640397,None,,,,,,,,,,,,,,,,,,,,,,,,,,,,,,,,,,,,,,,,,,,,,,martinaR,001,c,2019_Oct_11_2258,Experimento,3.2.3,60.49692232485378,
8,14,14,999,0.5,0:10,3,Yellow,['space'],0,0,1,15:50,./completed_changuitos/montage_tihii_100.05_86.69.jpg,left,0,0,0,0,,,,,0,1,1,1,,,,,,,,,0,0,0,0,0,16,16,16,,,,,,,,,,,,,,,,,,,,,,,,,,,,,,,,,141.94733591640397,None,None,0,141.94733591640397,None,,,,,,,,,,,,,,,,,,,,,,,,,,,,,,,,,,,,,,,,,,,,,,martinaR,001,c,2019_Oct_11_2258,Experimento,3.2.3,60.49692232485378,
8,14,14,999,0.5,0:10,3,Blue,None,0,0,1,15:50,./completed_changuitos/montage_tihii_100.05_86.69.jpg,left,0,0,0,0,,,,,0,1,1,1,,,,,,,,,0,0,0,0,0,17,17,17,,,,,,,,,,,,,,,,,,,,,,,,,,,,,,,,,141.94733591640397,None,None,1,141.94733591640397,None,,,,,,,,,,,,,,,,,,,,,,,,,,,,,,,,,,,,,,,,,,,,,,martinaR,001,c,2019_Oct_11_2258,Experimento,3.2.3,60.49692232485378,
8,14,14,999,0.5,0:10,3,Cyan,None,0,0,1,15:50,./completed_changuitos/montage_tihii_100.05_86.69.jpg,left,0,0,0,0,,,,,0,1,1,1,,,,,,,,,0,0,0,0,0,18,18,18,,,,,,,,,,,,,,,,,,,,,,,,,,,,,,,,,141.94733591640397,None,None,1,141.94733591640397,None,,,,,,,,,,,,,,,,,,,,,,,,,,,,,,,,,,,,,,,,,,,,,,martinaR,001,c,2019_Oct_11_2258,Experimento,3.2.3,60.49692232485378,
8,14,14,999,0.5,0:10,3,Blue,['space'],0,0,1,15:50,./completed_changuitos/montage_tihii_100.05_86.69.jpg,left,0,0,0,0,,,,,0,1,1,1,,,,,,,,,0,0,0,0,0,19,19,19,,,,,,,,,,,,,,,,,,,,,,,,,,,,,,,,,141.94733591640397,None,None,0,141.94733591640397,None,,,,,,,,,,,,,,,,,,,,,,,,,,,,,,,,,,,,,,,,,,,,,,martinaR,001,c,2019_Oct_11_2258,Experimento,3.2.3,60.49692232485378,
8,14,14,999,0.5,0:10,3,Yellow,None,0,0,1,15:50,./completed_changuitos/montage_tihii_100.05_86.69.jpg,left,0,0,0,0,,,,,0,1,1,1,,,,,,,,,0,0,0,0,0,20,20,20,,,,,,,,,,,,,,,,,,,,,,,,,,,,,,,,,141.94733591640397,None,None,1,141.94733591640397,None,,,,,,,,,,,,,,,,,,,,,,,,,,,,,,,,,,,,,,,,,,,,,,martinaR,001,c,2019_Oct_11_2258,Experimento,3.2.3,60.49692232485378,
8,14,14,999,0.5,0:10,3,Cyan,None,0,0,1,15:50,./completed_changuitos/montage_tihii_100.05_86.69.jpg,left,0,0,0,0,,,,,0,1,1,1,,,,,,,,,0,0,0,0,0,21,21,21,,,,,,,,,,,,,,,,,,,,,,,,,,,,,,,,,141.94733591640397,None,None,1,141.94733591640397,None,,,,,,,,,,,,,,,,,,,,,,,,,,,,,,,,,,,,,,,,,,,,,,martinaR,001,c,2019_Oct_11_2258,Experimento,3.2.3,60.49692232485378,
8,14,14,999,0.5,0:10,3,Yellow,['space'],0,0,1,15:50,./completed_changuitos/montage_tihii_100.05_86.69.jpg,left,0,0,0,0,,,,,0,1,1,1,,,,,,,,,0,0,0,0,0,22,22,22,,,,,,,,,,,,,,,,,,,,,,,,,,,,,,,,,141.94733591640397,None,None,0,141.94733591640397,None,,,,,,,,,,,,,,,,,,,,,,,,,,,,,,,,,,,,,,,,,,,,,,martinaR,001,c,2019_Oct_11_2258,Experimento,3.2.3,60.49692232485378,
8,14,14,999,0.5,0:10,3,Magenta,None,0,0,1,15:50,./completed_changuitos/montage_tihii_100.05_86.69.jpg,left,0,0,0,0,,,,,0,1,1,1,,,,,,,,,0,0,0,0,0,23,23,23,,,,,,,,,,,,,,,,,,,,,,,,,,,,,,,,,141.94733591640397,None,None,1,141.94733591640397,None,,,,,,,,,,,,,,,,,,,,,,,,,,,,,,,,,,,,,,,,,,,,,,martinaR,001,c,2019_Oct_11_2258,Experimento,3.2.3,60.49692232485378,
8,14,14,999,0.5,0:10,3,Red,None,0,0,1,15:50,./completed_changuitos/montage_tihii_100.05_86.69.jpg,left,0,0,0,0,,,,,0,1,1,1,,,,,,,,,0,0,0,0,0,24,24,24,,,,,,,,,,,,,,,,,,,,,,,,,,,,,,,,,141.94733591640397,None,None,1,141.94733591640397,None,,,,,,,,,,,,,,,,,,,,,,,,,,,,,,,,,,,,,,,,,,,,,,martinaR,001,c,2019_Oct_11_2258,Experimento,3.2.3,60.49692232485378,
8,14,14,999,0.5,0:10,3,Magenta,['space'],0,0,1,15:50,./completed_changuitos/montage_tihii_100.05_86.69.jpg,left,0,0,0,0,,,,,0,1,1,1,,,,,,,,,0,0,0,0,0,25,25,25,,,,,,,,,,,,,,,,,,,,,,,,,,,,,,,,,141.96394864660397,None,None,0,141.96394864660397,None,,,,,,,,,,,,,,,,,,,,,,,,,,,,,,,,,,,,,,,,,,,,,,martinaR,001,c,2019_Oct_11_2258,Experimento,3.2.3,60.49692232485378,
8,14,14,999,0.5,0:10,3,Red,['space'],0,0,1,15:50,./completed_changuitos/montage_tihii_100.05_86.69.jpg,left,0,0,0,0,,,,,0,1,1,1,,,,,,,,,0,0,0,0,0,26,26,26,,,,,,,,,,,,,,,,,,,,,,,,,,,,,,,,,141.96394864660397,None,None,0,141.96394864660397,None,,,,,,,,,,,,,,,,,,,,,,,,,,,,,,,,,,,,,,,,,,,,,,martinaR,001,c,2019_Oct_11_2258,Experimento,3.2.3,60.49692232485378,
8,14,14,999,0.5,0:10,3,Yellow,None,0,0,1,15:50,./completed_changuitos/montage_tihii_100.05_86.69.jpg,left,0,0,0,0,,,,,0,1,1,1,,,,,,,,,0,0,0,0,0,27,27,27,,,,,,,,,,,,,,,,,,,,,,,,,,,,,,,,,141.96394864660397,None,None,1,141.96394864660397,None,,,,,,,,,,,,,,,,,,,,,,,,,,,,,,,,,,,,,,,,,,,,,,martinaR,001,c,2019_Oct_11_2258,Experimento,3.2.3,60.49692232485378,
8,14,14,999,0.5,0:10,3,Cyan,None,0,0,1,15:50,./completed_changuitos/montage_tihii_100.05_86.69.jpg,left,0,0,0,0,,,,,0,1,1,1,,,,,,,,,0,0,0,0,0,28,28,28,,,,,,,,,,,,,,,,,,,,,,,,,,,,,,,,,141.96394864660397,None,None,1,141.96394864660397,None,,,,,,,,,,,,,,,,,,,,,,,,,,,,,,,,,,,,,,,,,,,,,,martinaR,001,c,2019_Oct_11_2258,Experimento,3.2.3,60.49692232485378,
8,14,14,999,0.5,0:10,3,Green,None,0,0,1,15:50,./completed_changuitos/montage_tihii_100.05_86.69.jpg,left,0,0,0,0,,,,,0,1,1,1,,,,,,,,,0,0,0,0,0,29,29,29,,,,,,,,,,,,,,,,,,,,,,,,,,,,,,,,,141.96394864660397,None,None,1,141.96394864660397,None,,,,,,,,,,,,,,,,,,,,,,,,,,,,,,,,,,,,,,,,,,,,,,martinaR,001,c,2019_Oct_11_2258,Experimento,3.2.3,60.49692232485378,
8,14,14,999,0.5,0:10,3,White,None,0,0,1,15:50,./completed_changuitos/montage_tihii_100.05_86.69.jpg,left,0,0,0,0,,,,,0,1,1,1,,,,,,,,,0,0,0,0,0,30,30,30,,,,,,,,,,,,,,,,,,,,,,,,,,,,,,,,,141.96394864660397,None,None,1,141.96394864660397,None,,,,,,,,,,,,,,,,,,,,,,,,,,,,,,,,,,,,,,,,,,,,,,martinaR,001,c,2019_Oct_11_2258,Experimento,3.2.3,60.49692232485378,
8,14,14,999,0.5,0:10,3,Green,['space'],0,0,1,15:50,./completed_changuitos/montage_tihii_100.05_86.69.jpg,left,0,0,0,0,,,,,0,1,1,1,,,,,,,,,0,0,0,0,0,31,31,31,,,,,,,,,,,,,,,,,,,,,,,,,,,,,,,,,141.96394864660397,None,None,0,141.96394864660397,None,,,,,,,,,,,,,,,,,,,,,,,,,,,,,,,,,,,,,,,,,,,,,,martinaR,001,c,2019_Oct_11_2258,Experimento,3.2.3,60.49692232485378,
8,14,14,999,0.5,0:10,3,Red,None,0,0,1,15:50,./completed_changuitos/montage_tihii_100.05_86.69.jpg,left,0,0,0,0,,,,,0,1,1,1,,,,,,,,,0,0,0,0,0,32,32,32,,,,,,,,,,,,,,,,,,,,,,,,,,,,,,,,,141.96394864660397,None,None,1,141.96394864660397,None,,,,,,,,,,,,,,,,,,,,,,,,,,,,,,,,,,,,,,,,,,,,,,martinaR,001,c,2019_Oct_11_2258,Experimento,3.2.3,60.49692232485378,
8,14,14,999,0.5,0:10,3,Blue,None,0,0,1,15:50,./completed_changuitos/montage_tihii_100.05_86.69.jpg,left,0,0,0,0,,,,,0,1,1,1,,,,,,,,,0,0,0,0,0,33,33,33,,,,,,,,,,,,,,,,,,,,,,,,,,,,,,,,,141.96394864660397,None,None,1,141.96394864660397,None,,,,,,,,,,,,,,,,,,,,,,,,,,,,,,,,,,,,,,,,,,,,,,martinaR,001,c,2019_Oct_11_2258,Experimento,3.2.3,60.49692232485378,
8,14,14,999,0.5,0:10,3,Green,None,0,0,1,15:50,./completed_changuitos/montage_tihii_100.05_86.69.jpg,left,0,0,0,0,,,,,0,1,1,1,,,,,,,,,0,0,0,0,0,34,34,34,,,,,,,,,,,,,,,,,,,,,,,,,,,,,,,,,141.96394864660397,None,None,1,141.96394864660397,None,,,,,,,,,,,,,,,,,,,,,,,,,,,,,,,,,,,,,,,,,,,,,,martinaR,001,c,2019_Oct_11_2258,Experimento,3.2.3,60.49692232485378,
8,14,14,999,0.5,0:10,3,,,0,0,1,15:50,./completed_changuitos/montage_tihii_100.05_86.69.jpg,left,0,0,0,0,,,,,0,1,1,1,,,,,,,,,0,0,0,0,,,,,,,,,,,,,,,,,,,,,,,,,,,,,,,,,,,,,,,,,,,,142.08076340900152,None,left,1,3.7011324749983032,142.08076340900152,None,142.08076340900152,145.0811664560024,,,,,,,,,,,,,,,,,,,,,,,,,,,,,,,,,,,,martinaR,001,c,2019_Oct_11_2258,Experimento,3.2.3,60.49692232485378,
8,14,14,999,0.5,0:10,3,,,0,0,1,15:50,,,0,0,0,0,,,,,0,1,1,1,,,,,,,,,,,,,,,,,,,,,,,,,,,,,,,,,,,,,,,,,,,,,,,,,,,,,,,,,,,,,,,,,,,,,,,,,,,,,,,,,,,,,,,,,,,,,,,,,,,,martinaR,001,c,2019_Oct_11_2258,Experimento,3.2.3,60.49692232485378,
8,14,14,999,0.5,0:10,3,Magenta,None,0,0,1,20:50,./completed_changuitos/montage_ztfxp_75.99_64.19.jpg,left,0,0,0,0,,,,,0,2,2,2,,,,,,,,,0,0,0,0,0,0,0,0,,,,,,,,,,,,,,,,,,,,,,,,,,,,,146.03666841100494,150.29906077300257,150.29906077300257,None,158.34708253600547,158.84759966799902,None,1,158.34708253600547,None,,,,,,,,,,,,,,,,,,,,,,,,,,,,,,,,,,,,,,,,,,,,,,martinaR,001,c,2019_Oct_11_2258,Experimento,3.2.3,60.49692232485378,
8,14,14,999,0.5,0:10,3,Blue,['space'],0,0,1,20:50,./completed_changuitos/montage_ztfxp_75.99_64.19.jpg,left,0,0,0,0,,,,,0,2,2,2,,,,,,,,,0,0,0,0,0,1,1,1,,,,,,,,,,,,,,,,,,,,,,,,,,,,,,,,,160.34724572300183,160.847102644002,None,0,160.34724572300183,160.34724572300183,,,,,,,,,,,,,,,,,,,,,,,,,,,,,,,,,,,,,,,,,,,,,,martinaR,001,c,2019_Oct_11_2258,Experimento,3.2.3,60.49692232485378,
8,14,14,999,0.5,0:10,3,Cyan,None,0,0,1,20:50,./completed_changuitos/montage_ztfxp_75.99_64.19.jpg,left,0,0,0,0,,,,,0,2,2,2,,,,,,,,,0,0,0,0,0,2,2,2,,,,,,,,,,,,,,,,,,,,,,,,,,,,,,,,,162.3471636489994,162.84712885699992,None,1,162.3471636489994,162.3471636489994,,,,,,,,,,,,,,,,,,,,,,,,,,,,,,,,,,,,,,,,,,,,,,martinaR,001,c,2019_Oct_11_2258,Experimento,3.2.3,60.49692232485378,
8,14,14,999,0.5,0:10,3,Yellow,None,0,0,1,20:50,./completed_changuitos/montage_ztfxp_75.99_64.19.jpg,left,0,0,0,0,,,,,0,2,2,2,,,,,,,,,0,0,0,0,0,3,3,3,,,,,,,,,,,,,,,,,,,,,,,,,,,,,,,,,164.34731284800364,164.8472737609991,None,1,164.34731284800364,164.34731284800364,,,,,,,,,,,,,,,,,,,,,,,,,,,,,,,,,,,,,,,,,,,,,,martinaR,001,c,2019_Oct_11_2258,Experimento,3.2.3,60.49692232485378,
8,14,14,999,0.5,0:10,3,Cyan,None,0,0,1,20:50,./completed_changuitos/montage_ztfxp_75.99_64.19.jpg,left,0,0,0,0,,,,,0,2,2,2,,,,,,,,,0,0,0,0,0,4,4,4,,,,,,,,,,,,,,,,,,,,,,,,,,,,,,,,,166.34717638700386,166.84726452999894,['return'],0,166.34717638700386,166.34717638700386,[0.34164086500095436],,,,,,,,,,,,,,,,,,,,,,,,,,,,,,,,,,,,,,,,,,,,,martinaR,001,c,2019_Oct_11_2258,Experimento,3.2.3,60.49692232485378,
8,14,14,999,0.5,0:10,3,Blue,None,0,0,1,20:50,./completed_changuitos/montage_ztfxp_75.99_64.19.jpg,left,0,0,0,0,,,,,0,2,2,2,,,,,,,,,0,0,0,0,0,5,5,5,,,,,,,,,,,,,,,,,,,,,,,,,,,,,,,,,168.34753650300263,168.84700587800035,None,1,168.34753650300263,168.34753650300263,,,,,,,,,,,,,,,,,,,,,,,,,,,,,,,,,,,,,,,,,,,,,,martinaR,001,c,2019_Oct_11_2258,Experimento,3.2.3,60.49692232485378,
8,14,14,999,0.5,0:10,3,Cyan,['space'],0,0,1,20:50,./completed_changuitos/montage_ztfxp_75.99_64.19.jpg,left,0,0,0,0,,,,,0,2,2,2,,,,,,,,,0,0,0,0,0,6,6,6,,,,,,,,,,,,,,,,,,,,,,,,,,,,,,,,,170.34702841700346,170.8470851240054,['return'],0,170.34702841700346,170.34702841700346,[0.3205205050035147],,,,,,,,,,,,,,,,,,,,,,,,,,,,,,,,,,,,,,,,,,,,,martinaR,001,c,2019_Oct_11_2258,Experimento,3.2.3,60.49692232485378,
8,14,14,999,0.5,0:10,3,Magenta,None,0,0,1,20:50,./completed_changuitos/montage_ztfxp_75.99_64.19.jpg,left,0,0,0,0,,,,,0,2,2,2,,,,,,,,,0,0,0,0,0,7,7,7,,,,,,,,,,,,,,,,,,,,,,,,,,,,,,,,,172.31348143920331,None,None,1,172.31348143920331,None,,,,,,,,,,,,,,,,,,,,,,,,,,,,,,,,,,,,,,,,,,,,,,martinaR,001,c,2019_Oct_11_2258,Experimento,3.2.3,60.49692232485378,
8,14,14,999,0.5,0:10,3,Red,None,0,0,1,20:50,./completed_changuitos/montage_ztfxp_75.99_64.19.jpg,left,0,0,0,0,,,,,0,2,2,2,,,,,,,,,0,0,0,0,0,8,8,8,,,,,,,,,,,,,,,,,,,,,,,,,,,,,,,,,172.31348143920331,None,None,1,172.31348143920331,None,,,,,,,,,,,,,,,,,,,,,,,,,,,,,,,,,,,,,,,,,,,,,,martinaR,001,c,2019_Oct_11_2258,Experimento,3.2.3,60.49692232485378,
8,14,14,999,0.5,0:10,3,Magenta,['space'],0,0,1,20:50,./completed_changuitos/montage_ztfxp_75.99_64.19.jpg,left,0,0,0,0,,,,,0,2,2,2,,,,,,,,,0,0,0,0,0,9,9,9,,,,,,,,,,,,,,,,,,,,,,,,,,,,,,,,,172.31348143920331,None,None,0,172.31348143920331,None,,,,,,,,,,,,,,,,,,,,,,,,,,,,,,,,,,,,,,,,,,,,,,martinaR,001,c,2019_Oct_11_2258,Experimento,3.2.3,60.49692232485378,
8,14,14,999,0.5,0:10,3,Green,None,0,0,1,20:50,./completed_changuitos/montage_ztfxp_75.99_64.19.jpg,left,0,0,0,0,,,,,0,2,2,2,,,,,,,,,0,0,0,0,0,10,10,10,,,,,,,,,,,,,,,,,,,,,,,,,,,,,,,,,172.31348143920331,None,None,1,172.31348143920331,None,,,,,,,,,,,,,,,,,,,,,,,,,,,,,,,,,,,,,,,,,,,,,,martinaR,001,c,2019_Oct_11_2258,Experimento,3.2.3,60.49692232485378,
8,14,14,999,0.5,0:10,3,Yellow,['space'],0,0,1,20:50,./completed_changuitos/montage_ztfxp_75.99_64.19.jpg,left,0,0,0,0,,,,,0,2,2,2,,,,,,,,,0,0,0,0,0,11,11,11,,,,,,,,,,,,,,,,,,,,,,,,,,,,,,,,,172.31348143920331,None,None,0,172.31348143920331,None,,,,,,,,,,,,,,,,,,,,,,,,,,,,,,,,,,,,,,,,,,,,,,martinaR,001,c,2019_Oct_11_2258,Experimento,3.2.3,60.49692232485378,
8,14,14,999,0.5,0:10,3,Blue,None,0,0,1,20:50,./completed_changuitos/montage_ztfxp_75.99_64.19.jpg,left,0,0,0,0,,,,,0,2,2,2,,,,,,,,,0,0,0,0,0,12,12,12,,,,,,,,,,,,,,,,,,,,,,,,,,,,,,,,,172.3300941694033,None,None,1,172.3300941694033,None,,,,,,,,,,,,,,,,,,,,,,,,,,,,,,,,,,,,,,,,,,,,,,martinaR,001,c,2019_Oct_11_2258,Experimento,3.2.3,60.49692232485378,
8,14,14,999,0.5,0:10,3,Cyan,None,0,0,1,20:50,./completed_changuitos/montage_ztfxp_75.99_64.19.jpg,left,0,0,0,0,,,,,0,2,2,2,,,,,,,,,0,0,0,0,0,13,13,13,,,,,,,,,,,,,,,,,,,,,,,,,,,,,,,,,172.3300941694033,None,None,1,172.3300941694033,None,,,,,,,,,,,,,,,,,,,,,,,,,,,,,,,,,,,,,,,,,,,,,,martinaR,001,c,2019_Oct_11_2258,Experimento,3.2.3,60.49692232485378,
8,14,14,999,0.5,0:10,3,Blue,['space'],0,0,1,20:50,./completed_changuitos/montage_ztfxp_75.99_64.19.jpg,left,0,0,0,0,,,,,0,2,2,2,,,,,,,,,0,0,0,0,0,14,14,14,,,,,,,,,,,,,,,,,,,,,,,,,,,,,,,,,172.3300941694033,None,None,0,172.3300941694033,None,,,,,,,,,,,,,,,,,,,,,,,,,,,,,,,,,,,,,,,,,,,,,,martinaR,001,c,2019_Oct_11_2258,Experimento,3.2.3,60.49692232485378,
8,14,14,999,0.5,0:10,3,Yellow,None,0,0,1,20:50,./completed_changuitos/montage_ztfxp_75.99_64.19.jpg,left,0,0,0,0,,,,,0,2,2,2,,,,,,,,,0,0,0,0,0,15,15,15,,,,,,,,,,,,,,,,,,,,,,,,,,,,,,,,,172.3300941694033,None,None,1,172.3300941694033,None,,,,,,,,,,,,,,,,,,,,,,,,,,,,,,,,,,,,,,,,,,,,,,martinaR,001,c,2019_Oct_11_2258,Experimento,3.2.3,60.49692232485378,
8,14,14,999,0.5,0:10,3,Cyan,None,0,0,1,20:50,./completed_changuitos/montage_ztfxp_75.99_64.19.jpg,left,0,0,0,0,,,,,0,2,2,2,,,,,,,,,0,0,0,0,0,16,16,16,,,,,,,,,,,,,,,,,,,,,,,,,,,,,,,,,172.3300941694033,None,None,1,172.3300941694033,None,,,,,,,,,,,,,,,,,,,,,,,,,,,,,,,,,,,,,,,,,,,,,,martinaR,001,c,2019_Oct_11_2258,Experimento,3.2.3,60.49692232485378,
8,14,14,999,0.5,0:10,3,Yellow,['space'],0,0,1,20:50,./completed_changuitos/montage_ztfxp_75.99_64.19.jpg,left,0,0,0,0,,,,,0,2,2,2,,,,,,,,,0,0,0,0,0,17,17,17,,,,,,,,,,,,,,,,,,,,,,,,,,,,,,,,,172.3300941694033,None,None,0,172.3300941694033,None,,,,,,,,,,,,,,,,,,,,,,,,,,,,,,,,,,,,,,,,,,,,,,martinaR,001,c,2019_Oct_11_2258,Experimento,3.2.3,60.49692232485378,
8,14,14,999,0.5,0:10,3,Magenta,None,0,0,1,20:50,./completed_changuitos/montage_ztfxp_75.99_64.19.jpg,left,0,0,0,0,,,,,0,2,2,2,,,,,,,,,0,0,0,0,0,18,18,18,,,,,,,,,,,,,,,,,,,,,,,,,,,,,,,,,172.3300941694033,None,None,1,172.3300941694033,None,,,,,,,,,,,,,,,,,,,,,,,,,,,,,,,,,,,,,,,,,,,,,,martinaR,001,c,2019_Oct_11_2258,Experimento,3.2.3,60.49692232485378,
8,14,14,999,0.5,0:10,3,Red,None,0,0,1,20:50,./completed_changuitos/montage_ztfxp_75.99_64.19.jpg,left,0,0,0,0,,,,,0,2,2,2,,,,,,,,,0,0,0,0,0,19,19,19,,,,,,,,,,,,,,,,,,,,,,,,,,,,,,,,,172.3300941694033,None,None,1,172.3300941694033,None,,,,,,,,,,,,,,,,,,,,,,,,,,,,,,,,,,,,,,,,,,,,,,martinaR,001,c,2019_Oct_11_2258,Experimento,3.2.3,60.49692232485378,
8,14,14,999,0.5,0:10,3,Magenta,['space'],0,0,1,20:50,./completed_changuitos/montage_ztfxp_75.99_64.19.jpg,left,0,0,0,0,,,,,0,2,2,2,,,,,,,,,0,0,0,0,0,20,20,20,,,,,,,,,,,,,,,,,,,,,,,,,,,,,,,,,172.3300941694033,None,None,0,172.3300941694033,None,,,,,,,,,,,,,,,,,,,,,,,,,,,,,,,,,,,,,,,,,,,,,,martinaR,001,c,2019_Oct_11_2258,Experimento,3.2.3,60.49692232485378,
8,14,14,999,0.5,0:10,3,Red,['space'],0,0,1,20:50,./completed_changuitos/montage_ztfxp_75.99_64.19.jpg,left,0,0,0,0,,,,,0,2,2,2,,,,,,,,,0,0,0,0,0,21,21,21,,,,,,,,,,,,,,,,,,,,,,,,,,,,,,,,,172.3300941694033,None,None,0,172.3300941694033,None,,,,,,,,,,,,,,,,,,,,,,,,,,,,,,,,,,,,,,,,,,,,,,martinaR,001,c,2019_Oct_11_2258,Experimento,3.2.3,60.49692232485378,
8,14,14,999,0.5,0:10,3,Yellow,None,0,0,1,20:50,./completed_changuitos/montage_ztfxp_75.99_64.19.jpg,left,0,0,0,0,,,,,0,2,2,2,,,,,,,,,0,0,0,0,0,22,22,22,,,,,,,,,,,,,,,,,,,,,,,,,,,,,,,,,172.3300941694033,None,None,1,172.3300941694033,None,,,,,,,,,,,,,,,,,,,,,,,,,,,,,,,,,,,,,,,,,,,,,,martinaR,001,c,2019_Oct_11_2258,Experimento,3.2.3,60.49692232485378,
8,14,14,999,0.5,0:10,3,Cyan,None,0,0,1,20:50,./completed_changuitos/montage_ztfxp_75.99_64.19.jpg,left,0,0,0,0,,,,,0,2,2,2,,,,,,,,,0,0,0,0,0,23,23,23,,,,,,,,,,,,,,,,,,,,,,,,,,,,,,,,,172.3300941694033,None,None,1,172.3300941694033,None,,,,,,,,,,,,,,,,,,,,,,,,,,,,,,,,,,,,,,,,,,,,,,martinaR,001,c,2019_Oct_11_2258,Experimento,3.2.3,60.49692232485378,
8,14,14,999,0.5,0:10,3,Green,None,0,0,1,20:50,./completed_changuitos/montage_ztfxp_75.99_64.19.jpg,left,0,0,0,0,,,,,0,2,2,2,,,,,,,,,0,0,0,0,0,24,24,24,,,,,,,,,,,,,,,,,,,,,,,,,,,,,,,,,172.3467068996033,None,None,1,172.3467068996033,None,,,,,,,,,,,,,,,,,,,,,,,,,,,,,,,,,,,,,,,,,,,,,,martinaR,001,c,2019_Oct_11_2258,Experimento,3.2.3,60.49692232485378,
8,14,14,999,0.5,0:10,3,White,None,0,0,1,20:50,./completed_changuitos/montage_ztfxp_75.99_64.19.jpg,left,0,0,0,0,,,,,0,2,2,2,,,,,,,,,0,0,0,0,0,25,25,25,,,,,,,,,,,,,,,,,,,,,,,,,,,,,,,,,172.3467068996033,None,None,1,172.3467068996033,None,,,,,,,,,,,,,,,,,,,,,,,,,,,,,,,,,,,,,,,,,,,,,,martinaR,001,c,2019_Oct_11_2258,Experimento,3.2.3,60.49692232485378,
8,14,14,999,0.5,0:10,3,Green,['space'],0,0,1,20:50,./completed_changuitos/montage_ztfxp_75.99_64.19.jpg,left,0,0,0,0,,,,,0,2,2,2,,,,,,,,,0,0,0,0,0,26,26,26,,,,,,,,,,,,,,,,,,,,,,,,,,,,,,,,,172.3467068996033,None,None,0,172.3467068996033,None,,,,,,,,,,,,,,,,,,,,,,,,,,,,,,,,,,,,,,,,,,,,,,martinaR,001,c,2019_Oct_11_2258,Experimento,3.2.3,60.49692232485378,
8,14,14,999,0.5,0:10,3,Red,None,0,0,1,20:50,./completed_changuitos/montage_ztfxp_75.99_64.19.jpg,left,0,0,0,0,,,,,0,2,2,2,,,,,,,,,0,0,0,0,0,27,27,27,,,,,,,,,,,,,,,,,,,,,,,,,,,,,,,,,172.3467068996033,None,None,1,172.3467068996033,None,,,,,,,,,,,,,,,,,,,,,,,,,,,,,,,,,,,,,,,,,,,,,,martinaR,001,c,2019_Oct_11_2258,Experimento,3.2.3,60.49692232485378,
8,14,14,999,0.5,0:10,3,Blue,None,0,0,1,20:50,./completed_changuitos/montage_ztfxp_75.99_64.19.jpg,left,0,0,0,0,,,,,0,2,2,2,,,,,,,,,0,0,0,0,0,28,28,28,,,,,,,,,,,,,,,,,,,,,,,,,,,,,,,,,172.3467068996033,None,None,1,172.3467068996033,None,,,,,,,,,,,,,,,,,,,,,,,,,,,,,,,,,,,,,,,,,,,,,,martinaR,001,c,2019_Oct_11_2258,Experimento,3.2.3,60.49692232485378,
8,14,14,999,0.5,0:10,3,Green,None,0,0,1,20:50,./completed_changuitos/montage_ztfxp_75.99_64.19.jpg,left,0,0,0,0,,,,,0,2,2,2,,,,,,,,,0,0,0,0,0,29,29,29,,,,,,,,,,,,,,,,,,,,,,,,,,,,,,,,,172.3467068996033,None,None,1,172.3467068996033,None,,,,,,,,,,,,,,,,,,,,,,,,,,,,,,,,,,,,,,,,,,,,,,martinaR,001,c,2019_Oct_11_2258,Experimento,3.2.3,60.49692232485378,
8,14,14,999,0.5,0:10,3,,,0,0,1,20:50,./completed_changuitos/montage_ztfxp_75.99_64.19.jpg,left,0,0,0,0,,,,,0,2,2,2,,,,,,,,,0,0,0,0,,,,,,,,,,,,,,,,,,,,,,,,,,,,,,,,,,,,,,,,,,,,172.4477440690025,None,right,0,3.2761701210038154,172.4477440690025,None,172.4477440690025,175.44744834500307,,,,,,,,,,,,,,,,,,,,,,,,,,,,,,,,,,,,martinaR,001,c,2019_Oct_11_2258,Experimento,3.2.3,60.49692232485378,
8,14,14,999,0.5,0:10,3,,,0,0,1,20:50,,,0,0,0,0,,,,,0,2,2,2,,,,,,,,,,,,,,,,,,,,,,,,,,,,,,,,,,,,,,,,,,,,,,,,,,,,,,,,,,,,,,,,,,,,,,,,,,,,,,,,,,,,,,,,,,,,,,,,,,,,martinaR,001,c,2019_Oct_11_2258,Experimento,3.2.3,60.49692232485378,
8,14,14,999,0.5,0:10,3,,,0,1,0,25:50,./completed_changuitos/montage_ynjci_109.69_124.15.jpg,right,0,0,0,0,,,,,0,3,3,3,,,,,0,0,0,0,,,,,,,,,,,,,,,,,,,,,,176.01713404300244,177.81616477100033,177.81616477100033,185.82938149000256,185.82938149000256,199.82955141000275,right,1,0.9399697350017959,199.82955141000275,None,199.82955141000275,None,199.82955141000275,None,,,,,,,,,,,,,,,,,,,,,,,,,,,,,,,,,,,,,,,,,,,,,,,,,,,,,,,,martinaR,001,c,2019_Oct_11_2258,Experimento,3.2.3,60.49692232485378,
8,14,14,999,0.5,0:10,3,,,0,1,0,25:50,,,0,0,0,0,,,,,0,3,3,3,,,,,,,,,,,,,,,,,,,,,,,,,,,,,,,,,,,,,,,,,,,,,,,,,,,,,,,,,,,,,,,,,,,,,,,,,,,,,,,,,,,,,,,,,,,,,,,,,,,,martinaR,001,c,2019_Oct_11_2258,Experimento,3.2.3,60.49692232485378,
8,14,14,999,0.5,0:10,3,,,0,1,0,10:50,./completed_changuitos/montage_afofp_147.29_127.35.jpg,left,0,0,0,0,,,,,0,4,4,4,,,,,0,0,0,0,,,,,,,,,,,,,,,,,,,,,,201.09733399299876,203.1844944379991,203.1844944379991,211.19540153600246,211.19540153600246,225.19516152299911,right,0,0.750657106997096,225.19516152299911,None,225.19516152299911,None,225.19516152299911,None,,,,,,,,,,,,,,,,,,,,,,,,,,,,,,,,,,,,,,,,,,,,,,,,,,,,,,,,martinaR,001,c,2019_Oct_11_2258,Experimento,3.2.3,60.49692232485378,
8,14,14,999,0.5,0:10,3,,,0,1,0,10:50,,,0,0,0,0,,,,,0,4,4,4,,,,,,,,,,,,,,,,,,,,,,,,,,,,,,,,,,,,,,,,,,,,,,,,,,,,,,,,,,,,,,,,,,,,,,,,,,,,,,,,,,,,,,,,,,,,,,,,,,,,martinaR,001,c,2019_Oct_11_2258,Experimento,3.2.3,60.49692232485378,
8,14,14,999,0.5,0:10,3,,,0,1,0,19:50,./completed_changuitos/montage_codgq_128.95_114.49.jpg,left,0,0,0,0,,,,,0,5,5,5,,,,,0,0,0,0,,,,,,,,,,,,,,,,,,,,,,226.27926530400146,227.38009340900317,227.38009340900317,235.39512166500208,235.39512166500208,249.3944949910001,right,0,1.0386270520029939,249.3944949910001,None,249.3944949910001,None,249.3944949910001,None,,,,,,,,,,,,,,,,,,,,,,,,,,,,,,,,,,,,,,,,,,,,,,,,,,,,,,,,martinaR,001,c,2019_Oct_11_2258,Experimento,3.2.3,60.49692232485378,
8,14,14,999,0.5,0:10,3,,,0,1,0,19:50,,,0,0,0,0,,,,,0,5,5,5,,,,,,,,,,,,,,,,,,,,,,,,,,,,,,,,,,,,,,,,,,,,,,,,,,,,,,,,,,,,,,,,,,,,,,,,,,,,,,,,,,,,,,,,,,,,,,,,,,,,martinaR,001,c,2019_Oct_11_2258,Experimento,3.2.3,60.49692232485378,
8,14,14,999,0.5,0:10,3,Red,None,0,0,1,28:50,./completed_changuitos/montage_sfryn_99.0_84.55.jpg,left,0,0,0,0,,,,,0,6,6,6,,,,,,,,,0,0,0,0,0,0,0,0,,,,,,,,,,,,,,,,,,,,,,,,,,,,,250.69553907000227,252.64542360699852,252.64542360699852,None,260.6785893060005,261.17908134400204,None,1,260.6785893060005,None,,,,,,,,,,,,,,,,,,,,,,,,,,,,,,,,,,,,,,,,,,,,,,martinaR,001,c,2019_Oct_11_2258,Experimento,3.2.3,60.49692232485378,
8,14,14,999,0.5,0:10,3,Magenta,['space'],0,0,1,28:50,./completed_changuitos/montage_sfryn_99.0_84.55.jpg,left,0,0,0,0,,,,,0,6,6,6,,,,,,,,,0,0,0,0,0,1,1,1,,,,,,,,,,,,,,,,,,,,,,,,,,,,,,,,,262.6793033100039,263.1790930790012,None,0,262.6793033100039,262.6793033100039,,,,,,,,,,,,,,,,,,,,,,,,,,,,,,,,,,,,,,,,,,,,,,martinaR,001,c,2019_Oct_11_2258,Experimento,3.2.3,60.49692232485378,
8,14,14,999,0.5,0:10,3,Green,None,0,0,1,28:50,./completed_changuitos/montage_sfryn_99.0_84.55.jpg,left,0,0,0,0,,,,,0,6,6,6,,,,,,,,,0,0,0,0,0,2,2,2,,,,,,,,,,,,,,,,,,,,,,,,,,,,,,,,,264.679110668003,265.17900834800093,None,1,264.679110668003,264.679110668003,,,,,,,,,,,,,,,,,,,,,,,,,,,,,,,,,,,,,,,,,,,,,,martinaR,001,c,2019_Oct_11_2258,Experimento,3.2.3,60.49692232485378,
8,14,14,999,0.5,0:10,3,Yellow,['space'],0,0,1,28:50,./completed_changuitos/montage_sfryn_99.0_84.55.jpg,left,0,0,0,0,,,,,0,6,6,6,,,,,,,,,0,0,0,0,0,3,3,3,,,,,,,,,,,,,,,,,,,,,,,,,,,,,,,,,266.6790677310055,267.1789741809989,None,0,266.6790677310055,266.6790677310055,,,,,,,,,,,,,,,,,,,,,,,,,,,,,,,,,,,,,,,,,,,,,,martinaR,001,c,2019_Oct_11_2258,Experimento,3.2.3,60.49692232485378,
8,14,14,999,0.5,0:10,3,Blue,None,0,0,1,28:50,./completed_changuitos/montage_sfryn_99.0_84.55.jpg,left,0,0,0,0,,,,,0,6,6,6,,,,,,,,,0,0,0,0,0,4,4,4,,,,,,,,,,,,,,,,,,,,,,,,,,,,,,,,,268.6791913060006,269.1787075930042,None,1,268.6791913060006,268.6791913060006,,,,,,,,,,,,,,,,,,,,,,,,,,,,,,,,,,,,,,,,,,,,,,martinaR,001,c,2019_Oct_11_2258,Experimento,3.2.3,60.49692232485378,
8,14,14,999,0.5,0:10,3,Cyan,None,0,0,1,28:50,./completed_changuitos/montage_sfryn_99.0_84.55.jpg,left,0,0,0,0,,,,,0,6,6,6,,,,,,,,,0,0,0,0,0,5,5,5,,,,,,,,,,,,,,,,,,,,,,,,,,,,,,,,,270.67896967400156,271.1789962460025,None,1,270.67896967400156,270.67896967400156,,,,,,,,,,,,,,,,,,,,,,,,,,,,,,,,,,,,,,,,,,,,,,martinaR,001,c,2019_Oct_11_2258,Experimento,3.2.3,60.49692232485378,
8,14,14,999,0.5,0:10,3,Blue,['space'],0,0,1,28:50,./completed_changuitos/montage_sfryn_99.0_84.55.jpg,left,0,0,0,0,,,,,0,6,6,6,,,,,,,,,0,0,0,0,0,6,6,6,,,,,,,,,,,,,,,,,,,,,,,,,,,,,,,,,272.6790163400001,273.1784671830028,['return'],0,272.6790163400001,272.6790163400001,[0.5907118920003995],,,,,,,,,,,,,,,,,,,,,,,,,,,,,,,,,,,,,,,,,,,,,martinaR,001,c,2019_Oct_11_2258,Experimento,3.2.3,60.49692232485378,
8,14,14,999,0.5,0:10,3,Yellow,None,0,0,1,28:50,./completed_changuitos/montage_sfryn_99.0_84.55.jpg,left,0,0,0,0,,,,,0,6,6,6,,,,,,,,,0,0,0,0,0,7,7,7,,,,,,,,,,,,,,,,,,,,,,,,,,,,,,,,,274.64559735920193,None,None,1,274.64559735920193,None,,,,,,,,,,,,,,,,,,,,,,,,,,,,,,,,,,,,,,,,,,,,,,martinaR,001,c,2019_Oct_11_2258,Experimento,3.2.3,60.49692232485378,
8,14,14,999,0.5,0:10,3,Cyan,None,0,0,1,28:50,./completed_changuitos/montage_sfryn_99.0_84.55.jpg,left,0,0,0,0,,,,,0,6,6,6,,,,,,,,,0,0,0,0,0,8,8,8,,,,,,,,,,,,,,,,,,,,,,,,,,,,,,,,,274.64559735920193,None,None,1,274.64559735920193,None,,,,,,,,,,,,,,,,,,,,,,,,,,,,,,,,,,,,,,,,,,,,,,martinaR,001,c,2019_Oct_11_2258,Experimento,3.2.3,60.49692232485378,
8,14,14,999,0.5,0:10,3,Yellow,['space'],0,0,1,28:50,./completed_changuitos/montage_sfryn_99.0_84.55.jpg,left,0,0,0,0,,,,,0,6,6,6,,,,,,,,,0,0,0,0,0,9,9,9,,,,,,,,,,,,,,,,,,,,,,,,,,,,,,,,,274.64559735920193,None,None,0,274.64559735920193,None,,,,,,,,,,,,,,,,,,,,,,,,,,,,,,,,,,,,,,,,,,,,,,martinaR,001,c,2019_Oct_11_2258,Experimento,3.2.3,60.49692232485378,
8,14,14,999,0.5,0:10,3,Magenta,None,0,0,1,28:50,./completed_changuitos/montage_sfryn_99.0_84.55.jpg,left,0,0,0,0,,,,,0,6,6,6,,,,,,,,,0,0,0,0,0,10,10,10,,,,,,,,,,,,,,,,,,,,,,,,,,,,,,,,,274.64559735920193,None,None,1,274.64559735920193,None,,,,,,,,,,,,,,,,,,,,,,,,,,,,,,,,,,,,,,,,,,,,,,martinaR,001,c,2019_Oct_11_2258,Experimento,3.2.3,60.49692232485378,
8,14,14,999,0.5,0:10,3,Red,None,0,0,1,28:50,./completed_changuitos/montage_sfryn_99.0_84.55.jpg,left,0,0,0,0,,,,,0,6,6,6,,,,,,,,,0,0,0,0,0,11,11,11,,,,,,,,,,,,,,,,,,,,,,,,,,,,,,,,,274.64559735920193,None,None,1,274.64559735920193,None,,,,,,,,,,,,,,,,,,,,,,,,,,,,,,,,,,,,,,,,,,,,,,martinaR,001,c,2019_Oct_11_2258,Experimento,3.2.3,60.49692232485378,
8,14,14,999,0.5,0:10,3,Magenta,['space'],0,0,1,28:50,./completed_changuitos/montage_sfryn_99.0_84.55.jpg,left,0,0,0,0,,,,,0,6,6,6,,,,,,,,,0,0,0,0,0,12,12,12,,,,,,,,,,,,,,,,,,,,,,,,,,,,,,,,,274.64559735920193,None,None,0,274.64559735920193,None,,,,,,,,,,,,,,,,,,,,,,,,,,,,,,,,,,,,,,,,,,,,,,martinaR,001,c,2019_Oct_11_2258,Experimento,3.2.3,60.49692232485378,
8,14,14,999,0.5,0:10,3,Red,['space'],0,0,1,28:50,./completed_changuitos/montage_sfryn_99.0_84.55.jpg,left,0,0,0,0,,,,,0,6,6,6,,,,,,,,,0,0,0,0,0,13,13,13,,,,,,,,,,,,,,,,,,,,,,,,,,,,,,,,,274.64559735920193,None,None,0,274.64559735920193,None,,,,,,,,,,,,,,,,,,,,,,,,,,,,,,,,,,,,,,,,,,,,,,martinaR,001,c,2019_Oct_11_2258,Experimento,3.2.3,60.49692232485378,
8,14,14,999,0.5,0:10,3,Yellow,None,0,0,1,28:50,./completed_changuitos/montage_sfryn_99.0_84.55.jpg,left,0,0,0,0,,,,,0,6,6,6,,,,,,,,,0,0,0,0,0,14,14,14,,,,,,,,,,,,,,,,,,,,,,,,,,,,,,,,,274.6622100894019,None,None,1,274.6622100894019,None,,,,,,,,,,,,,,,,,,,,,,,,,,,,,,,,,,,,,,,,,,,,,,martinaR,001,c,2019_Oct_11_2258,Experimento,3.2.3,60.49692232485378,
8,14,14,999,0.5,0:10,3,Cyan,None,0,0,1,28:50,./completed_changuitos/montage_sfryn_99.0_84.55.jpg,left,0,0,0,0,,,,,0,6,6,6,,,,,,,,,0,0,0,0,0,15,15,15,,,,,,,,,,,,,,,,,,,,,,,,,,,,,,,,,274.6622100894019,None,None,1,274.6622100894019,None,,,,,,,,,,,,,,,,,,,,,,,,,,,,,,,,,,,,,,,,,,,,,,martinaR,001,c,2019_Oct_11_2258,Experimento,3.2.3,60.49692232485378,
8,14,14,999,0.5,0:10,3,Green,None,0,0,1,28:50,./completed_changuitos/montage_sfryn_99.0_84.55.jpg,left,0,0,0,0,,,,,0,6,6,6,,,,,,,,,0,0,0,0,0,16,16,16,,,,,,,,,,,,,,,,,,,,,,,,,,,,,,,,,274.6622100894019,None,None,1,274.6622100894019,None,,,,,,,,,,,,,,,,,,,,,,,,,,,,,,,,,,,,,,,,,,,,,,martinaR,001,c,2019_Oct_11_2258,Experimento,3.2.3,60.49692232485378,
8,14,14,999,0.5,0:10,3,White,None,0,0,1,28:50,./completed_changuitos/montage_sfryn_99.0_84.55.jpg,left,0,0,0,0,,,,,0,6,6,6,,,,,,,,,0,0,0,0,0,17,17,17,,,,,,,,,,,,,,,,,,,,,,,,,,,,,,,,,274.6622100894019,None,None,1,274.6622100894019,None,,,,,,,,,,,,,,,,,,,,,,,,,,,,,,,,,,,,,,,,,,,,,,martinaR,001,c,2019_Oct_11_2258,Experimento,3.2.3,60.49692232485378,
8,14,14,999,0.5,0:10,3,Green,['space'],0,0,1,28:50,./completed_changuitos/montage_sfryn_99.0_84.55.jpg,left,0,0,0,0,,,,,0,6,6,6,,,,,,,,,0,0,0,0,0,18,18,18,,,,,,,,,,,,,,,,,,,,,,,,,,,,,,,,,274.6622100894019,None,None,0,274.6622100894019,None,,,,,,,,,,,,,,,,,,,,,,,,,,,,,,,,,,,,,,,,,,,,,,martinaR,001,c,2019_Oct_11_2258,Experimento,3.2.3,60.49692232485378,
8,14,14,999,0.5,0:10,3,Red,None,0,0,1,28:50,./completed_changuitos/montage_sfryn_99.0_84.55.jpg,left,0,0,0,0,,,,,0,6,6,6,,,,,,,,,0,0,0,0,0,19,19,19,,,,,,,,,,,,,,,,,,,,,,,,,,,,,,,,,274.6622100894019,None,None,1,274.6622100894019,None,,,,,,,,,,,,,,,,,,,,,,,,,,,,,,,,,,,,,,,,,,,,,,martinaR,001,c,2019_Oct_11_2258,Experimento,3.2.3,60.49692232485378,
8,14,14,999,0.5,0:10,3,Blue,None,0,0,1,28:50,./completed_changuitos/montage_sfryn_99.0_84.55.jpg,left,0,0,0,0,,,,,0,6,6,6,,,,,,,,,0,0,0,0,0,20,20,20,,,,,,,,,,,,,,,,,,,,,,,,,,,,,,,,,274.6622100894019,None,None,1,274.6622100894019,None,,,,,,,,,,,,,,,,,,,,,,,,,,,,,,,,,,,,,,,,,,,,,,martinaR,001,c,2019_Oct_11_2258,Experimento,3.2.3,60.49692232485378,
8,14,14,999,0.5,0:10,3,Green,None,0,0,1,28:50,./completed_changuitos/montage_sfryn_99.0_84.55.jpg,left,0,0,0,0,,,,,0,6,6,6,,,,,,,,,0,0,0,0,0,21,21,21,,,,,,,,,,,,,,,,,,,,,,,,,,,,,,,,,274.6622100894019,None,None,1,274.6622100894019,None,,,,,,,,,,,,,,,,,,,,,,,,,,,,,,,,,,,,,,,,,,,,,,martinaR,001,c,2019_Oct_11_2258,Experimento,3.2.3,60.49692232485378,
8,14,14,999,0.5,0:10,3,,,0,0,1,28:50,./completed_changuitos/montage_sfryn_99.0_84.55.jpg,left,0,0,0,0,,,,,0,6,6,6,,,,,,,,,0,0,0,0,,,,,,,,,,,,,,,,,,,,,,,,,,,,,,,,,,,,,,,,,,,,274.76263641500555,None,left,1,1.383621483000752,274.76263641500555,None,274.76263641500555,None,,,,,,,,,,,,,,,,,,,,,,,,,,,,,,,,,,,,martinaR,001,c,2019_Oct_11_2258,Experimento,3.2.3,60.49692232485378,
8,14,14,999,0.5,0:10,3,,,0,0,1,28:50,,,0,0,0,0,,,,,0,6,6,6,,,,,,,,,,,,,,,,,,,,,,,,,,,,,,,,,,,,,,,,,,,,,,,,,,,,,,,,,,,,,,,,,,,,,,,,,,,,,,,,,,,,,,,,,,,,,,,,,,,,martinaR,001,c,2019_Oct_11_2258,Experimento,3.2.3,60.49692232485378,
8,14,14,999,0.5,0:10,3,,,0,1,0,19:50,./completed_changuitos/montage_mikbz_247.99_285.89.jpg,right,0,0,0,0,,,,,0,7,7,7,,,,,0,0,0,0,,,,,,,,,,,,,,,,,,,,,,276.4472643160043,283.4321349370002,283.4321349370002,291.44437992200255,291.44437992200255,305.4442270080035,right,1,1.215426946997468,305.4442270080035,None,305.4442270080035,None,305.4442270080035,None,,,,,,,,,,,,,,,,,,,,,,,,,,,,,,,,,,,,,,,,,,,,,,,,,,,,,,,,martinaR,001,c,2019_Oct_11_2258,Experimento,3.2.3,60.49692232485378,
8,14,14,999,0.5,0:10,3,,,0,1,0,19:50,,,0,0,0,0,,,,,0,7,7,7,,,,,,,,,,,,,,,,,,,,,,,,,,,,,,,,,,,,,,,,,,,,,,,,,,,,,,,,,,,,,,,,,,,,,,,,,,,,,,,,,,,,,,,,,,,,,,,,,,,,martinaR,001,c,2019_Oct_11_2258,Experimento,3.2.3,60.49692232485378,
8,14,14,999,0.5,0:10,3,Magenta,None,0,0,1,20:50,./completed_changuitos/montage_lceqc_146.19_171.09.jpg,right,0,0,0,0,,,,,0,8,8,8,,,,,,,,,0,0,0,0,0,0,0,0,,,,,,,,,,,,,,,,,,,,,,,,,,,,,306.895335084002,308.1965551780013,308.1965551780013,None,316.2304801900027,316.74492327700136,None,1,316.2304801900027,None,,,,,,,,,,,,,,,,,,,,,,,,,,,,,,,,,,,,,,,,,,,,,,martinaR,001,c,2019_Oct_11_2258,Experimento,3.2.3,60.49692232485378,
8,14,14,999,0.5,0:10,3,Blue,['space'],0,0,1,20:50,./completed_changuitos/montage_lceqc_146.19_171.09.jpg,right,0,0,0,0,,,,,0,8,8,8,,,,,,,,,0,0,0,0,0,1,1,1,,,,,,,,,,,,,,,,,,,,,,,,,,,,,,,,,318.2453323230002,318.74490706100187,None,0,318.2453323230002,318.2453323230002,,,,,,,,,,,,,,,,,,,,,,,,,,,,,,,,,,,,,,,,,,,,,,martinaR,001,c,2019_Oct_11_2258,Experimento,3.2.3,60.49692232485378,
8,14,14,999,0.5,0:10,3,Cyan,None,0,0,1,20:50,./completed_changuitos/montage_lceqc_146.19_171.09.jpg,right,0,0,0,0,,,,,0,8,8,8,,,,,,,,,0,0,0,0,0,2,2,2,,,,,,,,,,,,,,,,,,,,,,,,,,,,,,,,,320.2451678569996,320.7449373330019,None,1,320.2451678569996,320.2451678569996,,,,,,,,,,,,,,,,,,,,,,,,,,,,,,,,,,,,,,,,,,,,,,martinaR,001,c,2019_Oct_11_2258,Experimento,3.2.3,60.49692232485378,
8,14,14,999,0.5,0:10,3,Yellow,None,0,0,1,20:50,./completed_changuitos/montage_lceqc_146.19_171.09.jpg,right,0,0,0,0,,,,,0,8,8,8,,,,,,,,,0,0,0,0,0,3,3,3,,,,,,,,,,,,,,,,,,,,,,,,,,,,,,,,,322.2452097080022,322.7616345589995,None,1,322.2452097080022,322.2452097080022,,,,,,,,,,,,,,,,,,,,,,,,,,,,,,,,,,,,,,,,,,,,,,martinaR,001,c,2019_Oct_11_2258,Experimento,3.2.3,60.49692232485378,
8,14,14,999,0.5,0:10,3,Cyan,None,0,0,1,20:50,./completed_changuitos/montage_lceqc_146.19_171.09.jpg,right,0,0,0,0,,,,,0,8,8,8,,,,,,,,,0,0,0,0,0,4,4,4,,,,,,,,,,,,,,,,,,,,,,,,,,,,,,,,,324.2452342530014,324.7449810360049,['return'],0,324.2452342530014,324.2452342530014,[0.3695418659990537],,,,,,,,,,,,,,,,,,,,,,,,,,,,,,,,,,,,,,,,,,,,,martinaR,001,c,2019_Oct_11_2258,Experimento,3.2.3,60.49692232485378,
8,14,14,999,0.5,0:10,3,Blue,None,0,0,1,20:50,./completed_changuitos/montage_lceqc_146.19_171.09.jpg,right,0,0,0,0,,,,,0,8,8,8,,,,,,,,,0,0,0,0,0,5,5,5,,,,,,,,,,,,,,,,,,,,,,,,,,,,,,,,,326.24547759300185,326.74401119300455,['return'],0,326.24547759300185,326.24547759300185,[0.657570465002209],,,,,,,,,,,,,,,,,,,,,,,,,,,,,,,,,,,,,,,,,,,,,martinaR,001,c,2019_Oct_11_2258,Experimento,3.2.3,60.49692232485378,
8,14,14,999,0.5,0:10,3,Cyan,['space'],0,0,1,20:50,./completed_changuitos/montage_lceqc_146.19_171.09.jpg,right,0,0,0,0,,,,,0,8,8,8,,,,,,,,,0,0,0,0,0,6,6,6,,,,,,,,,,,,,,,,,,,,,,,,,,,,,,,,,328.2447239910034,328.74439354600327,None,0,328.2447239910034,328.2447239910034,,,,,,,,,,,,,,,,,,,,,,,,,,,,,,,,,,,,,,,,,,,,,,martinaR,001,c,2019_Oct_11_2258,Experimento,3.2.3,60.49692232485378,
8,14,14,999,0.5,0:10,3,Magenta,None,0,0,1,20:50,./completed_changuitos/montage_lceqc_146.19_171.09.jpg,right,0,0,0,0,,,,,0,8,8,8,,,,,,,,,0,0,0,0,0,7,7,7,,,,,,,,,,,,,,,,,,,,,,,,,,,,,,,,,330.21137209520384,None,None,1,330.21137209520384,None,,,,,,,,,,,,,,,,,,,,,,,,,,,,,,,,,,,,,,,,,,,,,,martinaR,001,c,2019_Oct_11_2258,Experimento,3.2.3,60.49692232485378,
8,14,14,999,0.5,0:10,3,Red,None,0,0,1,20:50,./completed_changuitos/montage_lceqc_146.19_171.09.jpg,right,0,0,0,0,,,,,0,8,8,8,,,,,,,,,0,0,0,0,0,8,8,8,,,,,,,,,,,,,,,,,,,,,,,,,,,,,,,,,330.21137209520384,None,None,1,330.21137209520384,None,,,,,,,,,,,,,,,,,,,,,,,,,,,,,,,,,,,,,,,,,,,,,,martinaR,001,c,2019_Oct_11_2258,Experimento,3.2.3,60.49692232485378,
8,14,14,999,0.5,0:10,3,Magenta,['space'],0,0,1,20:50,./completed_changuitos/montage_lceqc_146.19_171.09.jpg,right,0,0,0,0,,,,,0,8,8,8,,,,,,,,,0,0,0,0,0,9,9,9,,,,,,,,,,,,,,,,,,,,,,,,,,,,,,,,,330.21137209520384,None,None,0,330.21137209520384,None,,,,,,,,,,,,,,,,,,,,,,,,,,,,,,,,,,,,,,,,,,,,,,martinaR,001,c,2019_Oct_11_2258,Experimento,3.2.3,60.49692232485378,
8,14,14,999,0.5,0:10,3,Green,None,0,0,1,20:50,./completed_changuitos/montage_lceqc_146.19_171.09.jpg,right,0,0,0,0,,,,,0,8,8,8,,,,,,,,,0,0,0,0,0,10,10,10,,,,,,,,,,,,,,,,,,,,,,,,,,,,,,,,,330.21137209520384,None,None,1,330.21137209520384,None,,,,,,,,,,,,,,,,,,,,,,,,,,,,,,,,,,,,,,,,,,,,,,martinaR,001,c,2019_Oct_11_2258,Experimento,3.2.3,60.49692232485378,
8,14,14,999,0.5,0:10,3,Yellow,['space'],0,0,1,20:50,./completed_changuitos/montage_lceqc_146.19_171.09.jpg,right,0,0,0,0,,,,,0,8,8,8,,,,,,,,,0,0,0,0,0,11,11,11,,,,,,,,,,,,,,,,,,,,,,,,,,,,,,,,,330.21137209520384,None,None,0,330.21137209520384,None,,,,,,,,,,,,,,,,,,,,,,,,,,,,,,,,,,,,,,,,,,,,,,martinaR,001,c,2019_Oct_11_2258,Experimento,3.2.3,60.49692232485378,
8,14,14,999,0.5,0:10,3,Blue,None,0,0,1,20:50,./completed_changuitos/montage_lceqc_146.19_171.09.jpg,right,0,0,0,0,,,,,0,8,8,8,,,,,,,,,0,0,0,0,0,12,12,12,,,,,,,,,,,,,,,,,,,,,,,,,,,,,,,,,330.21137209520384,None,None,1,330.21137209520384,None,,,,,,,,,,,,,,,,,,,,,,,,,,,,,,,,,,,,,,,,,,,,,,martinaR,001,c,2019_Oct_11_2258,Experimento,3.2.3,60.49692232485378,
8,14,14,999,0.5,0:10,3,Cyan,None,0,0,1,20:50,./completed_changuitos/montage_lceqc_146.19_171.09.jpg,right,0,0,0,0,,,,,0,8,8,8,,,,,,,,,0,0,0,0,0,13,13,13,,,,,,,,,,,,,,,,,,,,,,,,,,,,,,,,,330.21137209520384,None,None,1,330.21137209520384,None,,,,,,,,,,,,,,,,,,,,,,,,,,,,,,,,,,,,,,,,,,,,,,martinaR,001,c,2019_Oct_11_2258,Experimento,3.2.3,60.49692232485378,
8,14,14,999,0.5,0:10,3,Blue,['space'],0,0,1,20:50,./completed_changuitos/montage_lceqc_146.19_171.09.jpg,right,0,0,0,0,,,,,0,8,8,8,,,,,,,,,0,0,0,0,0,14,14,14,,,,,,,,,,,,,,,,,,,,,,,,,,,,,,,,,330.22798482540384,None,None,0,330.22798482540384,None,,,,,,,,,,,,,,,,,,,,,,,,,,,,,,,,,,,,,,,,,,,,,,martinaR,001,c,2019_Oct_11_2258,Experimento,3.2.3,60.49692232485378,
8,14,14,999,0.5,0:10,3,Yellow,None,0,0,1,20:50,./completed_changuitos/montage_lceqc_146.19_171.09.jpg,right,0,0,0,0,,,,,0,8,8,8,,,,,,,,,0,0,0,0,0,15,15,15,,,,,,,,,,,,,,,,,,,,,,,,,,,,,,,,,330.22798482540384,None,None,1,330.22798482540384,None,,,,,,,,,,,,,,,,,,,,,,,,,,,,,,,,,,,,,,,,,,,,,,martinaR,001,c,2019_Oct_11_2258,Experimento,3.2.3,60.49692232485378,
8,14,14,999,0.5,0:10,3,Cyan,None,0,0,1,20:50,./completed_changuitos/montage_lceqc_146.19_171.09.jpg,right,0,0,0,0,,,,,0,8,8,8,,,,,,,,,0,0,0,0,0,16,16,16,,,,,,,,,,,,,,,,,,,,,,,,,,,,,,,,,330.22798482540384,None,None,1,330.22798482540384,None,,,,,,,,,,,,,,,,,,,,,,,,,,,,,,,,,,,,,,,,,,,,,,martinaR,001,c,2019_Oct_11_2258,Experimento,3.2.3,60.49692232485378,
8,14,14,999,0.5,0:10,3,Yellow,['space'],0,0,1,20:50,./completed_changuitos/montage_lceqc_146.19_171.09.jpg,right,0,0,0,0,,,,,0,8,8,8,,,,,,,,,0,0,0,0,0,17,17,17,,,,,,,,,,,,,,,,,,,,,,,,,,,,,,,,,330.22798482540384,None,None,0,330.22798482540384,None,,,,,,,,,,,,,,,,,,,,,,,,,,,,,,,,,,,,,,,,,,,,,,martinaR,001,c,2019_Oct_11_2258,Experimento,3.2.3,60.49692232485378,
8,14,14,999,0.5,0:10,3,Magenta,None,0,0,1,20:50,./completed_changuitos/montage_lceqc_146.19_171.09.jpg,right,0,0,0,0,,,,,0,8,8,8,,,,,,,,,0,0,0,0,0,18,18,18,,,,,,,,,,,,,,,,,,,,,,,,,,,,,,,,,330.22798482540384,None,None,1,330.22798482540384,None,,,,,,,,,,,,,,,,,,,,,,,,,,,,,,,,,,,,,,,,,,,,,,martinaR,001,c,2019_Oct_11_2258,Experimento,3.2.3,60.49692232485378,
8,14,14,999,0.5,0:10,3,Red,None,0,0,1,20:50,./completed_changuitos/montage_lceqc_146.19_171.09.jpg,right,0,0,0,0,,,,,0,8,8,8,,,,,,,,,0,0,0,0,0,19,19,19,,,,,,,,,,,,,,,,,,,,,,,,,,,,,,,,,330.22798482540384,None,None,1,330.22798482540384,None,,,,,,,,,,,,,,,,,,,,,,,,,,,,,,,,,,,,,,,,,,,,,,martinaR,001,c,2019_Oct_11_2258,Experimento,3.2.3,60.49692232485378,
8,14,14,999,0.5,0:10,3,Magenta,['space'],0,0,1,20:50,./completed_changuitos/montage_lceqc_146.19_171.09.jpg,right,0,0,0,0,,,,,0,8,8,8,,,,,,,,,0,0,0,0,0,20,20,20,,,,,,,,,,,,,,,,,,,,,,,,,,,,,,,,,330.22798482540384,None,None,0,330.22798482540384,None,,,,,,,,,,,,,,,,,,,,,,,,,,,,,,,,,,,,,,,,,,,,,,martinaR,001,c,2019_Oct_11_2258,Experimento,3.2.3,60.49692232485378,
8,14,14,999,0.5,0:10,3,Red,['space'],0,0,1,20:50,./completed_changuitos/montage_lceqc_146.19_171.09.jpg,right,0,0,0,0,,,,,0,8,8,8,,,,,,,,,0,0,0,0,0,21,21,21,,,,,,,,,,,,,,,,,,,,,,,,,,,,,,,,,330.22798482540384,None,None,0,330.22798482540384,None,,,,,,,,,,,,,,,,,,,,,,,,,,,,,,,,,,,,,,,,,,,,,,martinaR,001,c,2019_Oct_11_2258,Experimento,3.2.3,60.49692232485378,
8,14,14,999,0.5,0:10,3,Yellow,None,0,0,1,20:50,./completed_changuitos/montage_lceqc_146.19_171.09.jpg,right,0,0,0,0,,,,,0,8,8,8,,,,,,,,,0,0,0,0,0,22,22,22,,,,,,,,,,,,,,,,,,,,,,,,,,,,,,,,,330.22798482540384,None,None,1,330.22798482540384,None,,,,,,,,,,,,,,,,,,,,,,,,,,,,,,,,,,,,,,,,,,,,,,martinaR,001,c,2019_Oct_11_2258,Experimento,3.2.3,60.49692232485378,
8,14,14,999,0.5,0:10,3,Cyan,None,0,0,1,20:50,./completed_changuitos/montage_lceqc_146.19_171.09.jpg,right,0,0,0,0,,,,,0,8,8,8,,,,,,,,,0,0,0,0,0,23,23,23,,,,,,,,,,,,,,,,,,,,,,,,,,,,,,,,,330.22798482540384,None,None,1,330.22798482540384,None,,,,,,,,,,,,,,,,,,,,,,,,,,,,,,,,,,,,,,,,,,,,,,martinaR,001,c,2019_Oct_11_2258,Experimento,3.2.3,60.49692232485378,
8,14,14,999,0.5,0:10,3,Green,None,0,0,1,20:50,./completed_changuitos/montage_lceqc_146.19_171.09.jpg,right,0,0,0,0,,,,,0,8,8,8,,,,,,,,,0,0,0,0,0,24,24,24,,,,,,,,,,,,,,,,,,,,,,,,,,,,,,,,,330.22798482540384,None,None,1,330.22798482540384,None,,,,,,,,,,,,,,,,,,,,,,,,,,,,,,,,,,,,,,,,,,,,,,martinaR,001,c,2019_Oct_11_2258,Experimento,3.2.3,60.49692232485378,
8,14,14,999,0.5,0:10,3,White,None,0,0,1,20:50,./completed_changuitos/montage_lceqc_146.19_171.09.jpg,right,0,0,0,0,,,,,0,8,8,8,,,,,,,,,0,0,0,0,0,25,25,25,,,,,,,,,,,,,,,,,,,,,,,,,,,,,,,,,330.24459755560383,None,None,1,330.24459755560383,None,,,,,,,,,,,,,,,,,,,,,,,,,,,,,,,,,,,,,,,,,,,,,,martinaR,001,c,2019_Oct_11_2258,Experimento,3.2.3,60.49692232485378,
8,14,14,999,0.5,0:10,3,Green,['space'],0,0,1,20:50,./completed_changuitos/montage_lceqc_146.19_171.09.jpg,right,0,0,0,0,,,,,0,8,8,8,,,,,,,,,0,0,0,0,0,26,26,26,,,,,,,,,,,,,,,,,,,,,,,,,,,,,,,,,330.24459755560383,None,None,0,330.24459755560383,None,,,,,,,,,,,,,,,,,,,,,,,,,,,,,,,,,,,,,,,,,,,,,,martinaR,001,c,2019_Oct_11_2258,Experimento,3.2.3,60.49692232485378,
8,14,14,999,0.5,0:10,3,Red,None,0,0,1,20:50,./completed_changuitos/montage_lceqc_146.19_171.09.jpg,right,0,0,0,0,,,,,0,8,8,8,,,,,,,,,0,0,0,0,0,27,27,27,,,,,,,,,,,,,,,,,,,,,,,,,,,,,,,,,330.24459755560383,None,None,1,330.24459755560383,None,,,,,,,,,,,,,,,,,,,,,,,,,,,,,,,,,,,,,,,,,,,,,,martinaR,001,c,2019_Oct_11_2258,Experimento,3.2.3,60.49692232485378,
8,14,14,999,0.5,0:10,3,Blue,None,0,0,1,20:50,./completed_changuitos/montage_lceqc_146.19_171.09.jpg,right,0,0,0,0,,,,,0,8,8,8,,,,,,,,,0,0,0,0,0,28,28,28,,,,,,,,,,,,,,,,,,,,,,,,,,,,,,,,,330.24459755560383,None,None,1,330.24459755560383,None,,,,,,,,,,,,,,,,,,,,,,,,,,,,,,,,,,,,,,,,,,,,,,martinaR,001,c,2019_Oct_11_2258,Experimento,3.2.3,60.49692232485378,
8,14,14,999,0.5,0:10,3,Green,None,0,0,1,20:50,./completed_changuitos/montage_lceqc_146.19_171.09.jpg,right,0,0,0,0,,,,,0,8,8,8,,,,,,,,,0,0,0,0,0,29,29,29,,,,,,,,,,,,,,,,,,,,,,,,,,,,,,,,,330.24459755560383,None,None,1,330.24459755560383,None,,,,,,,,,,,,,,,,,,,,,,,,,,,,,,,,,,,,,,,,,,,,,,martinaR,001,c,2019_Oct_11_2258,Experimento,3.2.3,60.49692232485378,
8,14,14,999,0.5,0:10,3,,,0,0,1,20:50,./completed_changuitos/montage_lceqc_146.19_171.09.jpg,right,0,0,0,0,,,,,0,8,8,8,,,,,,,,,0,0,0,0,,,,,,,,,,,,,,,,,,,,,,,,,,,,,,,,,,,,,,,,,,,,330.3453084740031,None,left,0,1.713595554996573,330.3453084740031,None,330.3453084740031,None,,,,,,,,,,,,,,,,,,,,,,,,,,,,,,,,,,,,martinaR,001,c,2019_Oct_11_2258,Experimento,3.2.3,60.49692232485378,
8,14,14,999,0.5,0:10,3,,,0,0,1,20:50,,,0,0,0,0,,,,,0,8,8,8,,,,,,,,,,,,,,,,,,,,,,,,,,,,,,,,,,,,,,,,,,,,,,,,,,,,,,,,,,,,,,,,,,,,,,,,,,,,,,,,,,,,,,,,,,,,,,,,,,,,martinaR,001,c,2019_Oct_11_2258,Experimento,3.2.3,60.49692232485378,
8,14,14,999,0.5,0:10,3,Yellow,None,0,0,1,15:50,./completed_changuitos/montage_upbtt_46.0_40.55.jpg,left,0,0,0,0,,,,,0,9,9,9,,,,,,,,,0,0,0,0,0,0,0,0,,,,,,,,,,,,,,,,,,,,,,,,,,,,,332.27908417599974,333.6643319499999,333.6643319499999,None,341.7106004810048,342.21076286300377,None,1,341.7106004810048,None,,,,,,,,,,,,,,,,,,,,,,,,,,,,,,,,,,,,,,,,,,,,,,martinaR,001,c,2019_Oct_11_2258,Experimento,3.2.3,60.49692232485378,
8,14,14,999,0.5,0:10,3,White,['space'],0,0,1,15:50,./completed_changuitos/montage_upbtt_46.0_40.55.jpg,left,0,0,0,0,,,,,0,9,9,9,,,,,,,,,0,0,0,0,0,1,1,1,,,,,,,,,,,,,,,,,,,,,,,,,,,,,,,,,343.7111898130024,344.21079828200163,None,0,343.7111898130024,343.7111898130024,,,,,,,,,,,,,,,,,,,,,,,,,,,,,,,,,,,,,,,,,,,,,,martinaR,001,c,2019_Oct_11_2258,Experimento,3.2.3,60.49692232485378,
8,14,14,999,0.5,0:10,3,Magenta,None,0,0,1,15:50,./completed_changuitos/montage_upbtt_46.0_40.55.jpg,left,0,0,0,0,,,,,0,9,9,9,,,,,,,,,0,0,0,0,0,2,2,2,,,,,,,,,,,,,,,,,,,,,,,,,,,,,,,,,345.71068934399955,346.2100047720014,None,1,345.71068934399955,345.71068934399955,,,,,,,,,,,,,,,,,,,,,,,,,,,,,,,,,,,,,,,,,,,,,,martinaR,001,c,2019_Oct_11_2258,Experimento,3.2.3,60.49692232485378,
8,14,14,999,0.5,0:10,3,Cyan,None,0,0,1,15:50,./completed_changuitos/montage_upbtt_46.0_40.55.jpg,left,0,0,0,0,,,,,0,9,9,9,,,,,,,,,0,0,0,0,0,3,3,3,,,,,,,,,,,,,,,,,,,,,,,,,,,,,,,,,347.71034673599934,348.21067622800183,None,1,347.71034673599934,347.71034673599934,,,,,,,,,,,,,,,,,,,,,,,,,,,,,,,,,,,,,,,,,,,,,,martinaR,001,c,2019_Oct_11_2258,Experimento,3.2.3,60.49692232485378,
8,14,14,999,0.5,0:10,3,Blue,None,0,0,1,15:50,./completed_changuitos/montage_upbtt_46.0_40.55.jpg,left,0,0,0,0,,,,,0,9,9,9,,,,,,,,,0,0,0,0,0,4,4,4,,,,,,,,,,,,,,,,,,,,,,,,,,,,,,,,,349.7102831400043,350.21053437400406,None,1,349.7102831400043,349.7102831400043,,,,,,,,,,,,,,,,,,,,,,,,,,,,,,,,,,,,,,,,,,,,,,martinaR,001,c,2019_Oct_11_2258,Experimento,3.2.3,60.49692232485378,
8,14,14,999,0.5,0:10,3,Magenta,None,0,0,1,15:50,./completed_changuitos/montage_upbtt_46.0_40.55.jpg,left,0,0,0,0,,,,,0,9,9,9,,,,,,,,,0,0,0,0,0,5,5,5,,,,,,,,,,,,,,,,,,,,,,,,,,,,,,,,,351.7107075390013,352.2108144830054,None,1,351.7107075390013,351.7107075390013,,,,,,,,,,,,,,,,,,,,,,,,,,,,,,,,,,,,,,,,,,,,,,martinaR,001,c,2019_Oct_11_2258,Experimento,3.2.3,60.49692232485378,
8,14,14,999,0.5,0:10,3,Blue,['space'],0,0,1,15:50,./completed_changuitos/montage_upbtt_46.0_40.55.jpg,left,0,0,0,0,,,,,0,9,9,9,,,,,,,,,0,0,0,0,0,6,6,6,,,,,,,,,,,,,,,,,,,,,,,,,,,,,,,,,353.7102612160015,354.21071849400323,['return'],0,353.7102612160015,353.7102612160015,[0.4924430419996497],,,,,,,,,,,,,,,,,,,,,,,,,,,,,,,,,,,,,,,,,,,,,martinaR,001,c,2019_Oct_11_2258,Experimento,3.2.3,60.49692232485378,
8,14,14,999,0.5,0:10,3,Cyan,None,0,0,1,15:50,./completed_changuitos/montage_upbtt_46.0_40.55.jpg,left,0,0,0,0,,,,,0,9,9,9,,,,,,,,,0,0,0,0,0,7,7,7,,,,,,,,,,,,,,,,,,,,,,,,,,,,,,,,,355.6772149112003,None,None,1,355.6772149112003,None,,,,,,,,,,,,,,,,,,,,,,,,,,,,,,,,,,,,,,,,,,,,,,martinaR,001,c,2019_Oct_11_2258,Experimento,3.2.3,60.49692232485378,
8,14,14,999,0.5,0:10,3,Yellow,None,0,0,1,15:50,./completed_changuitos/montage_upbtt_46.0_40.55.jpg,left,0,0,0,0,,,,,0,9,9,9,,,,,,,,,0,0,0,0,0,8,8,8,,,,,,,,,,,,,,,,,,,,,,,,,,,,,,,,,355.6772149112003,None,None,1,355.6772149112003,None,,,,,,,,,,,,,,,,,,,,,,,,,,,,,,,,,,,,,,,,,,,,,,martinaR,001,c,2019_Oct_11_2258,Experimento,3.2.3,60.49692232485378,
8,14,14,999,0.5,0:10,3,Cyan,None,0,0,1,15:50,./completed_changuitos/montage_upbtt_46.0_40.55.jpg,left,0,0,0,0,,,,,0,9,9,9,,,,,,,,,0,0,0,0,0,9,9,9,,,,,,,,,,,,,,,,,,,,,,,,,,,,,,,,,355.6772149112003,None,None,1,355.6772149112003,None,,,,,,,,,,,,,,,,,,,,,,,,,,,,,,,,,,,,,,,,,,,,,,martinaR,001,c,2019_Oct_11_2258,Experimento,3.2.3,60.49692232485378,
8,14,14,999,0.5,0:10,3,Blue,None,0,0,1,15:50,./completed_changuitos/montage_upbtt_46.0_40.55.jpg,left,0,0,0,0,,,,,0,9,9,9,,,,,,,,,0,0,0,0,0,10,10,10,,,,,,,,,,,,,,,,,,,,,,,,,,,,,,,,,355.6772149112003,None,None,1,355.6772149112003,None,,,,,,,,,,,,,,,,,,,,,,,,,,,,,,,,,,,,,,,,,,,,,,martinaR,001,c,2019_Oct_11_2258,Experimento,3.2.3,60.49692232485378,
8,14,14,999,0.5,0:10,3,Cyan,['space'],0,0,1,15:50,./completed_changuitos/montage_upbtt_46.0_40.55.jpg,left,0,0,0,0,,,,,0,9,9,9,,,,,,,,,0,0,0,0,0,11,11,11,,,,,,,,,,,,,,,,,,,,,,,,,,,,,,,,,355.6772149112003,None,None,0,355.6772149112003,None,,,,,,,,,,,,,,,,,,,,,,,,,,,,,,,,,,,,,,,,,,,,,,martinaR,001,c,2019_Oct_11_2258,Experimento,3.2.3,60.49692232485378,
8,14,14,999,0.5,0:10,3,Magenta,None,0,0,1,15:50,./completed_changuitos/montage_upbtt_46.0_40.55.jpg,left,0,0,0,0,,,,,0,9,9,9,,,,,,,,,0,0,0,0,0,12,12,12,,,,,,,,,,,,,,,,,,,,,,,,,,,,,,,,,355.6772149112003,None,None,1,355.6772149112003,None,,,,,,,,,,,,,,,,,,,,,,,,,,,,,,,,,,,,,,,,,,,,,,martinaR,001,c,2019_Oct_11_2258,Experimento,3.2.3,60.49692232485378,
8,14,14,999,0.5,0:10,3,Red,None,0,0,1,15:50,./completed_changuitos/montage_upbtt_46.0_40.55.jpg,left,0,0,0,0,,,,,0,9,9,9,,,,,,,,,0,0,0,0,0,13,13,13,,,,,,,,,,,,,,,,,,,,,,,,,,,,,,,,,355.6772149112003,None,None,1,355.6772149112003,None,,,,,,,,,,,,,,,,,,,,,,,,,,,,,,,,,,,,,,,,,,,,,,martinaR,001,c,2019_Oct_11_2258,Experimento,3.2.3,60.49692232485378,
8,14,14,999,0.5,0:10,3,Magenta,['space'],0,0,1,15:50,./completed_changuitos/montage_upbtt_46.0_40.55.jpg,left,0,0,0,0,,,,,0,9,9,9,,,,,,,,,0,0,0,0,0,14,14,14,,,,,,,,,,,,,,,,,,,,,,,,,,,,,,,,,355.6938276414003,None,None,0,355.6938276414003,None,,,,,,,,,,,,,,,,,,,,,,,,,,,,,,,,,,,,,,,,,,,,,,martinaR,001,c,2019_Oct_11_2258,Experimento,3.2.3,60.49692232485378,
8,14,14,999,0.5,0:10,3,Green,None,0,0,1,15:50,./completed_changuitos/montage_upbtt_46.0_40.55.jpg,left,0,0,0,0,,,,,0,9,9,9,,,,,,,,,0,0,0,0,0,15,15,15,,,,,,,,,,,,,,,,,,,,,,,,,,,,,,,,,355.6938276414003,None,None,1,355.6938276414003,None,,,,,,,,,,,,,,,,,,,,,,,,,,,,,,,,,,,,,,,,,,,,,,martinaR,001,c,2019_Oct_11_2258,Experimento,3.2.3,60.49692232485378,
8,14,14,999,0.5,0:10,3,Yellow,['space'],0,0,1,15:50,./completed_changuitos/montage_upbtt_46.0_40.55.jpg,left,0,0,0,0,,,,,0,9,9,9,,,,,,,,,0,0,0,0,0,16,16,16,,,,,,,,,,,,,,,,,,,,,,,,,,,,,,,,,355.6938276414003,None,None,0,355.6938276414003,None,,,,,,,,,,,,,,,,,,,,,,,,,,,,,,,,,,,,,,,,,,,,,,martinaR,001,c,2019_Oct_11_2258,Experimento,3.2.3,60.49692232485378,
8,14,14,999,0.5,0:10,3,Blue,None,0,0,1,15:50,./completed_changuitos/montage_upbtt_46.0_40.55.jpg,left,0,0,0,0,,,,,0,9,9,9,,,,,,,,,0,0,0,0,0,17,17,17,,,,,,,,,,,,,,,,,,,,,,,,,,,,,,,,,355.6938276414003,None,None,1,355.6938276414003,None,,,,,,,,,,,,,,,,,,,,,,,,,,,,,,,,,,,,,,,,,,,,,,martinaR,001,c,2019_Oct_11_2258,Experimento,3.2.3,60.49692232485378,
8,14,14,999,0.5,0:10,3,Cyan,None,0,0,1,15:50,./completed_changuitos/montage_upbtt_46.0_40.55.jpg,left,0,0,0,0,,,,,0,9,9,9,,,,,,,,,0,0,0,0,0,18,18,18,,,,,,,,,,,,,,,,,,,,,,,,,,,,,,,,,355.6938276414003,None,None,1,355.6938276414003,None,,,,,,,,,,,,,,,,,,,,,,,,,,,,,,,,,,,,,,,,,,,,,,martinaR,001,c,2019_Oct_11_2258,Experimento,3.2.3,60.49692232485378,
8,14,14,999,0.5,0:10,3,Blue,['space'],0,0,1,15:50,./completed_changuitos/montage_upbtt_46.0_40.55.jpg,left,0,0,0,0,,,,,0,9,9,9,,,,,,,,,0,0,0,0,0,19,19,19,,,,,,,,,,,,,,,,,,,,,,,,,,,,,,,,,355.6938276414003,None,None,0,355.6938276414003,None,,,,,,,,,,,,,,,,,,,,,,,,,,,,,,,,,,,,,,,,,,,,,,martinaR,001,c,2019_Oct_11_2258,Experimento,3.2.3,60.49692232485378,
8,14,14,999,0.5,0:10,3,Yellow,None,0,0,1,15:50,./completed_changuitos/montage_upbtt_46.0_40.55.jpg,left,0,0,0,0,,,,,0,9,9,9,,,,,,,,,0,0,0,0,0,20,20,20,,,,,,,,,,,,,,,,,,,,,,,,,,,,,,,,,355.6938276414003,None,None,1,355.6938276414003,None,,,,,,,,,,,,,,,,,,,,,,,,,,,,,,,,,,,,,,,,,,,,,,martinaR,001,c,2019_Oct_11_2258,Experimento,3.2.3,60.49692232485378,
8,14,14,999,0.5,0:10,3,Cyan,None,0,0,1,15:50,./completed_changuitos/montage_upbtt_46.0_40.55.jpg,left,0,0,0,0,,,,,0,9,9,9,,,,,,,,,0,0,0,0,0,21,21,21,,,,,,,,,,,,,,,,,,,,,,,,,,,,,,,,,355.6938276414003,None,None,1,355.6938276414003,None,,,,,,,,,,,,,,,,,,,,,,,,,,,,,,,,,,,,,,,,,,,,,,martinaR,001,c,2019_Oct_11_2258,Experimento,3.2.3,60.49692232485378,
8,14,14,999,0.5,0:10,3,Yellow,['space'],0,0,1,15:50,./completed_changuitos/montage_upbtt_46.0_40.55.jpg,left,0,0,0,0,,,,,0,9,9,9,,,,,,,,,0,0,0,0,0,22,22,22,,,,,,,,,,,,,,,,,,,,,,,,,,,,,,,,,355.6938276414003,None,None,0,355.6938276414003,None,,,,,,,,,,,,,,,,,,,,,,,,,,,,,,,,,,,,,,,,,,,,,,martinaR,001,c,2019_Oct_11_2258,Experimento,3.2.3,60.49692232485378,
8,14,14,999,0.5,0:10,3,Magenta,None,0,0,1,15:50,./completed_changuitos/montage_upbtt_46.0_40.55.jpg,left,0,0,0,0,,,,,0,9,9,9,,,,,,,,,0,0,0,0,0,23,23,23,,,,,,,,,,,,,,,,,,,,,,,,,,,,,,,,,355.6938276414003,None,None,1,355.6938276414003,None,,,,,,,,,,,,,,,,,,,,,,,,,,,,,,,,,,,,,,,,,,,,,,martinaR,001,c,2019_Oct_11_2258,Experimento,3.2.3,60.49692232485378,
8,14,14,999,0.5,0:10,3,Red,None,0,0,1,15:50,./completed_changuitos/montage_upbtt_46.0_40.55.jpg,left,0,0,0,0,,,,,0,9,9,9,,,,,,,,,0,0,0,0,0,24,24,24,,,,,,,,,,,,,,,,,,,,,,,,,,,,,,,,,355.6938276414003,None,None,1,355.6938276414003,None,,,,,,,,,,,,,,,,,,,,,,,,,,,,,,,,,,,,,,,,,,,,,,martinaR,001,c,2019_Oct_11_2258,Experimento,3.2.3,60.49692232485378,
8,14,14,999,0.5,0:10,3,Magenta,['space'],0,0,1,15:50,./completed_changuitos/montage_upbtt_46.0_40.55.jpg,left,0,0,0,0,,,,,0,9,9,9,,,,,,,,,0,0,0,0,0,25,25,25,,,,,,,,,,,,,,,,,,,,,,,,,,,,,,,,,355.71044037160027,None,None,0,355.71044037160027,None,,,,,,,,,,,,,,,,,,,,,,,,,,,,,,,,,,,,,,,,,,,,,,martinaR,001,c,2019_Oct_11_2258,Experimento,3.2.3,60.49692232485378,
8,14,14,999,0.5,0:10,3,Red,['space'],0,0,1,15:50,./completed_changuitos/montage_upbtt_46.0_40.55.jpg,left,0,0,0,0,,,,,0,9,9,9,,,,,,,,,0,0,0,0,0,26,26,26,,,,,,,,,,,,,,,,,,,,,,,,,,,,,,,,,355.71044037160027,None,None,0,355.71044037160027,None,,,,,,,,,,,,,,,,,,,,,,,,,,,,,,,,,,,,,,,,,,,,,,martinaR,001,c,2019_Oct_11_2258,Experimento,3.2.3,60.49692232485378,
8,14,14,999,0.5,0:10,3,Yellow,None,0,0,1,15:50,./completed_changuitos/montage_upbtt_46.0_40.55.jpg,left,0,0,0,0,,,,,0,9,9,9,,,,,,,,,0,0,0,0,0,27,27,27,,,,,,,,,,,,,,,,,,,,,,,,,,,,,,,,,355.71044037160027,None,None,1,355.71044037160027,None,,,,,,,,,,,,,,,,,,,,,,,,,,,,,,,,,,,,,,,,,,,,,,martinaR,001,c,2019_Oct_11_2258,Experimento,3.2.3,60.49692232485378,
8,14,14,999,0.5,0:10,3,Cyan,None,0,0,1,15:50,./completed_changuitos/montage_upbtt_46.0_40.55.jpg,left,0,0,0,0,,,,,0,9,9,9,,,,,,,,,0,0,0,0,0,28,28,28,,,,,,,,,,,,,,,,,,,,,,,,,,,,,,,,,355.71044037160027,None,None,1,355.71044037160027,None,,,,,,,,,,,,,,,,,,,,,,,,,,,,,,,,,,,,,,,,,,,,,,martinaR,001,c,2019_Oct_11_2258,Experimento,3.2.3,60.49692232485378,
8,14,14,999,0.5,0:10,3,Green,None,0,0,1,15:50,./completed_changuitos/montage_upbtt_46.0_40.55.jpg,left,0,0,0,0,,,,,0,9,9,9,,,,,,,,,0,0,0,0,0,29,29,29,,,,,,,,,,,,,,,,,,,,,,,,,,,,,,,,,355.71044037160027,None,None,1,355.71044037160027,None,,,,,,,,,,,,,,,,,,,,,,,,,,,,,,,,,,,,,,,,,,,,,,martinaR,001,c,2019_Oct_11_2258,Experimento,3.2.3,60.49692232485378,
8,14,14,999,0.5,0:10,3,White,None,0,0,1,15:50,./completed_changuitos/montage_upbtt_46.0_40.55.jpg,left,0,0,0,0,,,,,0,9,9,9,,,,,,,,,0,0,0,0,0,30,30,30,,,,,,,,,,,,,,,,,,,,,,,,,,,,,,,,,355.71044037160027,None,None,1,355.71044037160027,None,,,,,,,,,,,,,,,,,,,,,,,,,,,,,,,,,,,,,,,,,,,,,,martinaR,001,c,2019_Oct_11_2258,Experimento,3.2.3,60.49692232485378,
8,14,14,999,0.5,0:10,3,Green,['space'],0,0,1,15:50,./completed_changuitos/montage_upbtt_46.0_40.55.jpg,left,0,0,0,0,,,,,0,9,9,9,,,,,,,,,0,0,0,0,0,31,31,31,,,,,,,,,,,,,,,,,,,,,,,,,,,,,,,,,355.71044037160027,None,None,0,355.71044037160027,None,,,,,,,,,,,,,,,,,,,,,,,,,,,,,,,,,,,,,,,,,,,,,,martinaR,001,c,2019_Oct_11_2258,Experimento,3.2.3,60.49692232485378,
8,14,14,999,0.5,0:10,3,Red,None,0,0,1,15:50,./completed_changuitos/montage_upbtt_46.0_40.55.jpg,left,0,0,0,0,,,,,0,9,9,9,,,,,,,,,0,0,0,0,0,32,32,32,,,,,,,,,,,,,,,,,,,,,,,,,,,,,,,,,355.71044037160027,None,None,1,355.71044037160027,None,,,,,,,,,,,,,,,,,,,,,,,,,,,,,,,,,,,,,,,,,,,,,,martinaR,001,c,2019_Oct_11_2258,Experimento,3.2.3,60.49692232485378,
8,14,14,999,0.5,0:10,3,Blue,None,0,0,1,15:50,./completed_changuitos/montage_upbtt_46.0_40.55.jpg,left,0,0,0,0,,,,,0,9,9,9,,,,,,,,,0,0,0,0,0,33,33,33,,,,,,,,,,,,,,,,,,,,,,,,,,,,,,,,,355.71044037160027,None,None,1,355.71044037160027,None,,,,,,,,,,,,,,,,,,,,,,,,,,,,,,,,,,,,,,,,,,,,,,martinaR,001,c,2019_Oct_11_2258,Experimento,3.2.3,60.49692232485378,
8,14,14,999,0.5,0:10,3,Green,None,0,0,1,15:50,./completed_changuitos/montage_upbtt_46.0_40.55.jpg,left,0,0,0,0,,,,,0,9,9,9,,,,,,,,,0,0,0,0,0,34,34,34,,,,,,,,,,,,,,,,,,,,,,,,,,,,,,,,,355.71044037160027,None,None,1,355.71044037160027,None,,,,,,,,,,,,,,,,,,,,,,,,,,,,,,,,,,,,,,,,,,,,,,martinaR,001,c,2019_Oct_11_2258,Experimento,3.2.3,60.49692232485378,
8,14,14,999,0.5,0:10,3,,,0,0,1,15:50,./completed_changuitos/montage_upbtt_46.0_40.55.jpg,left,0,0,0,0,,,,,0,9,9,9,,,,,,,,,0,0,0,0,,,,,,,,,,,,,,,,,,,,,,,,,,,,,,,,,,,,,,,,,,,,355.8103530869994,None,right,0,1.261290950998955,355.8103530869994,None,355.8103530869994,None,,,,,,,,,,,,,,,,,,,,,,,,,,,,,,,,,,,,martinaR,001,c,2019_Oct_11_2258,Experimento,3.2.3,60.49692232485378,
8,14,14,999,0.5,0:10,3,,,0,0,1,15:50,,,0,0,0,0,,,,,0,9,9,9,,,,,,,,,,,,,,,,,,,,,,,,,,,,,,,,,,,,,,,,,,,,,,,,,,,,,,,,,,,,,,,,,,,,,,,,,,,,,,,,,,,,,,,,,,,,,,,,,,,,martinaR,001,c,2019_Oct_11_2258,Experimento,3.2.3,60.49692232485378,
8,14,14,999,0.5,0:10,3,,,0,1,0,25:50,./completed_changuitos/montage_npbnm_124.99_108.59.jpg,left,0,0,0,0,,,,,0,10,10,10,,,,,0,0,0,0,,,,,,,,,,,,,,,,,,,,,,357.36218141800055,358.3804409180011,358.3804409180011,366.39354810299847,366.39354810299847,380.39328280000336,left,1,1.2617440790054388,380.39328280000336,None,380.39328280000336,None,380.39328280000336,None,,,,,,,,,,,,,,,,,,,,,,,,,,,,,,,,,,,,,,,,,,,,,,,,,,,,,,,,martinaR,001,c,2019_Oct_11_2258,Experimento,3.2.3,60.49692232485378,
8,14,14,999,0.5,0:10,3,,,0,1,0,25:50,,,0,0,0,0,,,,,0,10,10,10,,,,,,,,,,,,,,,,,,,,,,,,,,,,,,,,,,,,,,,,,,,,,,,,,,,,,,,,,,,,,,,,,,,,,,,,,,,,,,,,,,,,,,,,,,,,,,,,,,,,martinaR,001,c,2019_Oct_11_2258,Experimento,3.2.3,60.49692232485378,
8,14,14,999,0.5,0:10,3,Red,None,0,0,1,28:50,./completed_changuitos/montage_atiwg_91.25_106.89.jpg,right,0,0,0,0,,,,,0,11,11,11,,,,,,,,,0,0,0,0,0,0,0,0,,,,,,,,,,,,,,,,,,,,,,,,,,,,,381.91104738500144,383.6131884360002,383.6131884360002,None,391.64615551799943,392.1606929900008,None,1,391.64615551799943,None,,,,,,,,,,,,,,,,,,,,,,,,,,,,,,,,,,,,,,,,,,,,,,martinaR,001,c,2019_Oct_11_2258,Experimento,3.2.3,60.49692232485378,
8,14,14,999,0.5,0:10,3,Magenta,['space'],0,0,1,28:50,./completed_changuitos/montage_atiwg_91.25_106.89.jpg,right,0,0,0,0,,,,,0,11,11,11,,,,,,,,,0,0,0,0,0,1,1,1,,,,,,,,,,,,,,,,,,,,,,,,,,,,,,,,,393.6611011440036,394.1606230950056,None,0,393.6611011440036,393.6611011440036,,,,,,,,,,,,,,,,,,,,,,,,,,,,,,,,,,,,,,,,,,,,,,martinaR,001,c,2019_Oct_11_2258,Experimento,3.2.3,60.49692232485378,
8,14,14,999,0.5,0:10,3,Green,None,0,0,1,28:50,./completed_changuitos/montage_atiwg_91.25_106.89.jpg,right,0,0,0,0,,,,,0,11,11,11,,,,,,,,,0,0,0,0,0,2,2,2,,,,,,,,,,,,,,,,,,,,,,,,,,,,,,,,,395.660811380003,396.1605858030016,None,1,395.660811380003,395.660811380003,,,,,,,,,,,,,,,,,,,,,,,,,,,,,,,,,,,,,,,,,,,,,,martinaR,001,c,2019_Oct_11_2258,Experimento,3.2.3,60.49692232485378,
8,14,14,999,0.5,0:10,3,Yellow,['space'],0,0,1,28:50,./completed_changuitos/montage_atiwg_91.25_106.89.jpg,right,0,0,0,0,,,,,0,11,11,11,,,,,,,,,0,0,0,0,0,3,3,3,,,,,,,,,,,,,,,,,,,,,,,,,,,,,,,,,397.6608097990029,398.1607774820004,None,0,397.6608097990029,397.6608097990029,,,,,,,,,,,,,,,,,,,,,,,,,,,,,,,,,,,,,,,,,,,,,,martinaR,001,c,2019_Oct_11_2258,Experimento,3.2.3,60.49692232485378,
8,14,14,999,0.5,0:10,3,Blue,None,0,0,1,28:50,./completed_changuitos/montage_atiwg_91.25_106.89.jpg,right,0,0,0,0,,,,,0,11,11,11,,,,,,,,,0,0,0,0,0,4,4,4,,,,,,,,,,,,,,,,,,,,,,,,,,,,,,,,,399.6607928680023,400.1605025050012,None,1,399.6607928680023,399.6607928680023,,,,,,,,,,,,,,,,,,,,,,,,,,,,,,,,,,,,,,,,,,,,,,martinaR,001,c,2019_Oct_11_2258,Experimento,3.2.3,60.49692232485378,
8,14,14,999,0.5,0:10,3,Cyan,None,0,0,1,28:50,./completed_changuitos/montage_atiwg_91.25_106.89.jpg,right,0,0,0,0,,,,,0,11,11,11,,,,,,,,,0,0,0,0,0,5,5,5,,,,,,,,,,,,,,,,,,,,,,,,,,,,,,,,,401.6604786270036,402.160672060003,None,1,401.6604786270036,401.6604786270036,,,,,,,,,,,,,,,,,,,,,,,,,,,,,,,,,,,,,,,,,,,,,,martinaR,001,c,2019_Oct_11_2258,Experimento,3.2.3,60.49692232485378,
8,14,14,999,0.5,0:10,3,Blue,['space'],0,0,1,28:50,./completed_changuitos/montage_atiwg_91.25_106.89.jpg,right,0,0,0,0,,,,,0,11,11,11,,,,,,,,,0,0,0,0,0,6,6,6,,,,,,,,,,,,,,,,,,,,,,,,,,,,,,,,,403.66061436200107,404.16049524499977,['return'],0,403.66061436200107,403.66061436200107,[0.26683952899475116],,,,,,,,,,,,,,,,,,,,,,,,,,,,,,,,,,,,,,,,,,,,,martinaR,001,c,2019_Oct_11_2258,Experimento,3.2.3,60.49692232485378,
8,14,14,999,0.5,0:10,3,Yellow,None,0,0,1,28:50,./completed_changuitos/montage_atiwg_91.25_106.89.jpg,right,0,0,0,0,,,,,0,11,11,11,,,,,,,,,0,0,0,0,0,7,7,7,,,,,,,,,,,,,,,,,,,,,,,,,,,,,,,,,405.6271168362,None,None,1,405.6271168362,None,,,,,,,,,,,,,,,,,,,,,,,,,,,,,,,,,,,,,,,,,,,,,,martinaR,001,c,2019_Oct_11_2258,Experimento,3.2.3,60.49692232485378,
8,14,14,999,0.5,0:10,3,Cyan,None,0,0,1,28:50,./completed_changuitos/montage_atiwg_91.25_106.89.jpg,right,0,0,0,0,,,,,0,11,11,11,,,,,,,,,0,0,0,0,0,8,8,8,,,,,,,,,,,,,,,,,,,,,,,,,,,,,,,,,405.6271168362,None,None,1,405.6271168362,None,,,,,,,,,,,,,,,,,,,,,,,,,,,,,,,,,,,,,,,,,,,,,,martinaR,001,c,2019_Oct_11_2258,Experimento,3.2.3,60.49692232485378,
8,14,14,999,0.5,0:10,3,Yellow,['space'],0,0,1,28:50,./completed_changuitos/montage_atiwg_91.25_106.89.jpg,right,0,0,0,0,,,,,0,11,11,11,,,,,,,,,0,0,0,0,0,9,9,9,,,,,,,,,,,,,,,,,,,,,,,,,,,,,,,,,405.6271168362,None,None,0,405.6271168362,None,,,,,,,,,,,,,,,,,,,,,,,,,,,,,,,,,,,,,,,,,,,,,,martinaR,001,c,2019_Oct_11_2258,Experimento,3.2.3,60.49692232485378,
8,14,14,999,0.5,0:10,3,Magenta,None,0,0,1,28:50,./completed_changuitos/montage_atiwg_91.25_106.89.jpg,right,0,0,0,0,,,,,0,11,11,11,,,,,,,,,0,0,0,0,0,10,10,10,,,,,,,,,,,,,,,,,,,,,,,,,,,,,,,,,405.6271168362,None,None,1,405.6271168362,None,,,,,,,,,,,,,,,,,,,,,,,,,,,,,,,,,,,,,,,,,,,,,,martinaR,001,c,2019_Oct_11_2258,Experimento,3.2.3,60.49692232485378,
8,14,14,999,0.5,0:10,3,Red,None,0,0,1,28:50,./completed_changuitos/montage_atiwg_91.25_106.89.jpg,right,0,0,0,0,,,,,0,11,11,11,,,,,,,,,0,0,0,0,0,11,11,11,,,,,,,,,,,,,,,,,,,,,,,,,,,,,,,,,405.6271168362,None,None,1,405.6271168362,None,,,,,,,,,,,,,,,,,,,,,,,,,,,,,,,,,,,,,,,,,,,,,,martinaR,001,c,2019_Oct_11_2258,Experimento,3.2.3,60.49692232485378,
8,14,14,999,0.5,0:10,3,Magenta,['space'],0,0,1,28:50,./completed_changuitos/montage_atiwg_91.25_106.89.jpg,right,0,0,0,0,,,,,0,11,11,11,,,,,,,,,0,0,0,0,0,12,12,12,,,,,,,,,,,,,,,,,,,,,,,,,,,,,,,,,405.6271168362,None,None,0,405.6271168362,None,,,,,,,,,,,,,,,,,,,,,,,,,,,,,,,,,,,,,,,,,,,,,,martinaR,001,c,2019_Oct_11_2258,Experimento,3.2.3,60.49692232485378,
8,14,14,999,0.5,0:10,3,Red,['space'],0,0,1,28:50,./completed_changuitos/montage_atiwg_91.25_106.89.jpg,right,0,0,0,0,,,,,0,11,11,11,,,,,,,,,0,0,0,0,0,13,13,13,,,,,,,,,,,,,,,,,,,,,,,,,,,,,,,,,405.6271168362,None,None,0,405.6271168362,None,,,,,,,,,,,,,,,,,,,,,,,,,,,,,,,,,,,,,,,,,,,,,,martinaR,001,c,2019_Oct_11_2258,Experimento,3.2.3,60.49692232485378,
8,14,14,999,0.5,0:10,3,Yellow,None,0,0,1,28:50,./completed_changuitos/montage_atiwg_91.25_106.89.jpg,right,0,0,0,0,,,,,0,11,11,11,,,,,,,,,0,0,0,0,0,14,14,14,,,,,,,,,,,,,,,,,,,,,,,,,,,,,,,,,405.6437295664,None,None,1,405.6437295664,None,,,,,,,,,,,,,,,,,,,,,,,,,,,,,,,,,,,,,,,,,,,,,,martinaR,001,c,2019_Oct_11_2258,Experimento,3.2.3,60.49692232485378,
8,14,14,999,0.5,0:10,3,Cyan,None,0,0,1,28:50,./completed_changuitos/montage_atiwg_91.25_106.89.jpg,right,0,0,0,0,,,,,0,11,11,11,,,,,,,,,0,0,0,0,0,15,15,15,,,,,,,,,,,,,,,,,,,,,,,,,,,,,,,,,405.6437295664,None,None,1,405.6437295664,None,,,,,,,,,,,,,,,,,,,,,,,,,,,,,,,,,,,,,,,,,,,,,,martinaR,001,c,2019_Oct_11_2258,Experimento,3.2.3,60.49692232485378,
8,14,14,999,0.5,0:10,3,Green,None,0,0,1,28:50,./completed_changuitos/montage_atiwg_91.25_106.89.jpg,right,0,0,0,0,,,,,0,11,11,11,,,,,,,,,0,0,0,0,0,16,16,16,,,,,,,,,,,,,,,,,,,,,,,,,,,,,,,,,405.6437295664,None,None,1,405.6437295664,None,,,,,,,,,,,,,,,,,,,,,,,,,,,,,,,,,,,,,,,,,,,,,,martinaR,001,c,2019_Oct_11_2258,Experimento,3.2.3,60.49692232485378,
8,14,14,999,0.5,0:10,3,White,None,0,0,1,28:50,./completed_changuitos/montage_atiwg_91.25_106.89.jpg,right,0,0,0,0,,,,,0,11,11,11,,,,,,,,,0,0,0,0,0,17,17,17,,,,,,,,,,,,,,,,,,,,,,,,,,,,,,,,,405.6437295664,None,None,1,405.6437295664,None,,,,,,,,,,,,,,,,,,,,,,,,,,,,,,,,,,,,,,,,,,,,,,martinaR,001,c,2019_Oct_11_2258,Experimento,3.2.3,60.49692232485378,
8,14,14,999,0.5,0:10,3,Green,['space'],0,0,1,28:50,./completed_changuitos/montage_atiwg_91.25_106.89.jpg,right,0,0,0,0,,,,,0,11,11,11,,,,,,,,,0,0,0,0,0,18,18,18,,,,,,,,,,,,,,,,,,,,,,,,,,,,,,,,,405.6437295664,None,None,0,405.6437295664,None,,,,,,,,,,,,,,,,,,,,,,,,,,,,,,,,,,,,,,,,,,,,,,martinaR,001,c,2019_Oct_11_2258,Experimento,3.2.3,60.49692232485378,
8,14,14,999,0.5,0:10,3,Red,None,0,0,1,28:50,./completed_changuitos/montage_atiwg_91.25_106.89.jpg,right,0,0,0,0,,,,,0,11,11,11,,,,,,,,,0,0,0,0,0,19,19,19,,,,,,,,,,,,,,,,,,,,,,,,,,,,,,,,,405.6437295664,None,None,1,405.6437295664,None,,,,,,,,,,,,,,,,,,,,,,,,,,,,,,,,,,,,,,,,,,,,,,martinaR,001,c,2019_Oct_11_2258,Experimento,3.2.3,60.49692232485378,
8,14,14,999,0.5,0:10,3,Blue,None,0,0,1,28:50,./completed_changuitos/montage_atiwg_91.25_106.89.jpg,right,0,0,0,0,,,,,0,11,11,11,,,,,,,,,0,0,0,0,0,20,20,20,,,,,,,,,,,,,,,,,,,,,,,,,,,,,,,,,405.6437295664,None,None,1,405.6437295664,None,,,,,,,,,,,,,,,,,,,,,,,,,,,,,,,,,,,,,,,,,,,,,,martinaR,001,c,2019_Oct_11_2258,Experimento,3.2.3,60.49692232485378,
8,14,14,999,0.5,0:10,3,Green,None,0,0,1,28:50,./completed_changuitos/montage_atiwg_91.25_106.89.jpg,right,0,0,0,0,,,,,0,11,11,11,,,,,,,,,0,0,0,0,0,21,21,21,,,,,,,,,,,,,,,,,,,,,,,,,,,,,,,,,405.6437295664,None,None,1,405.6437295664,None,,,,,,,,,,,,,,,,,,,,,,,,,,,,,,,,,,,,,,,,,,,,,,martinaR,001,c,2019_Oct_11_2258,Experimento,3.2.3,60.49692232485378,
8,14,14,999,0.5,0:10,3,,,0,0,1,28:50,./completed_changuitos/montage_atiwg_91.25_106.89.jpg,right,0,0,0,0,,,,,0,11,11,11,,,,,,,,,0,0,0,0,,,,,,,,,,,,,,,,,,,,,,,,,,,,,,,,,,,,,,,,,,,,405.7439255319987,None,left,0,1.340326837998873,405.7439255319987,None,405.7439255319987,None,,,,,,,,,,,,,,,,,,,,,,,,,,,,,,,,,,,,martinaR,001,c,2019_Oct_11_2258,Experimento,3.2.3,60.49692232485378,
8,14,14,999,0.5,0:10,3,,,0,0,1,28:50,,,0,0,0,0,,,,,0,11,11,11,,,,,,,,,,,,,,,,,,,,,,,,,,,,,,,,,,,,,,,,,,,,,,,,,,,,,,,,,,,,,,,,,,,,,,,,,,,,,,,,,,,,,,,,,,,,,,,,,,,,martinaR,001,c,2019_Oct_11_2258,Experimento,3.2.3,60.49692232485378,
8,14,14,999,0.5,0:10,3,,,1,0,0,30:50,./completed_changuitos/montage_topew_226.29_197.95.jpg,left,0,0,0,0,,,,,0,12,12,12,0,0,0,0,,,,,,,,,,,,,,,,,,,,,,,,,,,,,,,,,,,,,,,,,,,,,,,,,,,,,,,,,,,,,407.8275708880028,409.0650661750042,409.0650661750042,417.0766019619987,left,1,1.6189275790020474,417.0766019619987,None,417.0766019619987,None,417.0766019619987,None,,,,,,,,,,,,,,,,,,,,,,,martinaR,001,c,2019_Oct_11_2258,Experimento,3.2.3,60.49692232485378,
8,14,14,999,0.5,0:10,3,,,1,0,0,30:50,,,0,0,0,0,,,,,0,12,12,12,,,,,,,,,,,,,,,,,,,,,,,,,,,,,,,,,,,,,,,,,,,,,,,,,,,,,,,,,,,,,,,,,,,,,,,,,,,,,,,,,,,,,,,,,,,,,,,,,,,,martinaR,001,c,2019_Oct_11_2258,Experimento,3.2.3,60.49692232485378,
8,14,14,999,0.5,0:10,3,,,1,0,0,32:50,./completed_changuitos/montage_gjxbk_28.89_33.19.jpg,right,0,0,0,0,,,,,0,13,13,13,0,0,0,0,,,,,,,,,,,,,,,,,,,,,,,,,,,,,,,,,,,,,,,,,,,,,,,,,,,,,,,,,,,,,419.51036914200085,420.72979427500104,420.72979427500104,428.7425135000012,left,0,1.6414218920035637,428.7425135000012,None,428.7425135000012,None,428.7425135000012,None,,,,,,,,,,,,,,,,,,,,,,,martinaR,001,c,2019_Oct_11_2258,Experimento,3.2.3,60.49692232485378,
8,14,14,999,0.5,0:10,3,,,1,0,0,32:50,,,0,0,0,0,,,,,0,13,13,13,,,,,,,,,,,,,,,,,,,,,,,,,,,,,,,,,,,,,,,,,,,,,,,,,,,,,,,,,,,,,,,,,,,,,,,,,,,,,,,,,,,,,,,,,,,,,,,,,,,,martinaR,001,c,2019_Oct_11_2258,Experimento,3.2.3,60.49692232485378,
8,14,14,999,0.5,0:10,3,,,1,0,0,34:50,./completed_changuitos/montage_rbvmp_35.65_41.19.jpg,right,0,0,0,0,,,,,0,14,14,14,0,0,0,0,,,,,,,,,,,,,,,,,,,,,,,,,,,,,,,,,,,,,,,,,,,,,,,,,,,,,,,,,,,,,431.1768013990004,432.1938449730005,432.1938449730005,440.20896695000556,left,0,-3.6059372640011134,440.20896695000556,None,440.20896695000556,None,440.20896695000556,None,,,,,,,,,,,,,,,,,,,,,,,martinaR,001,c,2019_Oct_11_2258,Experimento,3.2.3,60.49692232485378,
8,14,14,999,0.5,0:10,3,,,1,0,0,34:50,,,0,0,0,0,,,,,0,14,14,14,,,,,,,,,,,,,,,,,,,,,,,,,,,,,,,,,,,,,,,,,,,,,,,,,,,,,,,,,,,,,,,,,,,,,,,,,,,,,,,,,,,,,,,,,,,,,,,,,,,,martinaR,001,c,2019_Oct_11_2258,Experimento,3.2.3,60.49692232485378,
8,14,14,999,0.5,0:10,3,,,1,0,0,30:50,./completed_changuitos/montage_nqwqa_221.49_255.75.jpg,right,0,0,0,0,,,,,0,15,15,15,0,0,0,0,,,,,,,,,,,,,,,,,,,,,,,,,,,,,,,,,,,,,,,,,,,,,,,,,,,,,,,,,,,,,440.97696734400233,442.49544041800254,442.49544041800254,450.5097400010054,right,1,0.9465172810014337,450.5097400010054,None,450.5097400010054,None,450.5097400010054,None,,,,,,,,,,,,,,,,,,,,,,,martinaR,001,c,2019_Oct_11_2258,Experimento,3.2.3,60.49692232485378,
8,14,14,999,0.5,0:10,3,,,1,0,0,30:50,,,0,0,0,0,,,,,0,15,15,15,,,,,,,,,,,,,,,,,,,,,,,,,,,,,,,,,,,,,,,,,,,,,,,,,,,,,,,,,,,,,,,,,,,,,,,,,,,,,,,,,,,,,,,,,,,,,,,,,,,,martinaR,001,c,2019_Oct_11_2258,Experimento,3.2.3,60.49692232485378,
8,14,14,999,0.5,0:10,3,,,1,0,0,32:50,./completed_changuitos/montage_ctlmw_61.95_70.65.jpg,right,0,0,0,0,,,,,0,16,16,16,0,0,0,0,,,,,,,,,,,,,,,,,,,,,,,,,,,,,,,,,,,,,,,,,,,,,,,,,,,,,,,,,,,,,452.24263809600234,453.77658521800186,453.77658521800186,461.79221324399987,left,0,0.8851470599984168,461.79221324399987,None,461.79221324399987,None,461.79221324399987,None,,,,,,,,,,,,,,,,,,,,,,,martinaR,001,c,2019_Oct_11_2258,Experimento,3.2.3,60.49692232485378,
8,14,14,999,0.5,0:10,3,,,1,0,0,32:50,,,0,0,0,0,,,,,0,16,16,16,,,,,,,,,,,,,,,,,,,,,,,,,,,,,,,,,,,,,,,,,,,,,,,,,,,,,,,,,,,,,,,,,,,,,,,,,,,,,,,,,,,,,,,,,,,,,,,,,,,,martinaR,001,c,2019_Oct_11_2258,Experimento,3.2.3,60.49692232485378,
8,14,14,999,0.5,0:10,3,,,1,0,0,34:50,./completed_changuitos/montage_xrcqf_87.89_101.65.jpg,right,0,0,0,0,,,,,0,17,17,17,0,0,0,0,,,,,,,,,,,,,,,,,,,,,,,,,,,,,,,,,,,,,,,,,,,,,,,,,,,,,,,,,,,,,463.47648512900196,464.8294130190043,464.8294130190043,472.8427768820038,right,1,2.0359239250028622,472.8427768820038,None,472.8427768820038,None,472.8427768820038,None,,,,,,,,,,,,,,,,,,,,,,,martinaR,001,c,2019_Oct_11_2258,Experimento,3.2.3,60.49692232485378,
8,14,14,999,0.5,0:10,3,,,1,0,0,34:50,,,0,0,0,0,,,,,0,17,17,17,,,,,,,,,,,,,,,,,,,,,,,,,,,,,,,,,,,,,,,,,,,,,,,,,,,,,,,,,,,,,,,,,,,,,,,,,,,,,,,,,,,,,,,,,,,,,,,,,,,,martinaR,001,c,2019_Oct_11_2258,Experimento,3.2.3,60.49692232485378,
8,14,14,999,0.5,0:10,3,,,,,,,,,0,0,0,0,,,,,,,,,,,,,,,,,,,,,,,,,,,,,,,,,,,,,,,,,,,,,,,,,,,,,,,,,,,,,,,,,,,,,,,,,,,,,,,,,,,,,,474.9749520320038,477.0919251919986,1,3.013293127005454,477.0919251919986,None,477.0919251919986,None,c,3.925736131997837,480.142458798,None,480.142458798,None,480.142458798,None,484.09306343800563,None,4,4.3176327900000615,484.09306343800563,None,martinaR,001,c,2019_Oct_11_2258,Experimento,3.2.3,60.49692232485378,
