changuito_time_to_show,time_to_think,time_to_play,total_items,nback_stimulus_time,nback_training,time_to_show_tiny_stimulus,colourtest,corresp,inmediato,consciente,inconsciente,nback_slice,imagen,correcta,trials_5.thisRepN,trials_5.thisTrialN,trials_5.thisN,trials_5.thisIndex,nback_train.thisRepN,nback_train.thisTrialN,nback_train.thisN,nback_train.thisIndex,treatment_order.thisRepN,treatment_order.thisTrialN,treatment_order.thisN,treatment_order.thisIndex,trials.thisRepN,trials.thisTrialN,trials.thisN,trials.thisIndex,trials_2.thisRepN,trials_2.thisTrialN,trials_2.thisN,trials_2.thisIndex,trials_3.thisRepN,trials_3.thisTrialN,trials_3.thisN,trials_3.thisIndex,trials_4.thisRepN,trials_4.thisTrialN,trials_4.thisN,trials_4.thisIndex,Presentacion.started,Presentacion.stopped,Juego.started,Juego.stopped,image_6.started,image_6.stopped,polygon.started,polygon.stopped,nback_train_resp.keys,nback_train_resp.corr,nback_train_resp.started,nback_train_resp.stopped,nback_train_resp.rt,holi.started,holi.stopped,image_3.started,image_3.stopped,polygon_2.started,polygon_2.stopped,nback_train_resp_2.keys,nback_train_resp_2.corr,nback_train_resp_2.started,nback_train_resp_2.stopped,nback_train_resp_2.rt,text_2.started,text_2.stopped,key_resp.keys,key_resp.corr,key_resp.rt,key_resp.started,key_resp.stopped,image_5.started,image_5.stopped,hola.started,hola.stopped,image_2.started,image_2.stopped,tiempo_para_pensar.started,tiempo_para_pensar.stopped,respuesta_consciente.keys,respuesta_consciente.corr,respuesta_consciente.rt,respuesta_consciente.started,respuesta_consciente.stopped,cual_es_la_mas_barata.started,cual_es_la_mas_barata.stopped,image_4.started,image_4.stopped,text.started,text.stopped,image.started,image.stopped,respuesta_inmediato.keys,respuesta_inmediato.corr,respuesta_inmediato.rt,respuesta_inmediato.started,respuesta_inmediato.stopped,pregunta_cual_es_el_mas_barato.started,pregunta_cual_es_el_mas_barato.stopped,short_stim1.started,short_stim1.stopped,gracias.started,gracias.stopped,respuesta1.keys,respuesta1.rt,respuesta1.started,respuesta1.stopped,pregunta1.started,pregunta1.stopped,respuesta3bis_3.keys,respuesta3bis_3.rt,respuesta3bis_3.started,respuesta3bis_3.stopped,pregunta3_3.started,pregunta3_3.stopped,productoCon3RANGOSabc_3.started,productoCon3RANGOSabc_3.stopped,text_3.started,text_3.stopped,key_resp_2.keys,key_resp_2.rt,key_resp_2.started,key_resp_2.stopped,participant,session,group,date,expName,psychopyVersion,frameRate,
8,14,14,999,0.5,0:10,3,White,None,,,,,,,0,0,0,0,0,0,0,0,,,,,,,,,,,,,,,,,,,,,15.833210880126643,None,47.79964858067265,None,47.79964858067265,None,94.89843808688218,95.39825996916116,None,1,94.89843808688218,None,,,,,,,,,,,,,,,,,,,,,,,,,,,,,,,,,,,,,,,,,,,,,,,,,,,,,,,,,,,,,,,,,,,,,,,,MartinK,001,b,2019_Nov_08_1414,Experimento,3.2.3,59.991913158311846,
8,14,14,999,0.5,0:10,3,Red,None,,,,,,,0,0,0,0,0,1,1,1,,,,,,,,,,,,,,,,,,,,,,,,,,,96.89765703871237,97.39749017604206,None,1,96.89765703871237,96.89765703871237,,,,,,,,,,,,,,,,,,,,,,,,,,,,,,,,,,,,,,,,,,,,,,,,,,,,,,,,,,,,,,,,,,,,,,,,MartinK,001,b,2019_Nov_08_1414,Experimento,3.2.3,59.991913158311846,
8,14,14,999,0.5,0:10,3,Magenta,None,,,,,,,0,0,0,0,0,2,2,2,,,,,,,,,,,,,,,,,,,,,,,,,,,98.89695477589751,99.39677037628772,None,1,98.89695477589751,98.89695477589751,,,,,,,,,,,,,,,,,,,,,,,,,,,,,,,,,,,,,,,,,,,,,,,,,,,,,,,,,,,,,,,,,,,,,,,,MartinK,001,b,2019_Nov_08_1414,Experimento,3.2.3,59.991913158311846,
8,14,14,999,0.5,0:10,3,Cyan,None,,,,,,,0,0,0,0,0,3,3,3,,,,,,,,,,,,,,,,,,,,,,,,,,,100.89618812372285,101.39577574389992,None,1,100.89618812372285,100.89618812372285,,,,,,,,,,,,,,,,,,,,,,,,,,,,,,,,,,,,,,,,,,,,,,,,,,,,,,,,,,,,,,,,,,,,,,,,MartinK,001,b,2019_Nov_08_1414,Experimento,3.2.3,59.991913158311846,
8,14,14,999,0.5,0:10,3,Magenta,['space'],,,,,,,0,0,0,0,0,4,4,4,,,,,,,,,,,,,,,,,,,,,,,,,,,102.89535655869756,103.39521430009157,None,0,102.89535655869756,102.89535655869756,,,,,,,,,,,,,,,,,,,,,,,,,,,,,,,,,,,,,,,,,,,,,,,,,,,,,,,,,,,,,,,,,,,,,,,,MartinK,001,b,2019_Nov_08_1414,Experimento,3.2.3,59.991913158311846,
8,14,14,999,0.5,0:10,3,Green,None,,,,,,,0,0,0,0,0,5,5,5,,,,,,,,,,,,,,,,,,,,,,,,,,,104.89462340992961,105.394517272184,None,1,104.89462340992961,104.89462340992961,,,,,,,,,,,,,,,,,,,,,,,,,,,,,,,,,,,,,,,,,,,,,,,,,,,,,,,,,,,,,,,,,,,,,,,,MartinK,001,b,2019_Nov_08_1414,Experimento,3.2.3,59.991913158311846,
8,14,14,999,0.5,0:10,3,White,None,,,,,,,0,0,0,0,0,6,6,6,,,,,,,,,,,,,,,,,,,,,,,,,,,106.8938957578143,107.39373125085231,None,1,106.8938957578143,106.8938957578143,,,,,,,,,,,,,,,,,,,,,,,,,,,,,,,,,,,,,,,,,,,,,,,,,,,,,,,,,,,,,,,,,,,,,,,,MartinK,001,b,2019_Nov_08_1414,Experimento,3.2.3,59.991913158311846,
8,14,14,999,0.5,0:10,3,Green,['space'],,,,,,,0,0,0,0,0,7,7,7,,,,,,,,,,,,,,,,,,,,,,,,,,,108.89312413247771,109.39287691398025,['return'],0,108.89312413247771,108.89312413247771,[0.6531083439973031],,,,,,,,,,,,,,,,,,,,,,,,,,,,,,,,,,,,,,,,,,,,,,,,,,,,,,,,,,,,,,,,,,,,,,,MartinK,001,b,2019_Nov_08_1414,Experimento,3.2.3,59.991913158311846,
8,14,14,999,0.5,0:10,3,Blue,None,,,,,,,0,0,0,0,0,8,8,8,,,,,,,,,,,,,,,,,,,,,,,,,,,110.89251662148504,111.39217622163758,None,1,110.89251662148504,110.89251662148504,,,,,,,,,,,,,,,,,,,,,,,,,,,,,,,,,,,,,,,,,,,,,,,,,,,,,,,,,,,,,,,,,,,,,,,,MartinK,001,b,2019_Nov_08_1414,Experimento,3.2.3,59.991913158311846,
8,14,14,999,0.5,0:10,3,Green,['space'],,,,,,,0,0,0,0,0,9,9,9,,,,,,,,,,,,,,,,,,,,,,,,,,,112.89161909662775,113.39144778428621,['return'],0,112.89161909662775,112.89161909662775,[0.5266235606949294],,,,,,,,,,,,,,,,,,,,,,,,,,,,,,,,,,,,,,,,,,,,,,,,,,,,,,,,,,,,,,,,,,,,,,,MartinK,001,b,2019_Nov_08_1414,Experimento,3.2.3,59.991913158311846,
8,14,14,999,0.5,0:10,3,Yellow,None,0,0,1,15:50,./completed_changuitos/montage_yfntp_283.55_316.75.jpg,right,0,0,0,0,,,,,0,0,0,0,,,,,,,,,0,0,0,0,0,0,0,0,,,,,,,,,,,,,,115.04967848508065,138.81519547013002,138.81519547013002,None,146.86188272917704,147.36190955807697,None,1,146.86188272917704,None,,,,,,,,,,,,,,,,,,,,,,,,,,,,,,,,,,,,,,,,,,,,,,,,,,,,,,,,,,,,,MartinK,001,b,2019_Nov_08_1414,Experimento,3.2.3,59.991913158311846,
8,14,14,999,0.5,0:10,3,White,['space'],0,0,1,15:50,./completed_changuitos/montage_yfntp_283.55_316.75.jpg,right,0,0,0,0,,,,,0,0,0,0,,,,,,,,,0,0,0,0,0,1,1,1,,,,,,,,,,,,,,,,,,148.86130217795701,149.3611334830691,None,0,148.86130217795701,148.86130217795701,,,,,,,,,,,,,,,,,,,,,,,,,,,,,,,,,,,,,,,,,,,,,,,,,,,,,,,,,,,,,MartinK,001,b,2019_Nov_08_1414,Experimento,3.2.3,59.991913158311846,
8,14,14,999,0.5,0:10,3,Magenta,None,0,0,1,15:50,./completed_changuitos/montage_yfntp_283.55_316.75.jpg,right,0,0,0,0,,,,,0,0,0,0,,,,,,,,,0,0,0,0,0,2,2,2,,,,,,,,,,,,,,,,,,150.86061719033623,151.3604076631714,None,1,150.86061719033623,150.86061719033623,,,,,,,,,,,,,,,,,,,,,,,,,,,,,,,,,,,,,,,,,,,,,,,,,,,,,,,,,,,,,MartinK,001,b,2019_Nov_08_1414,Experimento,3.2.3,59.991913158311846,
8,14,14,999,0.5,0:10,3,Cyan,None,0,0,1,15:50,./completed_changuitos/montage_yfntp_283.55_316.75.jpg,right,0,0,0,0,,,,,0,0,0,0,,,,,,,,,0,0,0,0,0,3,3,3,,,,,,,,,,,,,,,,,,152.859698202359,153.3595941585763,None,1,152.859698202359,152.859698202359,,,,,,,,,,,,,,,,,,,,,,,,,,,,,,,,,,,,,,,,,,,,,,,,,,,,,,,,,,,,,MartinK,001,b,2019_Nov_08_1414,Experimento,3.2.3,59.991913158311846,
8,14,14,999,0.5,0:10,3,Blue,None,0,0,1,15:50,./completed_changuitos/montage_yfntp_283.55_316.75.jpg,right,0,0,0,0,,,,,0,0,0,0,,,,,,,,,0,0,0,0,0,4,4,4,,,,,,,,,,,,,,,,,,154.85914565789304,155.35883483527184,None,1,154.85914565789304,154.85914565789304,,,,,,,,,,,,,,,,,,,,,,,,,,,,,,,,,,,,,,,,,,,,,,,,,,,,,,,,,,,,,MartinK,001,b,2019_Nov_08_1414,Experimento,3.2.3,59.991913158311846,
8,14,14,999,0.5,0:10,3,Magenta,None,0,0,1,15:50,./completed_changuitos/montage_yfntp_283.55_316.75.jpg,right,0,0,0,0,,,,,0,0,0,0,,,,,,,,,0,0,0,0,0,5,5,5,,,,,,,,,,,,,,,,,,156.8582798042249,157.35810037777705,None,1,156.8582798042249,156.8582798042249,,,,,,,,,,,,,,,,,,,,,,,,,,,,,,,,,,,,,,,,,,,,,,,,,,,,,,,,,,,,,MartinK,001,b,2019_Nov_08_1414,Experimento,3.2.3,59.991913158311846,
8,14,14,999,0.5,0:10,3,Blue,['space'],0,0,1,15:50,./completed_changuitos/montage_yfntp_283.55_316.75.jpg,right,0,0,0,0,,,,,0,0,0,0,,,,,,,,,0,0,0,0,0,6,6,6,,,,,,,,,,,,,,,,,,158.85744483650993,159.3572816382747,['return'],0,158.85744483650993,158.85744483650993,[0.4704187166781253],,,,,,,,,,,,,,,,,,,,,,,,,,,,,,,,,,,,,,,,,,,,,,,,,,,,,,,,,,,,MartinK,001,b,2019_Nov_08_1414,Experimento,3.2.3,59.991913158311846,
8,14,14,999,0.5,0:10,3,Cyan,None,0,0,1,15:50,./completed_changuitos/montage_yfntp_283.55_316.75.jpg,right,0,0,0,0,,,,,0,0,0,0,,,,,,,,,0,0,0,0,0,7,7,7,,,,,,,,,,,,,,,,,,160.8399501165683,None,None,1,160.8399501165683,None,,,,,,,,,,,,,,,,,,,,,,,,,,,,,,,,,,,,,,,,,,,,,,,,,,,,,,,,,,,,,MartinK,001,b,2019_Nov_08_1414,Experimento,3.2.3,59.991913158311846,
8,14,14,999,0.5,0:10,3,Yellow,None,0,0,1,15:50,./completed_changuitos/montage_yfntp_283.55_316.75.jpg,right,0,0,0,0,,,,,0,0,0,0,,,,,,,,,0,0,0,0,0,8,8,8,,,,,,,,,,,,,,,,,,160.8399501165683,None,None,1,160.8399501165683,None,,,,,,,,,,,,,,,,,,,,,,,,,,,,,,,,,,,,,,,,,,,,,,,,,,,,,,,,,,,,,MartinK,001,b,2019_Nov_08_1414,Experimento,3.2.3,59.991913158311846,
8,14,14,999,0.5,0:10,3,Cyan,None,0,0,1,15:50,./completed_changuitos/montage_yfntp_283.55_316.75.jpg,right,0,0,0,0,,,,,0,0,0,0,,,,,,,,,0,0,0,0,0,9,9,9,,,,,,,,,,,,,,,,,,160.8399501165683,None,None,1,160.8399501165683,None,,,,,,,,,,,,,,,,,,,,,,,,,,,,,,,,,,,,,,,,,,,,,,,,,,,,,,,,,,,,,MartinK,001,b,2019_Nov_08_1414,Experimento,3.2.3,59.991913158311846,
8,14,14,999,0.5,0:10,3,Blue,None,0,0,1,15:50,./completed_changuitos/montage_yfntp_283.55_316.75.jpg,right,0,0,0,0,,,,,0,0,0,0,,,,,,,,,0,0,0,0,0,10,10,10,,,,,,,,,,,,,,,,,,160.85660164999044,None,None,1,160.85660164999044,None,,,,,,,,,,,,,,,,,,,,,,,,,,,,,,,,,,,,,,,,,,,,,,,,,,,,,,,,,,,,,MartinK,001,b,2019_Nov_08_1414,Experimento,3.2.3,59.991913158311846,
8,14,14,999,0.5,0:10,3,Cyan,['space'],0,0,1,15:50,./completed_changuitos/montage_yfntp_283.55_316.75.jpg,right,0,0,0,0,,,,,0,0,0,0,,,,,,,,,0,0,0,0,0,11,11,11,,,,,,,,,,,,,,,,,,160.85660164999044,None,None,0,160.85660164999044,None,,,,,,,,,,,,,,,,,,,,,,,,,,,,,,,,,,,,,,,,,,,,,,,,,,,,,,,,,,,,,MartinK,001,b,2019_Nov_08_1414,Experimento,3.2.3,59.991913158311846,
8,14,14,999,0.5,0:10,3,Magenta,None,0,0,1,15:50,./completed_changuitos/montage_yfntp_283.55_316.75.jpg,right,0,0,0,0,,,,,0,0,0,0,,,,,,,,,0,0,0,0,0,12,12,12,,,,,,,,,,,,,,,,,,160.85660164999044,None,None,1,160.85660164999044,None,,,,,,,,,,,,,,,,,,,,,,,,,,,,,,,,,,,,,,,,,,,,,,,,,,,,,,,,,,,,,MartinK,001,b,2019_Nov_08_1414,Experimento,3.2.3,59.991913158311846,
8,14,14,999,0.5,0:10,3,Red,None,0,0,1,15:50,./completed_changuitos/montage_yfntp_283.55_316.75.jpg,right,0,0,0,0,,,,,0,0,0,0,,,,,,,,,0,0,0,0,0,13,13,13,,,,,,,,,,,,,,,,,,160.87325318341257,None,None,1,160.87325318341257,None,,,,,,,,,,,,,,,,,,,,,,,,,,,,,,,,,,,,,,,,,,,,,,,,,,,,,,,,,,,,,MartinK,001,b,2019_Nov_08_1414,Experimento,3.2.3,59.991913158311846,
8,14,14,999,0.5,0:10,3,Magenta,['space'],0,0,1,15:50,./completed_changuitos/montage_yfntp_283.55_316.75.jpg,right,0,0,0,0,,,,,0,0,0,0,,,,,,,,,0,0,0,0,0,14,14,14,,,,,,,,,,,,,,,,,,160.87325318341257,None,None,0,160.87325318341257,None,,,,,,,,,,,,,,,,,,,,,,,,,,,,,,,,,,,,,,,,,,,,,,,,,,,,,,,,,,,,,MartinK,001,b,2019_Nov_08_1414,Experimento,3.2.3,59.991913158311846,
8,14,14,999,0.5,0:10,3,Green,None,0,0,1,15:50,./completed_changuitos/montage_yfntp_283.55_316.75.jpg,right,0,0,0,0,,,,,0,0,0,0,,,,,,,,,0,0,0,0,0,15,15,15,,,,,,,,,,,,,,,,,,160.87325318341257,None,None,1,160.87325318341257,None,,,,,,,,,,,,,,,,,,,,,,,,,,,,,,,,,,,,,,,,,,,,,,,,,,,,,,,,,,,,,MartinK,001,b,2019_Nov_08_1414,Experimento,3.2.3,59.991913158311846,
8,14,14,999,0.5,0:10,3,Yellow,['space'],0,0,1,15:50,./completed_changuitos/montage_yfntp_283.55_316.75.jpg,right,0,0,0,0,,,,,0,0,0,0,,,,,,,,,0,0,0,0,0,16,16,16,,,,,,,,,,,,,,,,,,160.8899047168347,None,None,0,160.8899047168347,None,,,,,,,,,,,,,,,,,,,,,,,,,,,,,,,,,,,,,,,,,,,,,,,,,,,,,,,,,,,,,MartinK,001,b,2019_Nov_08_1414,Experimento,3.2.3,59.991913158311846,
8,14,14,999,0.5,0:10,3,Blue,None,0,0,1,15:50,./completed_changuitos/montage_yfntp_283.55_316.75.jpg,right,0,0,0,0,,,,,0,0,0,0,,,,,,,,,0,0,0,0,0,17,17,17,,,,,,,,,,,,,,,,,,160.8899047168347,None,None,1,160.8899047168347,None,,,,,,,,,,,,,,,,,,,,,,,,,,,,,,,,,,,,,,,,,,,,,,,,,,,,,,,,,,,,,MartinK,001,b,2019_Nov_08_1414,Experimento,3.2.3,59.991913158311846,
8,14,14,999,0.5,0:10,3,Cyan,None,0,0,1,15:50,./completed_changuitos/montage_yfntp_283.55_316.75.jpg,right,0,0,0,0,,,,,0,0,0,0,,,,,,,,,0,0,0,0,0,18,18,18,,,,,,,,,,,,,,,,,,160.8899047168347,None,None,1,160.8899047168347,None,,,,,,,,,,,,,,,,,,,,,,,,,,,,,,,,,,,,,,,,,,,,,,,,,,,,,,,,,,,,,MartinK,001,b,2019_Nov_08_1414,Experimento,3.2.3,59.991913158311846,
8,14,14,999,0.5,0:10,3,Blue,['space'],0,0,1,15:50,./completed_changuitos/montage_yfntp_283.55_316.75.jpg,right,0,0,0,0,,,,,0,0,0,0,,,,,,,,,0,0,0,0,0,19,19,19,,,,,,,,,,,,,,,,,,160.8899047168347,None,None,0,160.8899047168347,None,,,,,,,,,,,,,,,,,,,,,,,,,,,,,,,,,,,,,,,,,,,,,,,,,,,,,,,,,,,,,MartinK,001,b,2019_Nov_08_1414,Experimento,3.2.3,59.991913158311846,
8,14,14,999,0.5,0:10,3,Yellow,None,0,0,1,15:50,./completed_changuitos/montage_yfntp_283.55_316.75.jpg,right,0,0,0,0,,,,,0,0,0,0,,,,,,,,,0,0,0,0,0,20,20,20,,,,,,,,,,,,,,,,,,160.90655625025684,None,None,1,160.90655625025684,None,,,,,,,,,,,,,,,,,,,,,,,,,,,,,,,,,,,,,,,,,,,,,,,,,,,,,,,,,,,,,MartinK,001,b,2019_Nov_08_1414,Experimento,3.2.3,59.991913158311846,
8,14,14,999,0.5,0:10,3,Cyan,None,0,0,1,15:50,./completed_changuitos/montage_yfntp_283.55_316.75.jpg,right,0,0,0,0,,,,,0,0,0,0,,,,,,,,,0,0,0,0,0,21,21,21,,,,,,,,,,,,,,,,,,160.90655625025684,None,None,1,160.90655625025684,None,,,,,,,,,,,,,,,,,,,,,,,,,,,,,,,,,,,,,,,,,,,,,,,,,,,,,,,,,,,,,MartinK,001,b,2019_Nov_08_1414,Experimento,3.2.3,59.991913158311846,
8,14,14,999,0.5,0:10,3,Yellow,['space'],0,0,1,15:50,./completed_changuitos/montage_yfntp_283.55_316.75.jpg,right,0,0,0,0,,,,,0,0,0,0,,,,,,,,,0,0,0,0,0,22,22,22,,,,,,,,,,,,,,,,,,160.90655625025684,None,None,0,160.90655625025684,None,,,,,,,,,,,,,,,,,,,,,,,,,,,,,,,,,,,,,,,,,,,,,,,,,,,,,,,,,,,,,MartinK,001,b,2019_Nov_08_1414,Experimento,3.2.3,59.991913158311846,
8,14,14,999,0.5,0:10,3,Magenta,None,0,0,1,15:50,./completed_changuitos/montage_yfntp_283.55_316.75.jpg,right,0,0,0,0,,,,,0,0,0,0,,,,,,,,,0,0,0,0,0,23,23,23,,,,,,,,,,,,,,,,,,160.90655625025684,None,None,1,160.90655625025684,None,,,,,,,,,,,,,,,,,,,,,,,,,,,,,,,,,,,,,,,,,,,,,,,,,,,,,,,,,,,,,MartinK,001,b,2019_Nov_08_1414,Experimento,3.2.3,59.991913158311846,
8,14,14,999,0.5,0:10,3,Red,None,0,0,1,15:50,./completed_changuitos/montage_yfntp_283.55_316.75.jpg,right,0,0,0,0,,,,,0,0,0,0,,,,,,,,,0,0,0,0,0,24,24,24,,,,,,,,,,,,,,,,,,160.923207783679,None,None,1,160.923207783679,None,,,,,,,,,,,,,,,,,,,,,,,,,,,,,,,,,,,,,,,,,,,,,,,,,,,,,,,,,,,,,MartinK,001,b,2019_Nov_08_1414,Experimento,3.2.3,59.991913158311846,
8,14,14,999,0.5,0:10,3,Magenta,['space'],0,0,1,15:50,./completed_changuitos/montage_yfntp_283.55_316.75.jpg,right,0,0,0,0,,,,,0,0,0,0,,,,,,,,,0,0,0,0,0,25,25,25,,,,,,,,,,,,,,,,,,160.923207783679,None,None,0,160.923207783679,None,,,,,,,,,,,,,,,,,,,,,,,,,,,,,,,,,,,,,,,,,,,,,,,,,,,,,,,,,,,,,MartinK,001,b,2019_Nov_08_1414,Experimento,3.2.3,59.991913158311846,
8,14,14,999,0.5,0:10,3,Red,['space'],0,0,1,15:50,./completed_changuitos/montage_yfntp_283.55_316.75.jpg,right,0,0,0,0,,,,,0,0,0,0,,,,,,,,,0,0,0,0,0,26,26,26,,,,,,,,,,,,,,,,,,160.923207783679,None,None,0,160.923207783679,None,,,,,,,,,,,,,,,,,,,,,,,,,,,,,,,,,,,,,,,,,,,,,,,,,,,,,,,,,,,,,MartinK,001,b,2019_Nov_08_1414,Experimento,3.2.3,59.991913158311846,
8,14,14,999,0.5,0:10,3,Yellow,None,0,0,1,15:50,./completed_changuitos/montage_yfntp_283.55_316.75.jpg,right,0,0,0,0,,,,,0,0,0,0,,,,,,,,,0,0,0,0,0,27,27,27,,,,,,,,,,,,,,,,,,160.923207783679,None,None,1,160.923207783679,None,,,,,,,,,,,,,,,,,,,,,,,,,,,,,,,,,,,,,,,,,,,,,,,,,,,,,,,,,,,,,MartinK,001,b,2019_Nov_08_1414,Experimento,3.2.3,59.991913158311846,
8,14,14,999,0.5,0:10,3,Cyan,None,0,0,1,15:50,./completed_changuitos/montage_yfntp_283.55_316.75.jpg,right,0,0,0,0,,,,,0,0,0,0,,,,,,,,,0,0,0,0,0,28,28,28,,,,,,,,,,,,,,,,,,160.923207783679,None,None,1,160.923207783679,None,,,,,,,,,,,,,,,,,,,,,,,,,,,,,,,,,,,,,,,,,,,,,,,,,,,,,,,,,,,,,MartinK,001,b,2019_Nov_08_1414,Experimento,3.2.3,59.991913158311846,
8,14,14,999,0.5,0:10,3,Green,None,0,0,1,15:50,./completed_changuitos/montage_yfntp_283.55_316.75.jpg,right,0,0,0,0,,,,,0,0,0,0,,,,,,,,,0,0,0,0,0,29,29,29,,,,,,,,,,,,,,,,,,160.923207783679,None,None,1,160.923207783679,None,,,,,,,,,,,,,,,,,,,,,,,,,,,,,,,,,,,,,,,,,,,,,,,,,,,,,,,,,,,,,MartinK,001,b,2019_Nov_08_1414,Experimento,3.2.3,59.991913158311846,
8,14,14,999,0.5,0:10,3,White,None,0,0,1,15:50,./completed_changuitos/montage_yfntp_283.55_316.75.jpg,right,0,0,0,0,,,,,0,0,0,0,,,,,,,,,0,0,0,0,0,30,30,30,,,,,,,,,,,,,,,,,,160.93985931710114,None,None,1,160.93985931710114,None,,,,,,,,,,,,,,,,,,,,,,,,,,,,,,,,,,,,,,,,,,,,,,,,,,,,,,,,,,,,,MartinK,001,b,2019_Nov_08_1414,Experimento,3.2.3,59.991913158311846,
8,14,14,999,0.5,0:10,3,Green,['space'],0,0,1,15:50,./completed_changuitos/montage_yfntp_283.55_316.75.jpg,right,0,0,0,0,,,,,0,0,0,0,,,,,,,,,0,0,0,0,0,31,31,31,,,,,,,,,,,,,,,,,,160.93985931710114,None,None,0,160.93985931710114,None,,,,,,,,,,,,,,,,,,,,,,,,,,,,,,,,,,,,,,,,,,,,,,,,,,,,,,,,,,,,,MartinK,001,b,2019_Nov_08_1414,Experimento,3.2.3,59.991913158311846,
8,14,14,999,0.5,0:10,3,Red,None,0,0,1,15:50,./completed_changuitos/montage_yfntp_283.55_316.75.jpg,right,0,0,0,0,,,,,0,0,0,0,,,,,,,,,0,0,0,0,0,32,32,32,,,,,,,,,,,,,,,,,,160.93985931710114,None,None,1,160.93985931710114,None,,,,,,,,,,,,,,,,,,,,,,,,,,,,,,,,,,,,,,,,,,,,,,,,,,,,,,,,,,,,,MartinK,001,b,2019_Nov_08_1414,Experimento,3.2.3,59.991913158311846,
8,14,14,999,0.5,0:10,3,Blue,None,0,0,1,15:50,./completed_changuitos/montage_yfntp_283.55_316.75.jpg,right,0,0,0,0,,,,,0,0,0,0,,,,,,,,,0,0,0,0,0,33,33,33,,,,,,,,,,,,,,,,,,160.93985931710114,None,None,1,160.93985931710114,None,,,,,,,,,,,,,,,,,,,,,,,,,,,,,,,,,,,,,,,,,,,,,,,,,,,,,,,,,,,,,MartinK,001,b,2019_Nov_08_1414,Experimento,3.2.3,59.991913158311846,
8,14,14,999,0.5,0:10,3,Green,None,0,0,1,15:50,./completed_changuitos/montage_yfntp_283.55_316.75.jpg,right,0,0,0,0,,,,,0,0,0,0,,,,,,,,,0,0,0,0,0,34,34,34,,,,,,,,,,,,,,,,,,160.93985931710114,None,None,1,160.93985931710114,None,,,,,,,,,,,,,,,,,,,,,,,,,,,,,,,,,,,,,,,,,,,,,,,,,,,,,,,,,,,,,MartinK,001,b,2019_Nov_08_1414,Experimento,3.2.3,59.991913158311846,
8,14,14,999,0.5,0:10,3,,,0,0,1,15:50,./completed_changuitos/montage_yfntp_283.55_316.75.jpg,right,0,0,0,0,,,,,0,0,0,0,,,,,,,,,0,0,0,0,,,,,,,,,,,,,,,,,,,,,,,,,,,,,161.02343668000086,None,right,1,3.332924138079079,161.02343668000086,None,161.02343668000086,164.03889928745056,,,,,,,,,,,,,,,,,,,,,,,,,,,,,,,,,,,,,,,,,,,,,,,,,,,MartinK,001,b,2019_Nov_08_1414,Experimento,3.2.3,59.991913158311846,
8,14,14,999,0.5,0:10,3,,,0,0,1,15:50,,,0,0,0,0,,,,,0,0,0,0,,,,,,,,,,,,,,,,,,,,,,,,,,,,,,,,,,,,,,,,,,,,,,,,,,,,,,,,,,,,,,,,,,,,,,,,,,,,,,,,,,,,,,,,,,,,,,,,,,,,MartinK,001,b,2019_Nov_08_1414,Experimento,3.2.3,59.991913158311846,
8,14,14,999,0.5,0:10,3,,,0,1,0,19:50,./completed_changuitos/montage_jnhms_37.45_33.5.jpg,left,0,0,0,0,,,,,0,1,1,1,,,,,0,0,0,0,,,,,,,,,,,,,,,,,,,,,,,,,,,,,,,,,,,,,,,,,,164.625174093386,170.15329326709778,170.15329326709778,178.166838328002,178.166838328002,192.1782964931094,left,1,1.9479079609067753,192.1782964931094,None,192.1782964931094,None,192.1782964931094,None,,,,,,,,,,,,,,,,,,,,,,,,,,,,,,,,,,,,MartinK,001,b,2019_Nov_08_1414,Experimento,3.2.3,59.991913158311846,
8,14,14,999,0.5,0:10,3,,,0,1,0,19:50,,,0,0,0,0,,,,,0,1,1,1,,,,,,,,,,,,,,,,,,,,,,,,,,,,,,,,,,,,,,,,,,,,,,,,,,,,,,,,,,,,,,,,,,,,,,,,,,,,,,,,,,,,,,,,,,,,,,,,,,,,MartinK,001,b,2019_Nov_08_1414,Experimento,3.2.3,59.991913158311846,
8,14,14,999,0.5,0:10,3,Magenta,None,0,0,1,20:50,./completed_changuitos/montage_ejudd_58.85_66.55.jpg,right,0,0,0,0,,,,,0,2,2,2,,,,,,,,,0,0,0,0,0,0,0,0,,,,,,,,,,,,,,194.295671490721,195.99345767459656,195.99345767459656,None,204.04062680686096,204.54019976929763,None,1,204.04062680686096,None,,,,,,,,,,,,,,,,,,,,,,,,,,,,,,,,,,,,,,,,,,,,,,,,,,,,,,,,,,,,,MartinK,001,b,2019_Nov_08_1414,Experimento,3.2.3,59.991913158311846,
8,14,14,999,0.5,0:10,3,Blue,['space'],0,0,1,20:50,./completed_changuitos/montage_ejudd_58.85_66.55.jpg,right,0,0,0,0,,,,,0,2,2,2,,,,,,,,,0,0,0,0,0,1,1,1,,,,,,,,,,,,,,,,,,206.05639539464264,206.556089283438,None,0,206.05639539464264,206.05639539464264,,,,,,,,,,,,,,,,,,,,,,,,,,,,,,,,,,,,,,,,,,,,,,,,,,,,,,,,,,,,,MartinK,001,b,2019_Nov_08_1414,Experimento,3.2.3,59.991913158311846,
8,14,14,999,0.5,0:10,3,Cyan,None,0,0,1,20:50,./completed_changuitos/montage_ejudd_58.85_66.55.jpg,right,0,0,0,0,,,,,0,2,2,2,,,,,,,,,0,0,0,0,0,2,2,2,,,,,,,,,,,,,,,,,,208.05550310469263,208.5553697454291,None,1,208.05550310469263,208.05550310469263,,,,,,,,,,,,,,,,,,,,,,,,,,,,,,,,,,,,,,,,,,,,,,,,,,,,,,,,,,,,,MartinK,001,b,2019_Nov_08_1414,Experimento,3.2.3,59.991913158311846,
8,14,14,999,0.5,0:10,3,Yellow,None,0,0,1,20:50,./completed_changuitos/montage_ejudd_58.85_66.55.jpg,right,0,0,0,0,,,,,0,2,2,2,,,,,,,,,0,0,0,0,0,3,3,3,,,,,,,,,,,,,,,,,,210.05473828473552,210.55466015374398,None,1,210.05473828473552,210.05473828473552,,,,,,,,,,,,,,,,,,,,,,,,,,,,,,,,,,,,,,,,,,,,,,,,,,,,,,,,,,,,,MartinK,001,b,2019_Nov_08_1414,Experimento,3.2.3,59.991913158311846,
8,14,14,999,0.5,0:10,3,Cyan,None,0,0,1,20:50,./completed_changuitos/montage_ejudd_58.85_66.55.jpg,right,0,0,0,0,,,,,0,2,2,2,,,,,,,,,0,0,0,0,0,4,4,4,,,,,,,,,,,,,,,,,,212.05397425001442,212.55380293767294,None,1,212.05397425001442,212.05397425001442,,,,,,,,,,,,,,,,,,,,,,,,,,,,,,,,,,,,,,,,,,,,,,,,,,,,,,,,,,,,,MartinK,001,b,2019_Nov_08_1414,Experimento,3.2.3,59.991913158311846,
8,14,14,999,0.5,0:10,3,Blue,None,0,0,1,20:50,./completed_changuitos/montage_ejudd_58.85_66.55.jpg,right,0,0,0,0,,,,,0,2,2,2,,,,,,,,,0,0,0,0,0,5,5,5,,,,,,,,,,,,,,,,,,214.05325497375085,214.55306481574306,None,1,214.05325497375085,214.05325497375085,,,,,,,,,,,,,,,,,,,,,,,,,,,,,,,,,,,,,,,,,,,,,,,,,,,,,,,,,,,,,MartinK,001,b,2019_Nov_08_1414,Experimento,3.2.3,59.991913158311846,
8,14,14,999,0.5,0:10,3,Cyan,['space'],0,0,1,20:50,./completed_changuitos/montage_ejudd_58.85_66.55.jpg,right,0,0,0,0,,,,,0,2,2,2,,,,,,,,,0,0,0,0,0,6,6,6,,,,,,,,,,,,,,,,,,216.05246424100258,216.55232145890582,None,0,216.05246424100258,216.05246424100258,,,,,,,,,,,,,,,,,,,,,,,,,,,,,,,,,,,,,,,,,,,,,,,,,,,,,,,,,,,,,MartinK,001,b,2019_Nov_08_1414,Experimento,3.2.3,59.991913158311846,
8,14,14,999,0.5,0:10,3,Magenta,None,0,0,1,20:50,./completed_changuitos/montage_ejudd_58.85_66.55.jpg,right,0,0,0,0,,,,,0,2,2,2,,,,,,,,,0,0,0,0,0,7,7,7,,,,,,,,,,,,,,,,,,218.0184007776978,None,None,1,218.0184007776978,None,,,,,,,,,,,,,,,,,,,,,,,,,,,,,,,,,,,,,,,,,,,,,,,,,,,,,,,,,,,,,MartinK,001,b,2019_Nov_08_1414,Experimento,3.2.3,59.991913158311846,
8,14,14,999,0.5,0:10,3,Red,None,0,0,1,20:50,./completed_changuitos/montage_ejudd_58.85_66.55.jpg,right,0,0,0,0,,,,,0,2,2,2,,,,,,,,,0,0,0,0,0,8,8,8,,,,,,,,,,,,,,,,,,218.0184007776978,None,None,1,218.0184007776978,None,,,,,,,,,,,,,,,,,,,,,,,,,,,,,,,,,,,,,,,,,,,,,,,,,,,,,,,,,,,,,MartinK,001,b,2019_Nov_08_1414,Experimento,3.2.3,59.991913158311846,
8,14,14,999,0.5,0:10,3,Magenta,['space'],0,0,1,20:50,./completed_changuitos/montage_ejudd_58.85_66.55.jpg,right,0,0,0,0,,,,,0,2,2,2,,,,,,,,,0,0,0,0,0,9,9,9,,,,,,,,,,,,,,,,,,218.0184007776978,None,None,0,218.0184007776978,None,,,,,,,,,,,,,,,,,,,,,,,,,,,,,,,,,,,,,,,,,,,,,,,,,,,,,,,,,,,,,MartinK,001,b,2019_Nov_08_1414,Experimento,3.2.3,59.991913158311846,
8,14,14,999,0.5,0:10,3,Green,None,0,0,1,20:50,./completed_changuitos/montage_ejudd_58.85_66.55.jpg,right,0,0,0,0,,,,,0,2,2,2,,,,,,,,,0,0,0,0,0,10,10,10,,,,,,,,,,,,,,,,,,218.03505231111993,None,None,1,218.03505231111993,None,,,,,,,,,,,,,,,,,,,,,,,,,,,,,,,,,,,,,,,,,,,,,,,,,,,,,,,,,,,,,MartinK,001,b,2019_Nov_08_1414,Experimento,3.2.3,59.991913158311846,
8,14,14,999,0.5,0:10,3,Yellow,['space'],0,0,1,20:50,./completed_changuitos/montage_ejudd_58.85_66.55.jpg,right,0,0,0,0,,,,,0,2,2,2,,,,,,,,,0,0,0,0,0,11,11,11,,,,,,,,,,,,,,,,,,218.03505231111993,None,None,0,218.03505231111993,None,,,,,,,,,,,,,,,,,,,,,,,,,,,,,,,,,,,,,,,,,,,,,,,,,,,,,,,,,,,,,MartinK,001,b,2019_Nov_08_1414,Experimento,3.2.3,59.991913158311846,
8,14,14,999,0.5,0:10,3,Blue,None,0,0,1,20:50,./completed_changuitos/montage_ejudd_58.85_66.55.jpg,right,0,0,0,0,,,,,0,2,2,2,,,,,,,,,0,0,0,0,0,12,12,12,,,,,,,,,,,,,,,,,,218.03505231111993,None,None,1,218.03505231111993,None,,,,,,,,,,,,,,,,,,,,,,,,,,,,,,,,,,,,,,,,,,,,,,,,,,,,,,,,,,,,,MartinK,001,b,2019_Nov_08_1414,Experimento,3.2.3,59.991913158311846,
8,14,14,999,0.5,0:10,3,Cyan,None,0,0,1,20:50,./completed_changuitos/montage_ejudd_58.85_66.55.jpg,right,0,0,0,0,,,,,0,2,2,2,,,,,,,,,0,0,0,0,0,13,13,13,,,,,,,,,,,,,,,,,,218.05170384454206,None,None,1,218.05170384454206,None,,,,,,,,,,,,,,,,,,,,,,,,,,,,,,,,,,,,,,,,,,,,,,,,,,,,,,,,,,,,,MartinK,001,b,2019_Nov_08_1414,Experimento,3.2.3,59.991913158311846,
8,14,14,999,0.5,0:10,3,Blue,['space'],0,0,1,20:50,./completed_changuitos/montage_ejudd_58.85_66.55.jpg,right,0,0,0,0,,,,,0,2,2,2,,,,,,,,,0,0,0,0,0,14,14,14,,,,,,,,,,,,,,,,,,218.05170384454206,None,None,0,218.05170384454206,None,,,,,,,,,,,,,,,,,,,,,,,,,,,,,,,,,,,,,,,,,,,,,,,,,,,,,,,,,,,,,MartinK,001,b,2019_Nov_08_1414,Experimento,3.2.3,59.991913158311846,
8,14,14,999,0.5,0:10,3,Yellow,None,0,0,1,20:50,./completed_changuitos/montage_ejudd_58.85_66.55.jpg,right,0,0,0,0,,,,,0,2,2,2,,,,,,,,,0,0,0,0,0,15,15,15,,,,,,,,,,,,,,,,,,218.05170384454206,None,None,1,218.05170384454206,None,,,,,,,,,,,,,,,,,,,,,,,,,,,,,,,,,,,,,,,,,,,,,,,,,,,,,,,,,,,,,MartinK,001,b,2019_Nov_08_1414,Experimento,3.2.3,59.991913158311846,
8,14,14,999,0.5,0:10,3,Cyan,None,0,0,1,20:50,./completed_changuitos/montage_ejudd_58.85_66.55.jpg,right,0,0,0,0,,,,,0,2,2,2,,,,,,,,,0,0,0,0,0,16,16,16,,,,,,,,,,,,,,,,,,218.05170384454206,None,None,1,218.05170384454206,None,,,,,,,,,,,,,,,,,,,,,,,,,,,,,,,,,,,,,,,,,,,,,,,,,,,,,,,,,,,,,MartinK,001,b,2019_Nov_08_1414,Experimento,3.2.3,59.991913158311846,
8,14,14,999,0.5,0:10,3,Yellow,['space'],0,0,1,20:50,./completed_changuitos/montage_ejudd_58.85_66.55.jpg,right,0,0,0,0,,,,,0,2,2,2,,,,,,,,,0,0,0,0,0,17,17,17,,,,,,,,,,,,,,,,,,218.0683553779642,None,None,0,218.0683553779642,None,,,,,,,,,,,,,,,,,,,,,,,,,,,,,,,,,,,,,,,,,,,,,,,,,,,,,,,,,,,,,MartinK,001,b,2019_Nov_08_1414,Experimento,3.2.3,59.991913158311846,
8,14,14,999,0.5,0:10,3,Magenta,None,0,0,1,20:50,./completed_changuitos/montage_ejudd_58.85_66.55.jpg,right,0,0,0,0,,,,,0,2,2,2,,,,,,,,,0,0,0,0,0,18,18,18,,,,,,,,,,,,,,,,,,218.0683553779642,None,None,1,218.0683553779642,None,,,,,,,,,,,,,,,,,,,,,,,,,,,,,,,,,,,,,,,,,,,,,,,,,,,,,,,,,,,,,MartinK,001,b,2019_Nov_08_1414,Experimento,3.2.3,59.991913158311846,
8,14,14,999,0.5,0:10,3,Red,None,0,0,1,20:50,./completed_changuitos/montage_ejudd_58.85_66.55.jpg,right,0,0,0,0,,,,,0,2,2,2,,,,,,,,,0,0,0,0,0,19,19,19,,,,,,,,,,,,,,,,,,218.0683553779642,None,None,1,218.0683553779642,None,,,,,,,,,,,,,,,,,,,,,,,,,,,,,,,,,,,,,,,,,,,,,,,,,,,,,,,,,,,,,MartinK,001,b,2019_Nov_08_1414,Experimento,3.2.3,59.991913158311846,
8,14,14,999,0.5,0:10,3,Magenta,['space'],0,0,1,20:50,./completed_changuitos/montage_ejudd_58.85_66.55.jpg,right,0,0,0,0,,,,,0,2,2,2,,,,,,,,,0,0,0,0,0,20,20,20,,,,,,,,,,,,,,,,,,218.0683553779642,None,None,0,218.0683553779642,None,,,,,,,,,,,,,,,,,,,,,,,,,,,,,,,,,,,,,,,,,,,,,,,,,,,,,,,,,,,,,MartinK,001,b,2019_Nov_08_1414,Experimento,3.2.3,59.991913158311846,
8,14,14,999,0.5,0:10,3,Red,['space'],0,0,1,20:50,./completed_changuitos/montage_ejudd_58.85_66.55.jpg,right,0,0,0,0,,,,,0,2,2,2,,,,,,,,,0,0,0,0,0,21,21,21,,,,,,,,,,,,,,,,,,218.0683553779642,None,None,0,218.0683553779642,None,,,,,,,,,,,,,,,,,,,,,,,,,,,,,,,,,,,,,,,,,,,,,,,,,,,,,,,,,,,,,MartinK,001,b,2019_Nov_08_1414,Experimento,3.2.3,59.991913158311846,
8,14,14,999,0.5,0:10,3,Yellow,None,0,0,1,20:50,./completed_changuitos/montage_ejudd_58.85_66.55.jpg,right,0,0,0,0,,,,,0,2,2,2,,,,,,,,,0,0,0,0,0,22,22,22,,,,,,,,,,,,,,,,,,218.0683553779642,None,None,1,218.0683553779642,None,,,,,,,,,,,,,,,,,,,,,,,,,,,,,,,,,,,,,,,,,,,,,,,,,,,,,,,,,,,,,MartinK,001,b,2019_Nov_08_1414,Experimento,3.2.3,59.991913158311846,
8,14,14,999,0.5,0:10,3,Cyan,None,0,0,1,20:50,./completed_changuitos/montage_ejudd_58.85_66.55.jpg,right,0,0,0,0,,,,,0,2,2,2,,,,,,,,,0,0,0,0,0,23,23,23,,,,,,,,,,,,,,,,,,218.08500691138633,None,None,1,218.08500691138633,None,,,,,,,,,,,,,,,,,,,,,,,,,,,,,,,,,,,,,,,,,,,,,,,,,,,,,,,,,,,,,MartinK,001,b,2019_Nov_08_1414,Experimento,3.2.3,59.991913158311846,
8,14,14,999,0.5,0:10,3,Green,None,0,0,1,20:50,./completed_changuitos/montage_ejudd_58.85_66.55.jpg,right,0,0,0,0,,,,,0,2,2,2,,,,,,,,,0,0,0,0,0,24,24,24,,,,,,,,,,,,,,,,,,218.08500691138633,None,None,1,218.08500691138633,None,,,,,,,,,,,,,,,,,,,,,,,,,,,,,,,,,,,,,,,,,,,,,,,,,,,,,,,,,,,,,MartinK,001,b,2019_Nov_08_1414,Experimento,3.2.3,59.991913158311846,
8,14,14,999,0.5,0:10,3,White,None,0,0,1,20:50,./completed_changuitos/montage_ejudd_58.85_66.55.jpg,right,0,0,0,0,,,,,0,2,2,2,,,,,,,,,0,0,0,0,0,25,25,25,,,,,,,,,,,,,,,,,,218.08500691138633,None,None,1,218.08500691138633,None,,,,,,,,,,,,,,,,,,,,,,,,,,,,,,,,,,,,,,,,,,,,,,,,,,,,,,,,,,,,,MartinK,001,b,2019_Nov_08_1414,Experimento,3.2.3,59.991913158311846,
8,14,14,999,0.5,0:10,3,Green,['space'],0,0,1,20:50,./completed_changuitos/montage_ejudd_58.85_66.55.jpg,right,0,0,0,0,,,,,0,2,2,2,,,,,,,,,0,0,0,0,0,26,26,26,,,,,,,,,,,,,,,,,,218.08500691138633,None,None,0,218.08500691138633,None,,,,,,,,,,,,,,,,,,,,,,,,,,,,,,,,,,,,,,,,,,,,,,,,,,,,,,,,,,,,,MartinK,001,b,2019_Nov_08_1414,Experimento,3.2.3,59.991913158311846,
8,14,14,999,0.5,0:10,3,Red,None,0,0,1,20:50,./completed_changuitos/montage_ejudd_58.85_66.55.jpg,right,0,0,0,0,,,,,0,2,2,2,,,,,,,,,0,0,0,0,0,27,27,27,,,,,,,,,,,,,,,,,,218.08500691138633,None,None,1,218.08500691138633,None,,,,,,,,,,,,,,,,,,,,,,,,,,,,,,,,,,,,,,,,,,,,,,,,,,,,,,,,,,,,,MartinK,001,b,2019_Nov_08_1414,Experimento,3.2.3,59.991913158311846,
8,14,14,999,0.5,0:10,3,Blue,None,0,0,1,20:50,./completed_changuitos/montage_ejudd_58.85_66.55.jpg,right,0,0,0,0,,,,,0,2,2,2,,,,,,,,,0,0,0,0,0,28,28,28,,,,,,,,,,,,,,,,,,218.08500691138633,None,None,1,218.08500691138633,None,,,,,,,,,,,,,,,,,,,,,,,,,,,,,,,,,,,,,,,,,,,,,,,,,,,,,,,,,,,,,MartinK,001,b,2019_Nov_08_1414,Experimento,3.2.3,59.991913158311846,
8,14,14,999,0.5,0:10,3,Green,None,0,0,1,20:50,./completed_changuitos/montage_ejudd_58.85_66.55.jpg,right,0,0,0,0,,,,,0,2,2,2,,,,,,,,,0,0,0,0,0,29,29,29,,,,,,,,,,,,,,,,,,218.08500691138633,None,None,1,218.08500691138633,None,,,,,,,,,,,,,,,,,,,,,,,,,,,,,,,,,,,,,,,,,,,,,,,,,,,,,,,,,,,,,MartinK,001,b,2019_Nov_08_1414,Experimento,3.2.3,59.991913158311846,
8,14,14,999,0.5,0:10,3,,,0,0,1,20:50,./completed_changuitos/montage_ejudd_58.85_66.55.jpg,right,0,0,0,0,,,,,0,2,2,2,,,,,,,,,0,0,0,0,,,,,,,,,,,,,,,,,,,,,,,,,,,,,218.15160710345512,None,right,1,1.5021396374879146,218.15160710345512,None,218.15160710345512,None,,,,,,,,,,,,,,,,,,,,,,,,,,,,,,,,,,,,,,,,,,,,,,,,,,,MartinK,001,b,2019_Nov_08_1414,Experimento,3.2.3,59.991913158311846,
8,14,14,999,0.5,0:10,3,,,0,0,1,20:50,,,0,0,0,0,,,,,0,2,2,2,,,,,,,,,,,,,,,,,,,,,,,,,,,,,,,,,,,,,,,,,,,,,,,,,,,,,,,,,,,,,,,,,,,,,,,,,,,,,,,,,,,,,,,,,,,,,,,,,,,,MartinK,001,b,2019_Nov_08_1414,Experimento,3.2.3,59.991913158311846,
8,14,14,999,0.5,0:10,3,,,0,1,0,25:50,./completed_changuitos/montage_isexl_191.55_162.69.jpg,left,0,0,0,0,,,,,0,3,3,3,,,,,0,0,0,0,,,,,,,,,,,,,,,,,,,,,,,,,,,,,,,,,,,,,,,,,,219.8729158198113,222.0169035156852,222.0169035156852,230.03055065728185,230.03055065728185,244.0418475872443,left,1,1.297514439837414,244.0418475872443,None,244.0418475872443,None,244.0418475872443,None,,,,,,,,,,,,,,,,,,,,,,,,,,,,,,,,,,,,MartinK,001,b,2019_Nov_08_1414,Experimento,3.2.3,59.991913158311846,
8,14,14,999,0.5,0:10,3,,,0,1,0,25:50,,,0,0,0,0,,,,,0,3,3,3,,,,,,,,,,,,,,,,,,,,,,,,,,,,,,,,,,,,,,,,,,,,,,,,,,,,,,,,,,,,,,,,,,,,,,,,,,,,,,,,,,,,,,,,,,,,,,,,,,,,MartinK,001,b,2019_Nov_08_1414,Experimento,3.2.3,59.991913158311846,
8,14,14,999,0.5,0:10,3,Red,None,0,0,1,28:50,./completed_changuitos/montage_jsplc_29.85_25.69.jpg,left,0,0,0,0,,,,,0,4,4,4,,,,,,,,,0,0,0,0,0,0,0,0,,,,,,,,,,,,,,245.52438904051215,246.4908722847517,246.4908722847517,None,254.5378655241307,255.0377470843529,None,1,254.5378655241307,None,,,,,,,,,,,,,,,,,,,,,,,,,,,,,,,,,,,,,,,,,,,,,,,,,,,,,,,,,,,,,MartinK,001,b,2019_Nov_08_1414,Experimento,3.2.3,59.991913158311846,
8,14,14,999,0.5,0:10,3,Magenta,['space'],0,0,1,28:50,./completed_changuitos/montage_jsplc_29.85_25.69.jpg,left,0,0,0,0,,,,,0,4,4,4,,,,,,,,,0,0,0,0,0,1,1,1,,,,,,,,,,,,,,,,,,256.5370624893502,257.03695347240557,None,0,256.5370624893502,256.5370624893502,,,,,,,,,,,,,,,,,,,,,,,,,,,,,,,,,,,,,,,,,,,,,,,,,,,,,,,,,,,,,MartinK,001,b,2019_Nov_08_1414,Experimento,3.2.3,59.991913158311846,
8,14,14,999,0.5,0:10,3,Green,None,0,0,1,28:50,./completed_changuitos/montage_jsplc_29.85_25.69.jpg,left,0,0,0,0,,,,,0,4,4,4,,,,,,,,,0,0,0,0,0,2,2,2,,,,,,,,,,,,,,,,,,258.53635472988265,259.0362046189158,None,1,258.53635472988265,258.53635472988265,,,,,,,,,,,,,,,,,,,,,,,,,,,,,,,,,,,,,,,,,,,,,,,,,,,,,,,,,,,,,MartinK,001,b,2019_Nov_08_1414,Experimento,3.2.3,59.991913158311846,
8,14,14,999,0.5,0:10,3,Yellow,['space'],0,0,1,28:50,./completed_changuitos/montage_jsplc_29.85_25.69.jpg,left,0,0,0,0,,,,,0,4,4,4,,,,,,,,,0,0,0,0,0,3,3,3,,,,,,,,,,,,,,,,,,260.5356472321605,261.0355054970453,None,0,260.5356472321605,260.5356472321605,,,,,,,,,,,,,,,,,,,,,,,,,,,,,,,,,,,,,,,,,,,,,,,,,,,,,,,,,,,,,MartinK,001,b,2019_Nov_08_1414,Experimento,3.2.3,59.991913158311846,
8,14,14,999,0.5,0:10,3,Blue,None,0,0,1,28:50,./completed_changuitos/montage_jsplc_29.85_25.69.jpg,left,0,0,0,0,,,,,0,4,4,4,,,,,,,,,0,0,0,0,0,4,4,4,,,,,,,,,,,,,,,,,,262.5349219357536,263.03474460326856,None,1,262.5349219357536,262.5349219357536,,,,,,,,,,,,,,,,,,,,,,,,,,,,,,,,,,,,,,,,,,,,,,,,,,,,,,,,,,,,,MartinK,001,b,2019_Nov_08_1414,Experimento,3.2.3,59.991913158311846,
8,14,14,999,0.5,0:10,3,Cyan,None,0,0,1,28:50,./completed_changuitos/montage_jsplc_29.85_25.69.jpg,left,0,0,0,0,,,,,0,4,4,4,,,,,,,,,0,0,0,0,0,5,5,5,,,,,,,,,,,,,,,,,,264.53400739744745,265.0339860652002,None,1,264.53400739744745,264.53400739744745,,,,,,,,,,,,,,,,,,,,,,,,,,,,,,,,,,,,,,,,,,,,,,,,,,,,,,,,,,,,,MartinK,001,b,2019_Nov_08_1414,Experimento,3.2.3,59.991913158311846,
8,14,14,999,0.5,0:10,3,Blue,['space'],0,0,1,28:50,./completed_changuitos/montage_jsplc_29.85_25.69.jpg,left,0,0,0,0,,,,,0,4,4,4,,,,,,,,,0,0,0,0,0,6,6,6,,,,,,,,,,,,,,,,,,266.53349437653173,267.03322203047924,['return'],0,266.53349437653173,266.53349437653173,[0.3249696964303439],,,,,,,,,,,,,,,,,,,,,,,,,,,,,,,,,,,,,,,,,,,,,,,,,,,,,,,,,,,,MartinK,001,b,2019_Nov_08_1414,Experimento,3.2.3,59.991913158311846,
8,14,14,999,0.5,0:10,3,Yellow,None,0,0,1,28:50,./completed_changuitos/montage_jsplc_29.85_25.69.jpg,left,0,0,0,0,,,,,0,4,4,4,,,,,,,,,0,0,0,0,0,7,7,7,,,,,,,,,,,,,,,,,,268.5159637974751,None,None,1,268.5159637974751,None,,,,,,,,,,,,,,,,,,,,,,,,,,,,,,,,,,,,,,,,,,,,,,,,,,,,,,,,,,,,,MartinK,001,b,2019_Nov_08_1414,Experimento,3.2.3,59.991913158311846,
8,14,14,999,0.5,0:10,3,Cyan,None,0,0,1,28:50,./completed_changuitos/montage_jsplc_29.85_25.69.jpg,left,0,0,0,0,,,,,0,4,4,4,,,,,,,,,0,0,0,0,0,8,8,8,,,,,,,,,,,,,,,,,,268.5159637974751,None,None,1,268.5159637974751,None,,,,,,,,,,,,,,,,,,,,,,,,,,,,,,,,,,,,,,,,,,,,,,,,,,,,,,,,,,,,,MartinK,001,b,2019_Nov_08_1414,Experimento,3.2.3,59.991913158311846,
8,14,14,999,0.5,0:10,3,Yellow,['space'],0,0,1,28:50,./completed_changuitos/montage_jsplc_29.85_25.69.jpg,left,0,0,0,0,,,,,0,4,4,4,,,,,,,,,0,0,0,0,0,9,9,9,,,,,,,,,,,,,,,,,,268.5326153308972,None,None,0,268.5326153308972,None,,,,,,,,,,,,,,,,,,,,,,,,,,,,,,,,,,,,,,,,,,,,,,,,,,,,,,,,,,,,,MartinK,001,b,2019_Nov_08_1414,Experimento,3.2.3,59.991913158311846,
8,14,14,999,0.5,0:10,3,Magenta,None,0,0,1,28:50,./completed_changuitos/montage_jsplc_29.85_25.69.jpg,left,0,0,0,0,,,,,0,4,4,4,,,,,,,,,0,0,0,0,0,10,10,10,,,,,,,,,,,,,,,,,,268.5326153308972,None,None,1,268.5326153308972,None,,,,,,,,,,,,,,,,,,,,,,,,,,,,,,,,,,,,,,,,,,,,,,,,,,,,,,,,,,,,,MartinK,001,b,2019_Nov_08_1414,Experimento,3.2.3,59.991913158311846,
8,14,14,999,0.5,0:10,3,Red,None,0,0,1,28:50,./completed_changuitos/montage_jsplc_29.85_25.69.jpg,left,0,0,0,0,,,,,0,4,4,4,,,,,,,,,0,0,0,0,0,11,11,11,,,,,,,,,,,,,,,,,,268.5326153308972,None,None,1,268.5326153308972,None,,,,,,,,,,,,,,,,,,,,,,,,,,,,,,,,,,,,,,,,,,,,,,,,,,,,,,,,,,,,,MartinK,001,b,2019_Nov_08_1414,Experimento,3.2.3,59.991913158311846,
8,14,14,999,0.5,0:10,3,Magenta,['space'],0,0,1,28:50,./completed_changuitos/montage_jsplc_29.85_25.69.jpg,left,0,0,0,0,,,,,0,4,4,4,,,,,,,,,0,0,0,0,0,12,12,12,,,,,,,,,,,,,,,,,,268.5326153308972,None,None,0,268.5326153308972,None,,,,,,,,,,,,,,,,,,,,,,,,,,,,,,,,,,,,,,,,,,,,,,,,,,,,,,,,,,,,,MartinK,001,b,2019_Nov_08_1414,Experimento,3.2.3,59.991913158311846,
8,14,14,999,0.5,0:10,3,Red,['space'],0,0,1,28:50,./completed_changuitos/montage_jsplc_29.85_25.69.jpg,left,0,0,0,0,,,,,0,4,4,4,,,,,,,,,0,0,0,0,0,13,13,13,,,,,,,,,,,,,,,,,,268.54926686431935,None,None,0,268.54926686431935,None,,,,,,,,,,,,,,,,,,,,,,,,,,,,,,,,,,,,,,,,,,,,,,,,,,,,,,,,,,,,,MartinK,001,b,2019_Nov_08_1414,Experimento,3.2.3,59.991913158311846,
8,14,14,999,0.5,0:10,3,Yellow,None,0,0,1,28:50,./completed_changuitos/montage_jsplc_29.85_25.69.jpg,left,0,0,0,0,,,,,0,4,4,4,,,,,,,,,0,0,0,0,0,14,14,14,,,,,,,,,,,,,,,,,,268.54926686431935,None,None,1,268.54926686431935,None,,,,,,,,,,,,,,,,,,,,,,,,,,,,,,,,,,,,,,,,,,,,,,,,,,,,,,,,,,,,,MartinK,001,b,2019_Nov_08_1414,Experimento,3.2.3,59.991913158311846,
8,14,14,999,0.5,0:10,3,Cyan,None,0,0,1,28:50,./completed_changuitos/montage_jsplc_29.85_25.69.jpg,left,0,0,0,0,,,,,0,4,4,4,,,,,,,,,0,0,0,0,0,15,15,15,,,,,,,,,,,,,,,,,,268.54926686431935,None,None,1,268.54926686431935,None,,,,,,,,,,,,,,,,,,,,,,,,,,,,,,,,,,,,,,,,,,,,,,,,,,,,,,,,,,,,,MartinK,001,b,2019_Nov_08_1414,Experimento,3.2.3,59.991913158311846,
8,14,14,999,0.5,0:10,3,Green,None,0,0,1,28:50,./completed_changuitos/montage_jsplc_29.85_25.69.jpg,left,0,0,0,0,,,,,0,4,4,4,,,,,,,,,0,0,0,0,0,16,16,16,,,,,,,,,,,,,,,,,,268.5659183977415,None,None,1,268.5659183977415,None,,,,,,,,,,,,,,,,,,,,,,,,,,,,,,,,,,,,,,,,,,,,,,,,,,,,,,,,,,,,,MartinK,001,b,2019_Nov_08_1414,Experimento,3.2.3,59.991913158311846,
8,14,14,999,0.5,0:10,3,White,None,0,0,1,28:50,./completed_changuitos/montage_jsplc_29.85_25.69.jpg,left,0,0,0,0,,,,,0,4,4,4,,,,,,,,,0,0,0,0,0,17,17,17,,,,,,,,,,,,,,,,,,268.5659183977415,None,None,1,268.5659183977415,None,,,,,,,,,,,,,,,,,,,,,,,,,,,,,,,,,,,,,,,,,,,,,,,,,,,,,,,,,,,,,MartinK,001,b,2019_Nov_08_1414,Experimento,3.2.3,59.991913158311846,
8,14,14,999,0.5,0:10,3,Green,['space'],0,0,1,28:50,./completed_changuitos/montage_jsplc_29.85_25.69.jpg,left,0,0,0,0,,,,,0,4,4,4,,,,,,,,,0,0,0,0,0,18,18,18,,,,,,,,,,,,,,,,,,268.5659183977415,None,None,0,268.5659183977415,None,,,,,,,,,,,,,,,,,,,,,,,,,,,,,,,,,,,,,,,,,,,,,,,,,,,,,,,,,,,,,MartinK,001,b,2019_Nov_08_1414,Experimento,3.2.3,59.991913158311846,
8,14,14,999,0.5,0:10,3,Red,None,0,0,1,28:50,./completed_changuitos/montage_jsplc_29.85_25.69.jpg,left,0,0,0,0,,,,,0,4,4,4,,,,,,,,,0,0,0,0,0,19,19,19,,,,,,,,,,,,,,,,,,268.5659183977415,None,None,1,268.5659183977415,None,,,,,,,,,,,,,,,,,,,,,,,,,,,,,,,,,,,,,,,,,,,,,,,,,,,,,,,,,,,,,MartinK,001,b,2019_Nov_08_1414,Experimento,3.2.3,59.991913158311846,
8,14,14,999,0.5,0:10,3,Blue,None,0,0,1,28:50,./completed_changuitos/montage_jsplc_29.85_25.69.jpg,left,0,0,0,0,,,,,0,4,4,4,,,,,,,,,0,0,0,0,0,20,20,20,,,,,,,,,,,,,,,,,,268.5825699311636,None,None,1,268.5825699311636,None,,,,,,,,,,,,,,,,,,,,,,,,,,,,,,,,,,,,,,,,,,,,,,,,,,,,,,,,,,,,,MartinK,001,b,2019_Nov_08_1414,Experimento,3.2.3,59.991913158311846,
8,14,14,999,0.5,0:10,3,Green,None,0,0,1,28:50,./completed_changuitos/montage_jsplc_29.85_25.69.jpg,left,0,0,0,0,,,,,0,4,4,4,,,,,,,,,0,0,0,0,0,21,21,21,,,,,,,,,,,,,,,,,,268.5825699311636,None,None,1,268.5825699311636,None,,,,,,,,,,,,,,,,,,,,,,,,,,,,,,,,,,,,,,,,,,,,,,,,,,,,,,,,,,,,,MartinK,001,b,2019_Nov_08_1414,Experimento,3.2.3,59.991913158311846,
8,14,14,999,0.5,0:10,3,,,0,0,1,28:50,./completed_changuitos/montage_jsplc_29.85_25.69.jpg,left,0,0,0,0,,,,,0,4,4,4,,,,,,,,,0,0,0,0,,,,,,,,,,,,,,,,,,,,,,,,,,,,,268.65337977394097,None,right,0,1.9819932276004124,268.65337977394097,None,268.65337977394097,None,,,,,,,,,,,,,,,,,,,,,,,,,,,,,,,,,,,,,,,,,,,,,,,,,,,MartinK,001,b,2019_Nov_08_1414,Experimento,3.2.3,59.991913158311846,
8,14,14,999,0.5,0:10,3,,,0,0,1,28:50,,,0,0,0,0,,,,,0,4,4,4,,,,,,,,,,,,,,,,,,,,,,,,,,,,,,,,,,,,,,,,,,,,,,,,,,,,,,,,,,,,,,,,,,,,,,,,,,,,,,,,,,,,,,,,,,,,,,,,,,,,MartinK,001,b,2019_Nov_08_1414,Experimento,3.2.3,59.991913158311846,
8,14,14,999,0.5,0:10,3,,,0,1,0,10:50,./completed_changuitos/montage_cpmfo_390.0_341.35.jpg,left,0,0,0,0,,,,,0,5,5,5,,,,,0,0,0,0,,,,,,,,,,,,,,,,,,,,,,,,,,,,,,,,,,,,,,,,,,270.83548099767904,272.29783403092836,272.29783403092836,280.3114754141269,280.3114754141269,294.32288123016133,right,0,0.5980789984156445,294.32288123016133,None,294.32288123016133,None,294.32288123016133,None,,,,,,,,,,,,,,,,,,,,,,,,,,,,,,,,,,,,MartinK,001,b,2019_Nov_08_1414,Experimento,3.2.3,59.991913158311846,
8,14,14,999,0.5,0:10,3,,,0,1,0,10:50,,,0,0,0,0,,,,,0,5,5,5,,,,,,,,,,,,,,,,,,,,,,,,,,,,,,,,,,,,,,,,,,,,,,,,,,,,,,,,,,,,,,,,,,,,,,,,,,,,,,,,,,,,,,,,,,,,,,,,,,,,MartinK,001,b,2019_Nov_08_1414,Experimento,3.2.3,59.991913158311846,
8,14,14,999,0.5,0:10,3,Yellow,None,0,0,1,15:50,./completed_changuitos/montage_bejkl_137.5_157.29.jpg,right,0,0,0,0,,,,,0,6,6,6,,,,,,,,,0,0,0,0,0,0,0,0,,,,,,,,,,,,,,295.1058600337599,295.9222236734548,295.9222236734548,None,303.96906195957763,304.4689094929024,None,1,303.96906195957763,None,,,,,,,,,,,,,,,,,,,,,,,,,,,,,,,,,,,,,,,,,,,,,,,,,,,,,,,,,,,,,MartinK,001,b,2019_Nov_08_1414,Experimento,3.2.3,59.991913158311846,
8,14,14,999,0.5,0:10,3,White,['space'],0,0,1,15:50,./completed_changuitos/montage_bejkl_137.5_157.29.jpg,right,0,0,0,0,,,,,0,6,6,6,,,,,,,,,0,0,0,0,0,1,1,1,,,,,,,,,,,,,,,,,,305.96849606609806,306.4682030421617,None,0,305.96849606609806,305.96849606609806,,,,,,,,,,,,,,,,,,,,,,,,,,,,,,,,,,,,,,,,,,,,,,,,,,,,,,,,,,,,,MartinK,001,b,2019_Nov_08_1414,Experimento,3.2.3,59.991913158311846,
8,14,14,999,0.5,0:10,3,Magenta,None,0,0,1,15:50,./completed_changuitos/montage_bejkl_137.5_157.29.jpg,right,0,0,0,0,,,,,0,6,6,6,,,,,,,,,0,0,0,0,0,2,2,2,,,,,,,,,,,,,,,,,,307.9676451319157,308.46752485992045,None,1,307.9676451319157,307.9676451319157,,,,,,,,,,,,,,,,,,,,,,,,,,,,,,,,,,,,,,,,,,,,,,,,,,,,,,,,,,,,,MartinK,001,b,2019_Nov_08_1414,Experimento,3.2.3,59.991913158311846,
8,14,14,999,0.5,0:10,3,Cyan,None,0,0,1,15:50,./completed_changuitos/montage_bejkl_137.5_157.29.jpg,right,0,0,0,0,,,,,0,6,6,6,,,,,,,,,0,0,0,0,0,3,3,3,,,,,,,,,,,,,,,,,,309.9668193252885,310.46667680493715,None,1,309.9668193252885,309.9668193252885,,,,,,,,,,,,,,,,,,,,,,,,,,,,,,,,,,,,,,,,,,,,,,,,,,,,,,,,,,,,,MartinK,001,b,2019_Nov_08_1414,Experimento,3.2.3,59.991913158311846,
8,14,14,999,0.5,0:10,3,Blue,None,0,0,1,15:50,./completed_changuitos/montage_bejkl_137.5_157.29.jpg,right,0,0,0,0,,,,,0,6,6,6,,,,,,,,,0,0,0,0,0,4,4,4,,,,,,,,,,,,,,,,,,311.9662741096928,312.46598919986275,None,1,311.9662741096928,311.9662741096928,,,,,,,,,,,,,,,,,,,,,,,,,,,,,,,,,,,,,,,,,,,,,,,,,,,,,,,,,,,,,MartinK,001,b,2019_Nov_08_1414,Experimento,3.2.3,59.991913158311846,
8,14,14,999,0.5,0:10,3,Magenta,None,0,0,1,15:50,./completed_changuitos/montage_bejkl_137.5_157.29.jpg,right,0,0,0,0,,,,,0,6,6,6,,,,,,,,,0,0,0,0,0,5,5,5,,,,,,,,,,,,,,,,,,313.96544699433866,314.4651204669956,None,1,313.96544699433866,313.96544699433866,,,,,,,,,,,,,,,,,,,,,,,,,,,,,,,,,,,,,,,,,,,,,,,,,,,,,,,,,,,,,MartinK,001,b,2019_Nov_08_1414,Experimento,3.2.3,59.991913158311846,
8,14,14,999,0.5,0:10,3,Blue,['space'],0,0,1,15:50,./completed_changuitos/montage_bejkl_137.5_157.29.jpg,right,0,0,0,0,,,,,0,6,6,6,,,,,,,,,0,0,0,0,0,6,6,6,,,,,,,,,,,,,,,,,,315.96457983194375,316.46436297590867,None,0,315.96457983194375,315.96457983194375,,,,,,,,,,,,,,,,,,,,,,,,,,,,,,,,,,,,,,,,,,,,,,,,,,,,,,,,,,,,,MartinK,001,b,2019_Nov_08_1414,Experimento,3.2.3,59.991913158311846,
8,14,14,999,0.5,0:10,3,Cyan,None,0,0,1,15:50,./completed_changuitos/montage_bejkl_137.5_157.29.jpg,right,0,0,0,0,,,,,0,6,6,6,,,,,,,,,0,0,0,0,0,7,7,7,,,,,,,,,,,,,,,,,,317.94724425318424,None,None,1,317.94724425318424,None,,,,,,,,,,,,,,,,,,,,,,,,,,,,,,,,,,,,,,,,,,,,,,,,,,,,,,,,,,,,,MartinK,001,b,2019_Nov_08_1414,Experimento,3.2.3,59.991913158311846,
8,14,14,999,0.5,0:10,3,Yellow,None,0,0,1,15:50,./completed_changuitos/montage_bejkl_137.5_157.29.jpg,right,0,0,0,0,,,,,0,6,6,6,,,,,,,,,0,0,0,0,0,8,8,8,,,,,,,,,,,,,,,,,,317.94724425318424,None,None,1,317.94724425318424,None,,,,,,,,,,,,,,,,,,,,,,,,,,,,,,,,,,,,,,,,,,,,,,,,,,,,,,,,,,,,,MartinK,001,b,2019_Nov_08_1414,Experimento,3.2.3,59.991913158311846,
8,14,14,999,0.5,0:10,3,Cyan,None,0,0,1,15:50,./completed_changuitos/montage_bejkl_137.5_157.29.jpg,right,0,0,0,0,,,,,0,6,6,6,,,,,,,,,0,0,0,0,0,9,9,9,,,,,,,,,,,,,,,,,,317.94724425318424,None,None,1,317.94724425318424,None,,,,,,,,,,,,,,,,,,,,,,,,,,,,,,,,,,,,,,,,,,,,,,,,,,,,,,,,,,,,,MartinK,001,b,2019_Nov_08_1414,Experimento,3.2.3,59.991913158311846,
8,14,14,999,0.5,0:10,3,Blue,None,0,0,1,15:50,./completed_changuitos/montage_bejkl_137.5_157.29.jpg,right,0,0,0,0,,,,,0,6,6,6,,,,,,,,,0,0,0,0,0,10,10,10,,,,,,,,,,,,,,,,,,317.9638957866064,None,None,1,317.9638957866064,None,,,,,,,,,,,,,,,,,,,,,,,,,,,,,,,,,,,,,,,,,,,,,,,,,,,,,,,,,,,,,MartinK,001,b,2019_Nov_08_1414,Experimento,3.2.3,59.991913158311846,
8,14,14,999,0.5,0:10,3,Cyan,['space'],0,0,1,15:50,./completed_changuitos/montage_bejkl_137.5_157.29.jpg,right,0,0,0,0,,,,,0,6,6,6,,,,,,,,,0,0,0,0,0,11,11,11,,,,,,,,,,,,,,,,,,317.9638957866064,None,None,0,317.9638957866064,None,,,,,,,,,,,,,,,,,,,,,,,,,,,,,,,,,,,,,,,,,,,,,,,,,,,,,,,,,,,,,MartinK,001,b,2019_Nov_08_1414,Experimento,3.2.3,59.991913158311846,
8,14,14,999,0.5,0:10,3,Magenta,None,0,0,1,15:50,./completed_changuitos/montage_bejkl_137.5_157.29.jpg,right,0,0,0,0,,,,,0,6,6,6,,,,,,,,,0,0,0,0,0,12,12,12,,,,,,,,,,,,,,,,,,317.9638957866064,None,None,1,317.9638957866064,None,,,,,,,,,,,,,,,,,,,,,,,,,,,,,,,,,,,,,,,,,,,,,,,,,,,,,,,,,,,,,MartinK,001,b,2019_Nov_08_1414,Experimento,3.2.3,59.991913158311846,
8,14,14,999,0.5,0:10,3,Red,None,0,0,1,15:50,./completed_changuitos/montage_bejkl_137.5_157.29.jpg,right,0,0,0,0,,,,,0,6,6,6,,,,,,,,,0,0,0,0,0,13,13,13,,,,,,,,,,,,,,,,,,317.9805473200285,None,None,1,317.9805473200285,None,,,,,,,,,,,,,,,,,,,,,,,,,,,,,,,,,,,,,,,,,,,,,,,,,,,,,,,,,,,,,MartinK,001,b,2019_Nov_08_1414,Experimento,3.2.3,59.991913158311846,
8,14,14,999,0.5,0:10,3,Magenta,['space'],0,0,1,15:50,./completed_changuitos/montage_bejkl_137.5_157.29.jpg,right,0,0,0,0,,,,,0,6,6,6,,,,,,,,,0,0,0,0,0,14,14,14,,,,,,,,,,,,,,,,,,317.9805473200285,None,None,0,317.9805473200285,None,,,,,,,,,,,,,,,,,,,,,,,,,,,,,,,,,,,,,,,,,,,,,,,,,,,,,,,,,,,,,MartinK,001,b,2019_Nov_08_1414,Experimento,3.2.3,59.991913158311846,
8,14,14,999,0.5,0:10,3,Green,None,0,0,1,15:50,./completed_changuitos/montage_bejkl_137.5_157.29.jpg,right,0,0,0,0,,,,,0,6,6,6,,,,,,,,,0,0,0,0,0,15,15,15,,,,,,,,,,,,,,,,,,317.9805473200285,None,None,1,317.9805473200285,None,,,,,,,,,,,,,,,,,,,,,,,,,,,,,,,,,,,,,,,,,,,,,,,,,,,,,,,,,,,,,MartinK,001,b,2019_Nov_08_1414,Experimento,3.2.3,59.991913158311846,
8,14,14,999,0.5,0:10,3,Yellow,['space'],0,0,1,15:50,./completed_changuitos/montage_bejkl_137.5_157.29.jpg,right,0,0,0,0,,,,,0,6,6,6,,,,,,,,,0,0,0,0,0,16,16,16,,,,,,,,,,,,,,,,,,317.9805473200285,None,None,0,317.9805473200285,None,,,,,,,,,,,,,,,,,,,,,,,,,,,,,,,,,,,,,,,,,,,,,,,,,,,,,,,,,,,,,MartinK,001,b,2019_Nov_08_1414,Experimento,3.2.3,59.991913158311846,
8,14,14,999,0.5,0:10,3,Blue,None,0,0,1,15:50,./completed_changuitos/montage_bejkl_137.5_157.29.jpg,right,0,0,0,0,,,,,0,6,6,6,,,,,,,,,0,0,0,0,0,17,17,17,,,,,,,,,,,,,,,,,,317.9805473200285,None,None,1,317.9805473200285,None,,,,,,,,,,,,,,,,,,,,,,,,,,,,,,,,,,,,,,,,,,,,,,,,,,,,,,,,,,,,,MartinK,001,b,2019_Nov_08_1414,Experimento,3.2.3,59.991913158311846,
8,14,14,999,0.5,0:10,3,Cyan,None,0,0,1,15:50,./completed_changuitos/montage_bejkl_137.5_157.29.jpg,right,0,0,0,0,,,,,0,6,6,6,,,,,,,,,0,0,0,0,0,18,18,18,,,,,,,,,,,,,,,,,,317.99719885345064,None,None,1,317.99719885345064,None,,,,,,,,,,,,,,,,,,,,,,,,,,,,,,,,,,,,,,,,,,,,,,,,,,,,,,,,,,,,,MartinK,001,b,2019_Nov_08_1414,Experimento,3.2.3,59.991913158311846,
8,14,14,999,0.5,0:10,3,Blue,['space'],0,0,1,15:50,./completed_changuitos/montage_bejkl_137.5_157.29.jpg,right,0,0,0,0,,,,,0,6,6,6,,,,,,,,,0,0,0,0,0,19,19,19,,,,,,,,,,,,,,,,,,317.99719885345064,None,None,0,317.99719885345064,None,,,,,,,,,,,,,,,,,,,,,,,,,,,,,,,,,,,,,,,,,,,,,,,,,,,,,,,,,,,,,MartinK,001,b,2019_Nov_08_1414,Experimento,3.2.3,59.991913158311846,
8,14,14,999,0.5,0:10,3,Yellow,None,0,0,1,15:50,./completed_changuitos/montage_bejkl_137.5_157.29.jpg,right,0,0,0,0,,,,,0,6,6,6,,,,,,,,,0,0,0,0,0,20,20,20,,,,,,,,,,,,,,,,,,317.99719885345064,None,None,1,317.99719885345064,None,,,,,,,,,,,,,,,,,,,,,,,,,,,,,,,,,,,,,,,,,,,,,,,,,,,,,,,,,,,,,MartinK,001,b,2019_Nov_08_1414,Experimento,3.2.3,59.991913158311846,
8,14,14,999,0.5,0:10,3,Cyan,None,0,0,1,15:50,./completed_changuitos/montage_bejkl_137.5_157.29.jpg,right,0,0,0,0,,,,,0,6,6,6,,,,,,,,,0,0,0,0,0,21,21,21,,,,,,,,,,,,,,,,,,317.99719885345064,None,None,1,317.99719885345064,None,,,,,,,,,,,,,,,,,,,,,,,,,,,,,,,,,,,,,,,,,,,,,,,,,,,,,,,,,,,,,MartinK,001,b,2019_Nov_08_1414,Experimento,3.2.3,59.991913158311846,
8,14,14,999,0.5,0:10,3,Yellow,['space'],0,0,1,15:50,./completed_changuitos/montage_bejkl_137.5_157.29.jpg,right,0,0,0,0,,,,,0,6,6,6,,,,,,,,,0,0,0,0,0,22,22,22,,,,,,,,,,,,,,,,,,317.99719885345064,None,None,0,317.99719885345064,None,,,,,,,,,,,,,,,,,,,,,,,,,,,,,,,,,,,,,,,,,,,,,,,,,,,,,,,,,,,,,MartinK,001,b,2019_Nov_08_1414,Experimento,3.2.3,59.991913158311846,
8,14,14,999,0.5,0:10,3,Magenta,None,0,0,1,15:50,./completed_changuitos/montage_bejkl_137.5_157.29.jpg,right,0,0,0,0,,,,,0,6,6,6,,,,,,,,,0,0,0,0,0,23,23,23,,,,,,,,,,,,,,,,,,317.99719885345064,None,None,1,317.99719885345064,None,,,,,,,,,,,,,,,,,,,,,,,,,,,,,,,,,,,,,,,,,,,,,,,,,,,,,,,,,,,,,MartinK,001,b,2019_Nov_08_1414,Experimento,3.2.3,59.991913158311846,
8,14,14,999,0.5,0:10,3,Red,None,0,0,1,15:50,./completed_changuitos/montage_bejkl_137.5_157.29.jpg,right,0,0,0,0,,,,,0,6,6,6,,,,,,,,,0,0,0,0,0,24,24,24,,,,,,,,,,,,,,,,,,318.0138503868728,None,None,1,318.0138503868728,None,,,,,,,,,,,,,,,,,,,,,,,,,,,,,,,,,,,,,,,,,,,,,,,,,,,,,,,,,,,,,MartinK,001,b,2019_Nov_08_1414,Experimento,3.2.3,59.991913158311846,
8,14,14,999,0.5,0:10,3,Magenta,['space'],0,0,1,15:50,./completed_changuitos/montage_bejkl_137.5_157.29.jpg,right,0,0,0,0,,,,,0,6,6,6,,,,,,,,,0,0,0,0,0,25,25,25,,,,,,,,,,,,,,,,,,318.0138503868728,None,None,0,318.0138503868728,None,,,,,,,,,,,,,,,,,,,,,,,,,,,,,,,,,,,,,,,,,,,,,,,,,,,,,,,,,,,,,MartinK,001,b,2019_Nov_08_1414,Experimento,3.2.3,59.991913158311846,
8,14,14,999,0.5,0:10,3,Red,['space'],0,0,1,15:50,./completed_changuitos/montage_bejkl_137.5_157.29.jpg,right,0,0,0,0,,,,,0,6,6,6,,,,,,,,,0,0,0,0,0,26,26,26,,,,,,,,,,,,,,,,,,318.0138503868728,None,None,0,318.0138503868728,None,,,,,,,,,,,,,,,,,,,,,,,,,,,,,,,,,,,,,,,,,,,,,,,,,,,,,,,,,,,,,MartinK,001,b,2019_Nov_08_1414,Experimento,3.2.3,59.991913158311846,
8,14,14,999,0.5,0:10,3,Yellow,None,0,0,1,15:50,./completed_changuitos/montage_bejkl_137.5_157.29.jpg,right,0,0,0,0,,,,,0,6,6,6,,,,,,,,,0,0,0,0,0,27,27,27,,,,,,,,,,,,,,,,,,318.0138503868728,None,None,1,318.0138503868728,None,,,,,,,,,,,,,,,,,,,,,,,,,,,,,,,,,,,,,,,,,,,,,,,,,,,,,,,,,,,,,MartinK,001,b,2019_Nov_08_1414,Experimento,3.2.3,59.991913158311846,
8,14,14,999,0.5,0:10,3,Cyan,None,0,0,1,15:50,./completed_changuitos/montage_bejkl_137.5_157.29.jpg,right,0,0,0,0,,,,,0,6,6,6,,,,,,,,,0,0,0,0,0,28,28,28,,,,,,,,,,,,,,,,,,318.0138503868728,None,None,1,318.0138503868728,None,,,,,,,,,,,,,,,,,,,,,,,,,,,,,,,,,,,,,,,,,,,,,,,,,,,,,,,,,,,,,MartinK,001,b,2019_Nov_08_1414,Experimento,3.2.3,59.991913158311846,
8,14,14,999,0.5,0:10,3,Green,None,0,0,1,15:50,./completed_changuitos/montage_bejkl_137.5_157.29.jpg,right,0,0,0,0,,,,,0,6,6,6,,,,,,,,,0,0,0,0,0,29,29,29,,,,,,,,,,,,,,,,,,318.0305019202949,None,None,1,318.0305019202949,None,,,,,,,,,,,,,,,,,,,,,,,,,,,,,,,,,,,,,,,,,,,,,,,,,,,,,,,,,,,,,MartinK,001,b,2019_Nov_08_1414,Experimento,3.2.3,59.991913158311846,
8,14,14,999,0.5,0:10,3,White,None,0,0,1,15:50,./completed_changuitos/montage_bejkl_137.5_157.29.jpg,right,0,0,0,0,,,,,0,6,6,6,,,,,,,,,0,0,0,0,0,30,30,30,,,,,,,,,,,,,,,,,,318.0305019202949,None,None,1,318.0305019202949,None,,,,,,,,,,,,,,,,,,,,,,,,,,,,,,,,,,,,,,,,,,,,,,,,,,,,,,,,,,,,,MartinK,001,b,2019_Nov_08_1414,Experimento,3.2.3,59.991913158311846,
8,14,14,999,0.5,0:10,3,Green,['space'],0,0,1,15:50,./completed_changuitos/montage_bejkl_137.5_157.29.jpg,right,0,0,0,0,,,,,0,6,6,6,,,,,,,,,0,0,0,0,0,31,31,31,,,,,,,,,,,,,,,,,,318.0305019202949,None,None,0,318.0305019202949,None,,,,,,,,,,,,,,,,,,,,,,,,,,,,,,,,,,,,,,,,,,,,,,,,,,,,,,,,,,,,,MartinK,001,b,2019_Nov_08_1414,Experimento,3.2.3,59.991913158311846,
8,14,14,999,0.5,0:10,3,Red,None,0,0,1,15:50,./completed_changuitos/montage_bejkl_137.5_157.29.jpg,right,0,0,0,0,,,,,0,6,6,6,,,,,,,,,0,0,0,0,0,32,32,32,,,,,,,,,,,,,,,,,,318.0305019202949,None,None,1,318.0305019202949,None,,,,,,,,,,,,,,,,,,,,,,,,,,,,,,,,,,,,,,,,,,,,,,,,,,,,,,,,,,,,,MartinK,001,b,2019_Nov_08_1414,Experimento,3.2.3,59.991913158311846,
8,14,14,999,0.5,0:10,3,Blue,None,0,0,1,15:50,./completed_changuitos/montage_bejkl_137.5_157.29.jpg,right,0,0,0,0,,,,,0,6,6,6,,,,,,,,,0,0,0,0,0,33,33,33,,,,,,,,,,,,,,,,,,318.0305019202949,None,None,1,318.0305019202949,None,,,,,,,,,,,,,,,,,,,,,,,,,,,,,,,,,,,,,,,,,,,,,,,,,,,,,,,,,,,,,MartinK,001,b,2019_Nov_08_1414,Experimento,3.2.3,59.991913158311846,
8,14,14,999,0.5,0:10,3,Green,None,0,0,1,15:50,./completed_changuitos/montage_bejkl_137.5_157.29.jpg,right,0,0,0,0,,,,,0,6,6,6,,,,,,,,,0,0,0,0,0,34,34,34,,,,,,,,,,,,,,,,,,318.0305019202949,None,None,1,318.0305019202949,None,,,,,,,,,,,,,,,,,,,,,,,,,,,,,,,,,,,,,,,,,,,,,,,,,,,,,,,,,,,,,MartinK,001,b,2019_Nov_08_1414,Experimento,3.2.3,59.991913158311846,
8,14,14,999,0.5,0:10,3,,,0,0,1,15:50,./completed_changuitos/montage_bejkl_137.5_157.29.jpg,right,0,0,0,0,,,,,0,6,6,6,,,,,,,,,0,0,0,0,,,,,,,,,,,,,,,,,,,,,,,,,,,,,318.1165235399385,None,left,0,1.127139931951433,318.1165235399385,None,318.1165235399385,None,,,,,,,,,,,,,,,,,,,,,,,,,,,,,,,,,,,,,,,,,,,,,,,,,,,MartinK,001,b,2019_Nov_08_1414,Experimento,3.2.3,59.991913158311846,
8,14,14,999,0.5,0:10,3,,,0,0,1,15:50,,,0,0,0,0,,,,,0,6,6,6,,,,,,,,,,,,,,,,,,,,,,,,,,,,,,,,,,,,,,,,,,,,,,,,,,,,,,,,,,,,,,,,,,,,,,,,,,,,,,,,,,,,,,,,,,,,,,,,,,,,MartinK,001,b,2019_Nov_08_1414,Experimento,3.2.3,59.991913158311846,
8,14,14,999,0.5,0:10,3,,,0,1,0,19:50,./completed_changuitos/montage_fqyot_115.55_131.6.jpg,right,0,0,0,0,,,,,0,7,7,7,,,,,0,0,0,0,,,,,,,,,,,,,,,,,,,,,,,,,,,,,,,,,,,,,,,,,,319.4630361886524,321.8955507737586,321.8955507737586,329.9093887277264,329.9093887277264,343.920651369046,right,1,0.9018138168573842,343.920651369046,None,343.920651369046,None,343.920651369046,None,,,,,,,,,,,,,,,,,,,,,,,,,,,,,,,,,,,,MartinK,001,b,2019_Nov_08_1414,Experimento,3.2.3,59.991913158311846,
8,14,14,999,0.5,0:10,3,,,0,1,0,19:50,,,0,0,0,0,,,,,0,7,7,7,,,,,,,,,,,,,,,,,,,,,,,,,,,,,,,,,,,,,,,,,,,,,,,,,,,,,,,,,,,,,,,,,,,,,,,,,,,,,,,,,,,,,,,,,,,,,,,,,,,,MartinK,001,b,2019_Nov_08_1414,Experimento,3.2.3,59.991913158311846,
8,14,14,999,0.5,0:10,3,Magenta,None,0,0,1,20:50,./completed_changuitos/montage_hlrfn_126.25_145.0.jpg,right,0,0,0,0,,,,,0,8,8,8,,,,,,,,,0,0,0,0,0,0,0,0,,,,,,,,,,,,,,345.0202182589902,346.6696718524531,346.6696718524531,None,354.716549662126,355.21632495373,None,1,354.716549662126,None,,,,,,,,,,,,,,,,,,,,,,,,,,,,,,,,,,,,,,,,,,,,,,,,,,,,,,,,,,,,,MartinK,001,b,2019_Nov_08_1414,Experimento,3.2.3,59.991913158311846,
8,14,14,999,0.5,0:10,3,Blue,['space'],0,0,1,20:50,./completed_changuitos/montage_hlrfn_126.25_145.0.jpg,right,0,0,0,0,,,,,0,8,8,8,,,,,,,,,0,0,0,0,0,1,1,1,,,,,,,,,,,,,,,,,,356.71588901682424,357.21563603992877,None,0,356.71588901682424,356.71588901682424,,,,,,,,,,,,,,,,,,,,,,,,,,,,,,,,,,,,,,,,,,,,,,,,,,,,,,,,,,,,,MartinK,001,b,2019_Nov_08_1414,Experimento,3.2.3,59.991913158311846,
8,14,14,999,0.5,0:10,3,Cyan,None,0,0,1,20:50,./completed_changuitos/montage_hlrfn_126.25_145.0.jpg,right,0,0,0,0,,,,,0,8,8,8,,,,,,,,,0,0,0,0,0,2,2,2,,,,,,,,,,,,,,,,,,358.7151485391861,359.2149858644416,None,1,358.7151485391861,358.7151485391861,,,,,,,,,,,,,,,,,,,,,,,,,,,,,,,,,,,,,,,,,,,,,,,,,,,,,,,,,,,,,MartinK,001,b,2019_Nov_08_1414,Experimento,3.2.3,59.991913158311846,
8,14,14,999,0.5,0:10,3,Yellow,None,0,0,1,20:50,./completed_changuitos/montage_hlrfn_126.25_145.0.jpg,right,0,0,0,0,,,,,0,8,8,8,,,,,,,,,0,0,0,0,0,3,3,3,,,,,,,,,,,,,,,,,,360.7143546654934,361.2141571786153,None,1,360.7143546654934,360.7143546654934,,,,,,,,,,,,,,,,,,,,,,,,,,,,,,,,,,,,,,,,,,,,,,,,,,,,,,,,,,,,,MartinK,001,b,2019_Nov_08_1414,Experimento,3.2.3,59.991913158311846,
8,14,14,999,0.5,0:10,3,Cyan,None,0,0,1,20:50,./completed_changuitos/montage_hlrfn_126.25_145.0.jpg,right,0,0,0,0,,,,,0,8,8,8,,,,,,,,,0,0,0,0,0,4,4,4,,,,,,,,,,,,,,,,,,362.7135880133187,363.2133373921315,['return'],0,362.7135880133187,362.7135880133187,[0.8278846236900108],,,,,,,,,,,,,,,,,,,,,,,,,,,,,,,,,,,,,,,,,,,,,,,,,,,,,,,,,,,,MartinK,001,b,2019_Nov_08_1414,Experimento,3.2.3,59.991913158311846,
8,14,14,999,0.5,0:10,3,Blue,None,0,0,1,20:50,./completed_changuitos/montage_hlrfn_126.25_145.0.jpg,right,0,0,0,0,,,,,0,8,8,8,,,,,,,,,0,0,0,0,0,5,5,5,,,,,,,,,,,,,,,,,,364.7128245020883,365.21260816954396,None,1,364.7128245020883,364.7128245020883,,,,,,,,,,,,,,,,,,,,,,,,,,,,,,,,,,,,,,,,,,,,,,,,,,,,,,,,,,,,,MartinK,001,b,2019_Nov_08_1414,Experimento,3.2.3,59.991913158311846,
8,14,14,999,0.5,0:10,3,Cyan,['space'],0,0,1,20:50,./completed_changuitos/montage_hlrfn_126.25_145.0.jpg,right,0,0,0,0,,,,,0,8,8,8,,,,,,,,,0,0,0,0,0,6,6,6,,,,,,,,,,,,,,,,,,366.71200576258593,367.21183942340633,None,0,366.71200576258593,366.71200576258593,,,,,,,,,,,,,,,,,,,,,,,,,,,,,,,,,,,,,,,,,,,,,,,,,,,,,,,,,,,,,MartinK,001,b,2019_Nov_08_1414,Experimento,3.2.3,59.991913158311846,
8,14,14,999,0.5,0:10,3,Magenta,None,0,0,1,20:50,./completed_changuitos/montage_hlrfn_126.25_145.0.jpg,right,0,0,0,0,,,,,0,8,8,8,,,,,,,,,0,0,0,0,0,7,7,7,,,,,,,,,,,,,,,,,,368.6946733247708,None,None,1,368.6946733247708,None,,,,,,,,,,,,,,,,,,,,,,,,,,,,,,,,,,,,,,,,,,,,,,,,,,,,,,,,,,,,,MartinK,001,b,2019_Nov_08_1414,Experimento,3.2.3,59.991913158311846,
8,14,14,999,0.5,0:10,3,Red,None,0,0,1,20:50,./completed_changuitos/montage_hlrfn_126.25_145.0.jpg,right,0,0,0,0,,,,,0,8,8,8,,,,,,,,,0,0,0,0,0,8,8,8,,,,,,,,,,,,,,,,,,368.6946733247708,None,None,1,368.6946733247708,None,,,,,,,,,,,,,,,,,,,,,,,,,,,,,,,,,,,,,,,,,,,,,,,,,,,,,,,,,,,,,MartinK,001,b,2019_Nov_08_1414,Experimento,3.2.3,59.991913158311846,
8,14,14,999,0.5,0:10,3,Magenta,['space'],0,0,1,20:50,./completed_changuitos/montage_hlrfn_126.25_145.0.jpg,right,0,0,0,0,,,,,0,8,8,8,,,,,,,,,0,0,0,0,0,9,9,9,,,,,,,,,,,,,,,,,,368.6946733247708,None,None,0,368.6946733247708,None,,,,,,,,,,,,,,,,,,,,,,,,,,,,,,,,,,,,,,,,,,,,,,,,,,,,,,,,,,,,,MartinK,001,b,2019_Nov_08_1414,Experimento,3.2.3,59.991913158311846,
8,14,14,999,0.5,0:10,3,Green,None,0,0,1,20:50,./completed_changuitos/montage_hlrfn_126.25_145.0.jpg,right,0,0,0,0,,,,,0,8,8,8,,,,,,,,,0,0,0,0,0,10,10,10,,,,,,,,,,,,,,,,,,368.71132485819294,None,None,1,368.71132485819294,None,,,,,,,,,,,,,,,,,,,,,,,,,,,,,,,,,,,,,,,,,,,,,,,,,,,,,,,,,,,,,MartinK,001,b,2019_Nov_08_1414,Experimento,3.2.3,59.991913158311846,
8,14,14,999,0.5,0:10,3,Yellow,['space'],0,0,1,20:50,./completed_changuitos/montage_hlrfn_126.25_145.0.jpg,right,0,0,0,0,,,,,0,8,8,8,,,,,,,,,0,0,0,0,0,11,11,11,,,,,,,,,,,,,,,,,,368.71132485819294,None,None,0,368.71132485819294,None,,,,,,,,,,,,,,,,,,,,,,,,,,,,,,,,,,,,,,,,,,,,,,,,,,,,,,,,,,,,,MartinK,001,b,2019_Nov_08_1414,Experimento,3.2.3,59.991913158311846,
8,14,14,999,0.5,0:10,3,Blue,None,0,0,1,20:50,./completed_changuitos/montage_hlrfn_126.25_145.0.jpg,right,0,0,0,0,,,,,0,8,8,8,,,,,,,,,0,0,0,0,0,12,12,12,,,,,,,,,,,,,,,,,,368.71132485819294,None,None,1,368.71132485819294,None,,,,,,,,,,,,,,,,,,,,,,,,,,,,,,,,,,,,,,,,,,,,,,,,,,,,,,,,,,,,,MartinK,001,b,2019_Nov_08_1414,Experimento,3.2.3,59.991913158311846,
8,14,14,999,0.5,0:10,3,Cyan,None,0,0,1,20:50,./completed_changuitos/montage_hlrfn_126.25_145.0.jpg,right,0,0,0,0,,,,,0,8,8,8,,,,,,,,,0,0,0,0,0,13,13,13,,,,,,,,,,,,,,,,,,368.7279763916151,None,None,1,368.7279763916151,None,,,,,,,,,,,,,,,,,,,,,,,,,,,,,,,,,,,,,,,,,,,,,,,,,,,,,,,,,,,,,MartinK,001,b,2019_Nov_08_1414,Experimento,3.2.3,59.991913158311846,
8,14,14,999,0.5,0:10,3,Blue,['space'],0,0,1,20:50,./completed_changuitos/montage_hlrfn_126.25_145.0.jpg,right,0,0,0,0,,,,,0,8,8,8,,,,,,,,,0,0,0,0,0,14,14,14,,,,,,,,,,,,,,,,,,368.7279763916151,None,None,0,368.7279763916151,None,,,,,,,,,,,,,,,,,,,,,,,,,,,,,,,,,,,,,,,,,,,,,,,,,,,,,,,,,,,,,MartinK,001,b,2019_Nov_08_1414,Experimento,3.2.3,59.991913158311846,
8,14,14,999,0.5,0:10,3,Yellow,None,0,0,1,20:50,./completed_changuitos/montage_hlrfn_126.25_145.0.jpg,right,0,0,0,0,,,,,0,8,8,8,,,,,,,,,0,0,0,0,0,15,15,15,,,,,,,,,,,,,,,,,,368.7279763916151,None,None,1,368.7279763916151,None,,,,,,,,,,,,,,,,,,,,,,,,,,,,,,,,,,,,,,,,,,,,,,,,,,,,,,,,,,,,,MartinK,001,b,2019_Nov_08_1414,Experimento,3.2.3,59.991913158311846,
8,14,14,999,0.5,0:10,3,Cyan,None,0,0,1,20:50,./completed_changuitos/montage_hlrfn_126.25_145.0.jpg,right,0,0,0,0,,,,,0,8,8,8,,,,,,,,,0,0,0,0,0,16,16,16,,,,,,,,,,,,,,,,,,368.7279763916151,None,None,1,368.7279763916151,None,,,,,,,,,,,,,,,,,,,,,,,,,,,,,,,,,,,,,,,,,,,,,,,,,,,,,,,,,,,,,MartinK,001,b,2019_Nov_08_1414,Experimento,3.2.3,59.991913158311846,
8,14,14,999,0.5,0:10,3,Yellow,['space'],0,0,1,20:50,./completed_changuitos/montage_hlrfn_126.25_145.0.jpg,right,0,0,0,0,,,,,0,8,8,8,,,,,,,,,0,0,0,0,0,17,17,17,,,,,,,,,,,,,,,,,,368.7446279250372,None,None,0,368.7446279250372,None,,,,,,,,,,,,,,,,,,,,,,,,,,,,,,,,,,,,,,,,,,,,,,,,,,,,,,,,,,,,,MartinK,001,b,2019_Nov_08_1414,Experimento,3.2.3,59.991913158311846,
8,14,14,999,0.5,0:10,3,Magenta,None,0,0,1,20:50,./completed_changuitos/montage_hlrfn_126.25_145.0.jpg,right,0,0,0,0,,,,,0,8,8,8,,,,,,,,,0,0,0,0,0,18,18,18,,,,,,,,,,,,,,,,,,368.7446279250372,None,None,1,368.7446279250372,None,,,,,,,,,,,,,,,,,,,,,,,,,,,,,,,,,,,,,,,,,,,,,,,,,,,,,,,,,,,,,MartinK,001,b,2019_Nov_08_1414,Experimento,3.2.3,59.991913158311846,
8,14,14,999,0.5,0:10,3,Red,None,0,0,1,20:50,./completed_changuitos/montage_hlrfn_126.25_145.0.jpg,right,0,0,0,0,,,,,0,8,8,8,,,,,,,,,0,0,0,0,0,19,19,19,,,,,,,,,,,,,,,,,,368.7446279250372,None,None,1,368.7446279250372,None,,,,,,,,,,,,,,,,,,,,,,,,,,,,,,,,,,,,,,,,,,,,,,,,,,,,,,,,,,,,,MartinK,001,b,2019_Nov_08_1414,Experimento,3.2.3,59.991913158311846,
8,14,14,999,0.5,0:10,3,Magenta,['space'],0,0,1,20:50,./completed_changuitos/montage_hlrfn_126.25_145.0.jpg,right,0,0,0,0,,,,,0,8,8,8,,,,,,,,,0,0,0,0,0,20,20,20,,,,,,,,,,,,,,,,,,368.7446279250372,None,None,0,368.7446279250372,None,,,,,,,,,,,,,,,,,,,,,,,,,,,,,,,,,,,,,,,,,,,,,,,,,,,,,,,,,,,,,MartinK,001,b,2019_Nov_08_1414,Experimento,3.2.3,59.991913158311846,
8,14,14,999,0.5,0:10,3,Red,['space'],0,0,1,20:50,./completed_changuitos/montage_hlrfn_126.25_145.0.jpg,right,0,0,0,0,,,,,0,8,8,8,,,,,,,,,0,0,0,0,0,21,21,21,,,,,,,,,,,,,,,,,,368.7446279250372,None,None,0,368.7446279250372,None,,,,,,,,,,,,,,,,,,,,,,,,,,,,,,,,,,,,,,,,,,,,,,,,,,,,,,,,,,,,,MartinK,001,b,2019_Nov_08_1414,Experimento,3.2.3,59.991913158311846,
8,14,14,999,0.5,0:10,3,Yellow,None,0,0,1,20:50,./completed_changuitos/montage_hlrfn_126.25_145.0.jpg,right,0,0,0,0,,,,,0,8,8,8,,,,,,,,,0,0,0,0,0,22,22,22,,,,,,,,,,,,,,,,,,368.76127945845934,None,None,1,368.76127945845934,None,,,,,,,,,,,,,,,,,,,,,,,,,,,,,,,,,,,,,,,,,,,,,,,,,,,,,,,,,,,,,MartinK,001,b,2019_Nov_08_1414,Experimento,3.2.3,59.991913158311846,
8,14,14,999,0.5,0:10,3,Cyan,None,0,0,1,20:50,./completed_changuitos/montage_hlrfn_126.25_145.0.jpg,right,0,0,0,0,,,,,0,8,8,8,,,,,,,,,0,0,0,0,0,23,23,23,,,,,,,,,,,,,,,,,,368.76127945845934,None,None,1,368.76127945845934,None,,,,,,,,,,,,,,,,,,,,,,,,,,,,,,,,,,,,,,,,,,,,,,,,,,,,,,,,,,,,,MartinK,001,b,2019_Nov_08_1414,Experimento,3.2.3,59.991913158311846,
8,14,14,999,0.5,0:10,3,Green,None,0,0,1,20:50,./completed_changuitos/montage_hlrfn_126.25_145.0.jpg,right,0,0,0,0,,,,,0,8,8,8,,,,,,,,,0,0,0,0,0,24,24,24,,,,,,,,,,,,,,,,,,368.76127945845934,None,None,1,368.76127945845934,None,,,,,,,,,,,,,,,,,,,,,,,,,,,,,,,,,,,,,,,,,,,,,,,,,,,,,,,,,,,,,MartinK,001,b,2019_Nov_08_1414,Experimento,3.2.3,59.991913158311846,
8,14,14,999,0.5,0:10,3,White,None,0,0,1,20:50,./completed_changuitos/montage_hlrfn_126.25_145.0.jpg,right,0,0,0,0,,,,,0,8,8,8,,,,,,,,,0,0,0,0,0,25,25,25,,,,,,,,,,,,,,,,,,368.76127945845934,None,None,1,368.76127945845934,None,,,,,,,,,,,,,,,,,,,,,,,,,,,,,,,,,,,,,,,,,,,,,,,,,,,,,,,,,,,,,MartinK,001,b,2019_Nov_08_1414,Experimento,3.2.3,59.991913158311846,
8,14,14,999,0.5,0:10,3,Green,['space'],0,0,1,20:50,./completed_changuitos/montage_hlrfn_126.25_145.0.jpg,right,0,0,0,0,,,,,0,8,8,8,,,,,,,,,0,0,0,0,0,26,26,26,,,,,,,,,,,,,,,,,,368.76127945845934,None,None,0,368.76127945845934,None,,,,,,,,,,,,,,,,,,,,,,,,,,,,,,,,,,,,,,,,,,,,,,,,,,,,,,,,,,,,,MartinK,001,b,2019_Nov_08_1414,Experimento,3.2.3,59.991913158311846,
8,14,14,999,0.5,0:10,3,Red,None,0,0,1,20:50,./completed_changuitos/montage_hlrfn_126.25_145.0.jpg,right,0,0,0,0,,,,,0,8,8,8,,,,,,,,,0,0,0,0,0,27,27,27,,,,,,,,,,,,,,,,,,368.76127945845934,None,None,1,368.76127945845934,None,,,,,,,,,,,,,,,,,,,,,,,,,,,,,,,,,,,,,,,,,,,,,,,,,,,,,,,,,,,,,MartinK,001,b,2019_Nov_08_1414,Experimento,3.2.3,59.991913158311846,
8,14,14,999,0.5,0:10,3,Blue,None,0,0,1,20:50,./completed_changuitos/montage_hlrfn_126.25_145.0.jpg,right,0,0,0,0,,,,,0,8,8,8,,,,,,,,,0,0,0,0,0,28,28,28,,,,,,,,,,,,,,,,,,368.7779309918815,None,None,1,368.7779309918815,None,,,,,,,,,,,,,,,,,,,,,,,,,,,,,,,,,,,,,,,,,,,,,,,,,,,,,,,,,,,,,MartinK,001,b,2019_Nov_08_1414,Experimento,3.2.3,59.991913158311846,
8,14,14,999,0.5,0:10,3,Green,None,0,0,1,20:50,./completed_changuitos/montage_hlrfn_126.25_145.0.jpg,right,0,0,0,0,,,,,0,8,8,8,,,,,,,,,0,0,0,0,0,29,29,29,,,,,,,,,,,,,,,,,,368.7779309918815,None,None,1,368.7779309918815,None,,,,,,,,,,,,,,,,,,,,,,,,,,,,,,,,,,,,,,,,,,,,,,,,,,,,,,,,,,,,,MartinK,001,b,2019_Nov_08_1414,Experimento,3.2.3,59.991913158311846,
8,14,14,999,0.5,0:10,3,,,0,0,1,20:50,./completed_changuitos/montage_hlrfn_126.25_145.0.jpg,right,0,0,0,0,,,,,0,8,8,8,,,,,,,,,0,0,0,0,,,,,,,,,,,,,,,,,,,,,,,,,,,,,368.8445007429642,None,left,0,1.3298980999118157,368.8445007429642,None,368.8445007429642,None,,,,,,,,,,,,,,,,,,,,,,,,,,,,,,,,,,,,,,,,,,,,,,,,,,,MartinK,001,b,2019_Nov_08_1414,Experimento,3.2.3,59.991913158311846,
8,14,14,999,0.5,0:10,3,,,0,0,1,20:50,,,0,0,0,0,,,,,0,8,8,8,,,,,,,,,,,,,,,,,,,,,,,,,,,,,,,,,,,,,,,,,,,,,,,,,,,,,,,,,,,,,,,,,,,,,,,,,,,,,,,,,,,,,,,,,,,,,,,,,,,,MartinK,001,b,2019_Nov_08_1414,Experimento,3.2.3,59.991913158311846,
8,14,14,999,0.5,0:10,3,,,0,1,0,25:50,./completed_changuitos/montage_qaore_66.65_77.05.jpg,right,0,0,0,0,,,,,0,9,9,9,,,,,0,0,0,0,,,,,,,,,,,,,,,,,,,,,,,,,,,,,,,,,,,,,,,,,,370.39386840542375,372.2100943670565,372.2100943670565,380.2236349782895,380.2236349782895,394.23500886138936,right,1,0.42481194249876353,394.23500886138936,None,394.23500886138936,None,394.23500886138936,None,,,,,,,,,,,,,,,,,,,,,,,,,,,,,,,,,,,,MartinK,001,b,2019_Nov_08_1414,Experimento,3.2.3,59.991913158311846,
8,14,14,999,0.5,0:10,3,,,0,1,0,25:50,,,0,0,0,0,,,,,0,9,9,9,,,,,,,,,,,,,,,,,,,,,,,,,,,,,,,,,,,,,,,,,,,,,,,,,,,,,,,,,,,,,,,,,,,,,,,,,,,,,,,,,,,,,,,,,,,,,,,,,,,,MartinK,001,b,2019_Nov_08_1414,Experimento,3.2.3,59.991913158311846,
8,14,14,999,0.5,0:10,3,Red,None,0,0,1,28:50,./completed_changuitos/montage_geima_171.19_194.75.jpg,right,0,0,0,0,,,,,0,10,10,10,,,,,,,,,0,0,0,0,0,0,0,0,,,,,,,,,,,,,,394.85125953178465,395.6677286548618,395.6677286548618,None,403.714666142478,404.2145280717979,None,1,403.714666142478,None,,,,,,,,,,,,,,,,,,,,,,,,,,,,,,,,,,,,,,,,,,,,,,,,,,,,,,,,,,,,,MartinK,001,b,2019_Nov_08_1414,Experimento,3.2.3,59.991913158311846,
8,14,14,999,0.5,0:10,3,Magenta,['space'],0,0,1,28:50,./completed_changuitos/montage_geima_171.19_194.75.jpg,right,0,0,0,0,,,,,0,10,10,10,,,,,,,,,0,0,0,0,0,1,1,1,,,,,,,,,,,,,,,,,,405.7138332687259,406.21379937270103,None,0,405.7138332687259,405.7138332687259,,,,,,,,,,,,,,,,,,,,,,,,,,,,,,,,,,,,,,,,,,,,,,,,,,,,,,,,,,,,,MartinK,001,b,2019_Nov_08_1414,Experimento,3.2.3,59.991913158311846,
8,14,14,999,0.5,0:10,3,Green,None,0,0,1,28:50,./completed_changuitos/montage_geima_171.19_194.75.jpg,right,0,0,0,0,,,,,0,10,10,10,,,,,,,,,0,0,0,0,0,2,2,2,,,,,,,,,,,,,,,,,,407.71319853621526,408.21295943182406,None,1,407.71319853621526,407.71319853621526,,,,,,,,,,,,,,,,,,,,,,,,,,,,,,,,,,,,,,,,,,,,,,,,,,,,,,,,,,,,,MartinK,001,b,2019_Nov_08_1414,Experimento,3.2.3,59.991913158311846,
8,14,14,999,0.5,0:10,3,Yellow,['space'],0,0,1,28:50,./completed_changuitos/montage_geima_171.19_194.75.jpg,right,0,0,0,0,,,,,0,10,10,10,,,,,,,,,0,0,0,0,0,3,3,3,,,,,,,,,,,,,,,,,,409.71239445445326,410.212277061657,None,0,409.71239445445326,409.71239445445326,,,,,,,,,,,,,,,,,,,,,,,,,,,,,,,,,,,,,,,,,,,,,,,,,,,,,,,,,,,,,MartinK,001,b,2019_Nov_08_1414,Experimento,3.2.3,59.991913158311846,
8,14,14,999,0.5,0:10,3,Blue,None,0,0,1,28:50,./completed_changuitos/montage_geima_171.19_194.75.jpg,right,0,0,0,0,,,,,0,10,10,10,,,,,,,,,0,0,0,0,0,4,4,4,,,,,,,,,,,,,,,,,,411.7116380103479,412.211425603984,None,1,411.7116380103479,411.7116380103479,,,,,,,,,,,,,,,,,,,,,,,,,,,,,,,,,,,,,,,,,,,,,,,,,,,,,,,,,,,,,MartinK,001,b,2019_Nov_08_1414,Experimento,3.2.3,59.991913158311846,
8,14,14,999,0.5,0:10,3,Cyan,None,0,0,1,28:50,./completed_changuitos/montage_geima_171.19_194.75.jpg,right,0,0,0,0,,,,,0,10,10,10,,,,,,,,,0,0,0,0,0,5,5,5,,,,,,,,,,,,,,,,,,413.7109433381486,414.21069952234086,None,1,413.7109433381486,413.7109433381486,,,,,,,,,,,,,,,,,,,,,,,,,,,,,,,,,,,,,,,,,,,,,,,,,,,,,,,,,,,,,MartinK,001,b,2019_Nov_08_1414,Experimento,3.2.3,59.991913158311846,
8,14,14,999,0.5,0:10,3,Blue,['space'],0,0,1,28:50,./completed_changuitos/montage_geima_171.19_194.75.jpg,right,0,0,0,0,,,,,0,10,10,10,,,,,,,,,0,0,0,0,0,6,6,6,,,,,,,,,,,,,,,,,,415.7101209342111,416.20994543394374,None,0,415.7101209342111,415.7101209342111,,,,,,,,,,,,,,,,,,,,,,,,,,,,,,,,,,,,,,,,,,,,,,,,,,,,,,,,,,,,,MartinK,001,b,2019_Nov_08_1414,Experimento,3.2.3,59.991913158311846,
8,14,14,999,0.5,0:10,3,Yellow,None,0,0,1,28:50,./completed_changuitos/montage_geima_171.19_194.75.jpg,right,0,0,0,0,,,,,0,10,10,10,,,,,,,,,0,0,0,0,0,7,7,7,,,,,,,,,,,,,,,,,,417.6927267244898,None,None,1,417.6927267244898,None,,,,,,,,,,,,,,,,,,,,,,,,,,,,,,,,,,,,,,,,,,,,,,,,,,,,,,,,,,,,,MartinK,001,b,2019_Nov_08_1414,Experimento,3.2.3,59.991913158311846,
8,14,14,999,0.5,0:10,3,Cyan,None,0,0,1,28:50,./completed_changuitos/montage_geima_171.19_194.75.jpg,right,0,0,0,0,,,,,0,10,10,10,,,,,,,,,0,0,0,0,0,8,8,8,,,,,,,,,,,,,,,,,,417.6927267244898,None,None,1,417.6927267244898,None,,,,,,,,,,,,,,,,,,,,,,,,,,,,,,,,,,,,,,,,,,,,,,,,,,,,,,,,,,,,,MartinK,001,b,2019_Nov_08_1414,Experimento,3.2.3,59.991913158311846,
8,14,14,999,0.5,0:10,3,Yellow,['space'],0,0,1,28:50,./completed_changuitos/montage_geima_171.19_194.75.jpg,right,0,0,0,0,,,,,0,10,10,10,,,,,,,,,0,0,0,0,0,9,9,9,,,,,,,,,,,,,,,,,,417.6927267244898,None,None,0,417.6927267244898,None,,,,,,,,,,,,,,,,,,,,,,,,,,,,,,,,,,,,,,,,,,,,,,,,,,,,,,,,,,,,,MartinK,001,b,2019_Nov_08_1414,Experimento,3.2.3,59.991913158311846,
8,14,14,999,0.5,0:10,3,Magenta,None,0,0,1,28:50,./completed_changuitos/montage_geima_171.19_194.75.jpg,right,0,0,0,0,,,,,0,10,10,10,,,,,,,,,0,0,0,0,0,10,10,10,,,,,,,,,,,,,,,,,,417.7093782579119,None,None,1,417.7093782579119,None,,,,,,,,,,,,,,,,,,,,,,,,,,,,,,,,,,,,,,,,,,,,,,,,,,,,,,,,,,,,,MartinK,001,b,2019_Nov_08_1414,Experimento,3.2.3,59.991913158311846,
8,14,14,999,0.5,0:10,3,Red,None,0,0,1,28:50,./completed_changuitos/montage_geima_171.19_194.75.jpg,right,0,0,0,0,,,,,0,10,10,10,,,,,,,,,0,0,0,0,0,11,11,11,,,,,,,,,,,,,,,,,,417.7093782579119,None,None,1,417.7093782579119,None,,,,,,,,,,,,,,,,,,,,,,,,,,,,,,,,,,,,,,,,,,,,,,,,,,,,,,,,,,,,,MartinK,001,b,2019_Nov_08_1414,Experimento,3.2.3,59.991913158311846,
8,14,14,999,0.5,0:10,3,Magenta,['space'],0,0,1,28:50,./completed_changuitos/montage_geima_171.19_194.75.jpg,right,0,0,0,0,,,,,0,10,10,10,,,,,,,,,0,0,0,0,0,12,12,12,,,,,,,,,,,,,,,,,,417.7093782579119,None,None,0,417.7093782579119,None,,,,,,,,,,,,,,,,,,,,,,,,,,,,,,,,,,,,,,,,,,,,,,,,,,,,,,,,,,,,,MartinK,001,b,2019_Nov_08_1414,Experimento,3.2.3,59.991913158311846,
8,14,14,999,0.5,0:10,3,Red,['space'],0,0,1,28:50,./completed_changuitos/montage_geima_171.19_194.75.jpg,right,0,0,0,0,,,,,0,10,10,10,,,,,,,,,0,0,0,0,0,13,13,13,,,,,,,,,,,,,,,,,,417.72602979133404,None,None,0,417.72602979133404,None,,,,,,,,,,,,,,,,,,,,,,,,,,,,,,,,,,,,,,,,,,,,,,,,,,,,,,,,,,,,,MartinK,001,b,2019_Nov_08_1414,Experimento,3.2.3,59.991913158311846,
8,14,14,999,0.5,0:10,3,Yellow,None,0,0,1,28:50,./completed_changuitos/montage_geima_171.19_194.75.jpg,right,0,0,0,0,,,,,0,10,10,10,,,,,,,,,0,0,0,0,0,14,14,14,,,,,,,,,,,,,,,,,,417.72602979133404,None,None,1,417.72602979133404,None,,,,,,,,,,,,,,,,,,,,,,,,,,,,,,,,,,,,,,,,,,,,,,,,,,,,,,,,,,,,,MartinK,001,b,2019_Nov_08_1414,Experimento,3.2.3,59.991913158311846,
8,14,14,999,0.5,0:10,3,Cyan,None,0,0,1,28:50,./completed_changuitos/montage_geima_171.19_194.75.jpg,right,0,0,0,0,,,,,0,10,10,10,,,,,,,,,0,0,0,0,0,15,15,15,,,,,,,,,,,,,,,,,,417.72602979133404,None,None,1,417.72602979133404,None,,,,,,,,,,,,,,,,,,,,,,,,,,,,,,,,,,,,,,,,,,,,,,,,,,,,,,,,,,,,,MartinK,001,b,2019_Nov_08_1414,Experimento,3.2.3,59.991913158311846,
8,14,14,999,0.5,0:10,3,Green,None,0,0,1,28:50,./completed_changuitos/montage_geima_171.19_194.75.jpg,right,0,0,0,0,,,,,0,10,10,10,,,,,,,,,0,0,0,0,0,16,16,16,,,,,,,,,,,,,,,,,,417.72602979133404,None,None,1,417.72602979133404,None,,,,,,,,,,,,,,,,,,,,,,,,,,,,,,,,,,,,,,,,,,,,,,,,,,,,,,,,,,,,,MartinK,001,b,2019_Nov_08_1414,Experimento,3.2.3,59.991913158311846,
8,14,14,999,0.5,0:10,3,White,None,0,0,1,28:50,./completed_changuitos/montage_geima_171.19_194.75.jpg,right,0,0,0,0,,,,,0,10,10,10,,,,,,,,,0,0,0,0,0,17,17,17,,,,,,,,,,,,,,,,,,417.72602979133404,None,None,1,417.72602979133404,None,,,,,,,,,,,,,,,,,,,,,,,,,,,,,,,,,,,,,,,,,,,,,,,,,,,,,,,,,,,,,MartinK,001,b,2019_Nov_08_1414,Experimento,3.2.3,59.991913158311846,
8,14,14,999,0.5,0:10,3,Green,['space'],0,0,1,28:50,./completed_changuitos/montage_geima_171.19_194.75.jpg,right,0,0,0,0,,,,,0,10,10,10,,,,,,,,,0,0,0,0,0,18,18,18,,,,,,,,,,,,,,,,,,417.7426813247562,None,None,0,417.7426813247562,None,,,,,,,,,,,,,,,,,,,,,,,,,,,,,,,,,,,,,,,,,,,,,,,,,,,,,,,,,,,,,MartinK,001,b,2019_Nov_08_1414,Experimento,3.2.3,59.991913158311846,
8,14,14,999,0.5,0:10,3,Red,None,0,0,1,28:50,./completed_changuitos/montage_geima_171.19_194.75.jpg,right,0,0,0,0,,,,,0,10,10,10,,,,,,,,,0,0,0,0,0,19,19,19,,,,,,,,,,,,,,,,,,417.7426813247562,None,None,1,417.7426813247562,None,,,,,,,,,,,,,,,,,,,,,,,,,,,,,,,,,,,,,,,,,,,,,,,,,,,,,,,,,,,,,MartinK,001,b,2019_Nov_08_1414,Experimento,3.2.3,59.991913158311846,
8,14,14,999,0.5,0:10,3,Blue,None,0,0,1,28:50,./completed_changuitos/montage_geima_171.19_194.75.jpg,right,0,0,0,0,,,,,0,10,10,10,,,,,,,,,0,0,0,0,0,20,20,20,,,,,,,,,,,,,,,,,,417.7426813247562,None,None,1,417.7426813247562,None,,,,,,,,,,,,,,,,,,,,,,,,,,,,,,,,,,,,,,,,,,,,,,,,,,,,,,,,,,,,,MartinK,001,b,2019_Nov_08_1414,Experimento,3.2.3,59.991913158311846,
8,14,14,999,0.5,0:10,3,Green,None,0,0,1,28:50,./completed_changuitos/montage_geima_171.19_194.75.jpg,right,0,0,0,0,,,,,0,10,10,10,,,,,,,,,0,0,0,0,0,21,21,21,,,,,,,,,,,,,,,,,,417.7426813247562,None,None,1,417.7426813247562,None,,,,,,,,,,,,,,,,,,,,,,,,,,,,,,,,,,,,,,,,,,,,,,,,,,,,,,,,,,,,,MartinK,001,b,2019_Nov_08_1414,Experimento,3.2.3,59.991913158311846,
8,14,14,999,0.5,0:10,3,,,0,0,1,28:50,./completed_changuitos/montage_geima_171.19_194.75.jpg,right,0,0,0,0,,,,,0,10,10,10,,,,,,,,,0,0,0,0,,,,,,,,,,,,,,,,,,,,,,,,,,,,,417.8258914327339,None,right,1,1.0581757866167436,417.8258914327339,None,417.8258914327339,None,,,,,,,,,,,,,,,,,,,,,,,,,,,,,,,,,,,,,,,,,,,,,,,,,,,MartinK,001,b,2019_Nov_08_1414,Experimento,3.2.3,59.991913158311846,
8,14,14,999,0.5,0:10,3,,,0,0,1,28:50,,,0,0,0,0,,,,,0,10,10,10,,,,,,,,,,,,,,,,,,,,,,,,,,,,,,,,,,,,,,,,,,,,,,,,,,,,,,,,,,,,,,,,,,,,,,,,,,,,,,,,,,,,,,,,,,,,,,,,,,,,MartinK,001,b,2019_Nov_08_1414,Experimento,3.2.3,59.991913158311846,
8,14,14,999,0.5,0:10,3,,,0,1,0,10:50,./completed_changuitos/montage_yptju_84.55_97.39.jpg,right,0,0,0,0,,,,,0,11,11,11,,,,,0,0,0,0,,,,,,,,,,,,,,,,,,,,,,,,,,,,,,,,,,,,,,,,,,419.09204773083786,420.00856928151165,420.00856928151165,428.0221672149796,428.0221672149796,442.0334829906084,right,1,0.9998966105807767,442.0334829906084,None,442.0334829906084,None,442.0334829906084,None,,,,,,,,,,,,,,,,,,,,,,,,,,,,,,,,,,,,MartinK,001,b,2019_Nov_08_1414,Experimento,3.2.3,59.991913158311846,
8,14,14,999,0.5,0:10,3,,,0,1,0,10:50,,,0,0,0,0,,,,,0,11,11,11,,,,,,,,,,,,,,,,,,,,,,,,,,,,,,,,,,,,,,,,,,,,,,,,,,,,,,,,,,,,,,,,,,,,,,,,,,,,,,,,,,,,,,,,,,,,,,,,,,,,MartinK,001,b,2019_Nov_08_1414,Experimento,3.2.3,59.991913158311846,
8,14,14,999,0.5,0:10,3,,,1,0,0,30:50,./completed_changuitos/montage_ksmvb_106.45_120.9.jpg,right,0,0,0,0,,,,,0,12,12,12,0,0,0,0,,,,,,,,,,,,,,,,,,,,,,,,,,,,,,,,,,,,,,,,,,,,,,,,,,,,,,,,,,,,,443.7495112559668,445.2656859416826,445.2656859416826,453.2792336200405,left,0,1.5456843816801893,453.2792336200405,None,453.2792336200405,None,453.2792336200405,None,,,,,,,,,,,,,,,,,,,,,,,MartinK,001,b,2019_Nov_08_1414,Experimento,3.2.3,59.991913158311846,
8,14,14,999,0.5,0:10,3,,,1,0,0,30:50,,,0,0,0,0,,,,,0,12,12,12,,,,,,,,,,,,,,,,,,,,,,,,,,,,,,,,,,,,,,,,,,,,,,,,,,,,,,,,,,,,,,,,,,,,,,,,,,,,,,,,,,,,,,,,,,,,,,,,,,,,MartinK,001,b,2019_Nov_08_1414,Experimento,3.2.3,59.991913158311846,
8,14,14,999,0.5,0:10,3,,,1,0,0,32:50,./completed_changuitos/montage_gauef_51.35_57.79.jpg,right,0,0,0,0,,,,,0,13,13,13,0,0,0,0,,,,,,,,,,,,,,,,,,,,,,,,,,,,,,,,,,,,,,,,,,,,,,,,,,,,,,,,,,,,,455.52832804651325,456.3779713006677,456.3779713006677,464.391443334615,right,1,1.496930904720216,464.391443334615,None,464.391443334615,None,464.391443334615,None,,,,,,,,,,,,,,,,,,,,,,,MartinK,001,b,2019_Nov_08_1414,Experimento,3.2.3,59.991913158311846,
8,14,14,999,0.5,0:10,3,,,1,0,0,32:50,,,0,0,0,0,,,,,0,13,13,13,,,,,,,,,,,,,,,,,,,,,,,,,,,,,,,,,,,,,,,,,,,,,,,,,,,,,,,,,,,,,,,,,,,,,,,,,,,,,,,,,,,,,,,,,,,,,,,,,,,,MartinK,001,b,2019_Nov_08_1414,Experimento,3.2.3,59.991913158311846,
8,14,14,999,0.5,0:10,3,,,1,0,0,34:50,./completed_changuitos/montage_qymbc_59.9_67.95.jpg,right,0,0,0,0,,,,,0,14,14,14,0,0,0,0,,,,,,,,,,,,,,,,,,,,,,,,,,,,,,,,,,,,,,,,,,,,,,,,,,,,,,,,,,,,,466.5909542895747,469.1232142749641,469.1232142749641,477.13683367155204,right,1,0.8628938515229265,477.13683367155204,None,477.13683367155204,None,477.13683367155204,None,,,,,,,,,,,,,,,,,,,,,,,MartinK,001,b,2019_Nov_08_1414,Experimento,3.2.3,59.991913158311846,
8,14,14,999,0.5,0:10,3,,,1,0,0,34:50,,,0,0,0,0,,,,,0,14,14,14,,,,,,,,,,,,,,,,,,,,,,,,,,,,,,,,,,,,,,,,,,,,,,,,,,,,,,,,,,,,,,,,,,,,,,,,,,,,,,,,,,,,,,,,,,,,,,,,,,,,MartinK,001,b,2019_Nov_08_1414,Experimento,3.2.3,59.991913158311846,
8,14,14,999,0.5,0:10,3,,,1,0,0,30:50,./completed_changuitos/montage_oxcet_69.55_80.25.jpg,right,0,0,0,0,,,,,0,15,15,15,0,0,0,0,,,,,,,,,,,,,,,,,,,,,,,,,,,,,,,,,,,,,,,,,,,,,,,,,,,,,,,,,,,,,478.7196290963477,479.6025715958641,479.6025715958641,487.6162875764918,left,0,0.7347396562812492,487.6162875764918,None,487.6162875764918,None,487.6162875764918,None,,,,,,,,,,,,,,,,,,,,,,,MartinK,001,b,2019_Nov_08_1414,Experimento,3.2.3,59.991913158311846,
8,14,14,999,0.5,0:10,3,,,1,0,0,30:50,,,0,0,0,0,,,,,0,15,15,15,,,,,,,,,,,,,,,,,,,,,,,,,,,,,,,,,,,,,,,,,,,,,,,,,,,,,,,,,,,,,,,,,,,,,,,,,,,,,,,,,,,,,,,,,,,,,,,,,,,,MartinK,001,b,2019_Nov_08_1414,Experimento,3.2.3,59.991913158311846,
8,14,14,999,0.5,0:10,3,,,1,0,0,32:50,./completed_changuitos/montage_luzdw_245.69_209.75.jpg,left,0,0,0,0,,,,,0,16,16,16,0,0,0,0,,,,,,,,,,,,,,,,,,,,,,,,,,,,,,,,,,,,,,,,,,,,,,,,,,,,,,,,,,,,,489.0490646921993,489.71527548568815,489.71527548568815,497.7290600436015,left,1,0.3657213558304875,497.7290600436015,None,497.7290600436015,None,497.7290600436015,None,,,,,,,,,,,,,,,,,,,,,,,MartinK,001,b,2019_Nov_08_1414,Experimento,3.2.3,59.991913158311846,
8,14,14,999,0.5,0:10,3,,,1,0,0,32:50,,,0,0,0,0,,,,,0,16,16,16,,,,,,,,,,,,,,,,,,,,,,,,,,,,,,,,,,,,,,,,,,,,,,,,,,,,,,,,,,,,,,,,,,,,,,,,,,,,,,,,,,,,,,,,,,,,,,,,,,,,MartinK,001,b,2019_Nov_08_1414,Experimento,3.2.3,59.991913158311846,
8,14,14,999,0.5,0:10,3,,,1,0,0,34:50,./completed_changuitos/montage_yzfoz_77.05_64.95.jpg,left,0,0,0,0,,,,,0,17,17,17,0,0,0,0,,,,,,,,,,,,,,,,,,,,,,,,,,,,,,,,,,,,,,,,,,,,,,,,,,,,,,,,,,,,,498.8119804518092,499.4783027488237,499.4783027488237,507.49199491062313,right,0,0.42610234714913986,507.49199491062313,None,507.49199491062313,None,507.49199491062313,None,,,,,,,,,,,,,,,,,,,,,,,MartinK,001,b,2019_Nov_08_1414,Experimento,3.2.3,59.991913158311846,
8,14,14,999,0.5,0:10,3,,,1,0,0,34:50,,,0,0,0,0,,,,,0,17,17,17,,,,,,,,,,,,,,,,,,,,,,,,,,,,,,,,,,,,,,,,,,,,,,,,,,,,,,,,,,,,,,,,,,,,,,,,,,,,,,,,,,,,,,,,,,,,,,,,,,,,MartinK,001,b,2019_Nov_08_1414,Experimento,3.2.3,59.991913158311846,
8,14,14,999,0.5,0:10,3,,,,,,,,,0,0,0,0,,,,,,,,,,,,,,,,,,,,,,,,,,,,,,,,,,,,,,,,,,,,,,,,,,,,,,,,,,,,,,,,,,,,,,,,,,,,,,,,,,,,,,508.02503934687206,510.37428409370796,3,19.447174157775407,510.37428409370796,None,510.37428409370796,None,c,6.402727700799915,529.8502018187638,None,529.8502018187638,None,529.8502018187638,None,536.2810255288107,None,6,6.70774114535061,536.2810255288107,None,MartinK,001,b,2019_Nov_08_1414,Experimento,3.2.3,59.991913158311846,
