changuito_time_to_show,time_to_think,time_to_play,total_items,nback_stimulus_time,nback_training,time_to_show_tiny_stimulus,colourtest,corresp,inmediato,consciente,inconsciente,nback_slice,imagen,correcta,trials_5.thisRepN,trials_5.thisTrialN,trials_5.thisN,trials_5.thisIndex,nback_train.thisRepN,nback_train.thisTrialN,nback_train.thisN,nback_train.thisIndex,treatment_order.thisRepN,treatment_order.thisTrialN,treatment_order.thisN,treatment_order.thisIndex,trials.thisRepN,trials.thisTrialN,trials.thisN,trials.thisIndex,trials_2.thisRepN,trials_2.thisTrialN,trials_2.thisN,trials_2.thisIndex,trials_3.thisRepN,trials_3.thisTrialN,trials_3.thisN,trials_3.thisIndex,trials_4.thisRepN,trials_4.thisTrialN,trials_4.thisN,trials_4.thisIndex,Presentacion.started,Presentacion.stopped,Juego.started,Juego.stopped,image_6.started,image_6.stopped,polygon.started,polygon.stopped,nback_train_resp.keys,nback_train_resp.corr,nback_train_resp.started,nback_train_resp.stopped,nback_train_resp.rt,holi.started,holi.stopped,image_3.started,image_3.stopped,polygon_2.started,polygon_2.stopped,nback_train_resp_2.keys,nback_train_resp_2.corr,nback_train_resp_2.started,nback_train_resp_2.stopped,nback_train_resp_2.rt,text_2.started,text_2.stopped,key_resp.keys,key_resp.corr,key_resp.rt,key_resp.started,key_resp.stopped,image_5.started,image_5.stopped,hola.started,hola.stopped,image_2.started,image_2.stopped,tiempo_para_pensar.started,tiempo_para_pensar.stopped,respuesta_consciente.keys,respuesta_consciente.corr,respuesta_consciente.rt,respuesta_consciente.started,respuesta_consciente.stopped,cual_es_la_mas_barata.started,cual_es_la_mas_barata.stopped,image_4.started,image_4.stopped,text.started,text.stopped,image.started,image.stopped,respuesta_inmediato.keys,respuesta_inmediato.corr,respuesta_inmediato.rt,respuesta_inmediato.started,respuesta_inmediato.stopped,pregunta_cual_es_el_mas_barato.started,pregunta_cual_es_el_mas_barato.stopped,short_stim1.started,short_stim1.stopped,gracias.started,gracias.stopped,respuesta1.keys,respuesta1.rt,respuesta1.started,respuesta1.stopped,pregunta1.started,pregunta1.stopped,respuesta3bis_3.keys,respuesta3bis_3.rt,respuesta3bis_3.started,respuesta3bis_3.stopped,pregunta3_3.started,pregunta3_3.stopped,productoCon3RANGOSabc_3.started,productoCon3RANGOSabc_3.stopped,text_3.started,text_3.stopped,key_resp_2.keys,key_resp_2.rt,key_resp_2.started,key_resp_2.stopped,participant,session,group,date,expName,psychopyVersion,frameRate,
8,14,14,999,0.5,0:10,3,White,None,,,,,,,0,0,0,0,0,0,0,0,,,,,,,,,,,,,,,,,,,,,53.19629104700289,None,74.11328300400055,None,74.11328300400055,None,105.90341180100222,106.41890150700056,None,1,105.90341180100222,None,,,,,,,,,,,,,,,,,,,,,,,,,,,,,,,,,,,,,,,,,,,,,,,,,,,,,,,,,,,,,,,,,,,,,,,,matiasp,001,b,2019_Nov_15_2032,Experimento,3.2.3,60.00390649449134,
8,14,14,999,0.5,0:10,3,Red,None,,,,,,,0,0,0,0,0,1,1,1,,,,,,,,,,,,,,,,,,,,,,,,,,,107.91846702500334,108.41830148699955,None,1,107.91846702500334,107.91846702500334,,,,,,,,,,,,,,,,,,,,,,,,,,,,,,,,,,,,,,,,,,,,,,,,,,,,,,,,,,,,,,,,,,,,,,,,matiasp,001,b,2019_Nov_15_2032,Experimento,3.2.3,60.00390649449134,
8,14,14,999,0.5,0:10,3,Magenta,None,,,,,,,0,0,0,0,0,2,2,2,,,,,,,,,,,,,,,,,,,,,,,,,,,109.9177032439984,110.41759631499735,None,1,109.9177032439984,109.9177032439984,,,,,,,,,,,,,,,,,,,,,,,,,,,,,,,,,,,,,,,,,,,,,,,,,,,,,,,,,,,,,,,,,,,,,,,,matiasp,001,b,2019_Nov_15_2032,Experimento,3.2.3,60.00390649449134,
8,14,14,999,0.5,0:10,3,Cyan,None,,,,,,,0,0,0,0,0,3,3,3,,,,,,,,,,,,,,,,,,,,,,,,,,,111.91667883699847,112.41687710599945,None,1,111.91667883699847,111.91667883699847,,,,,,,,,,,,,,,,,,,,,,,,,,,,,,,,,,,,,,,,,,,,,,,,,,,,,,,,,,,,,,,,,,,,,,,,matiasp,001,b,2019_Nov_15_2032,Experimento,3.2.3,60.00390649449134,
8,14,14,999,0.5,0:10,3,Magenta,['space'],,,,,,,0,0,0,0,0,4,4,4,,,,,,,,,,,,,,,,,,,,,,,,,,,113.91636834399833,114.41619134400389,['return'],0,113.91636834399833,113.91636834399833,[0.9170586550026201],,,,,,,,,,,,,,,,,,,,,,,,,,,,,,,,,,,,,,,,,,,,,,,,,,,,,,,,,,,,,,,,,,,,,,,matiasp,001,b,2019_Nov_15_2032,Experimento,3.2.3,60.00390649449134,
8,14,14,999,0.5,0:10,3,Green,None,,,,,,,0,0,0,0,0,5,5,5,,,,,,,,,,,,,,,,,,,,,,,,,,,115.9156898220026,116.41550977300358,None,1,115.9156898220026,115.9156898220026,,,,,,,,,,,,,,,,,,,,,,,,,,,,,,,,,,,,,,,,,,,,,,,,,,,,,,,,,,,,,,,,,,,,,,,,matiasp,001,b,2019_Nov_15_2032,Experimento,3.2.3,60.00390649449134,
8,14,14,999,0.5,0:10,3,White,None,,,,,,,0,0,0,0,0,6,6,6,,,,,,,,,,,,,,,,,,,,,,,,,,,117.91501824000443,118.41483323799912,None,1,117.91501824000443,117.91501824000443,,,,,,,,,,,,,,,,,,,,,,,,,,,,,,,,,,,,,,,,,,,,,,,,,,,,,,,,,,,,,,,,,,,,,,,,matiasp,001,b,2019_Nov_15_2032,Experimento,3.2.3,60.00390649449134,
8,14,14,999,0.5,0:10,3,Green,['space'],,,,,,,0,0,0,0,0,7,7,7,,,,,,,,,,,,,,,,,,,,,,,,,,,119.91432909399737,120.4141328149999,['return'],0,119.91432909399737,119.91432909399737,[1.0169084689987358],,,,,,,,,,,,,,,,,,,,,,,,,,,,,,,,,,,,,,,,,,,,,,,,,,,,,,,,,,,,,,,,,,,,,,,matiasp,001,b,2019_Nov_15_2032,Experimento,3.2.3,60.00390649449134,
8,14,14,999,0.5,0:10,3,Blue,None,,,,,,,0,0,0,0,0,8,8,8,,,,,,,,,,,,,,,,,,,,,,,,,,,121.91367500399792,122.41349586000433,None,1,121.91367500399792,121.91367500399792,,,,,,,,,,,,,,,,,,,,,,,,,,,,,,,,,,,,,,,,,,,,,,,,,,,,,,,,,,,,,,,,,,,,,,,,matiasp,001,b,2019_Nov_15_2032,Experimento,3.2.3,60.00390649449134,
8,14,14,999,0.5,0:10,3,Green,['space'],,,,,,,0,0,0,0,0,9,9,9,,,,,,,,,,,,,,,,,,,,,,,,,,,123.92932108900277,124.42948886300292,None,0,123.92932108900277,123.92932108900277,,,,,,,,,,,,,,,,,,,,,,,,,,,,,,,,,,,,,,,,,,,,,,,,,,,,,,,,,,,,,,,,,,,,,,,,matiasp,001,b,2019_Nov_15_2032,Experimento,3.2.3,60.00390649449134,
8,14,14,999,0.5,0:10,3,Yellow,None,0,0,1,15:50,./completed_changuitos/montage_qiswf_55.55_49.15.jpg,left,0,0,0,0,,,,,0,0,0,0,,,,,,,,,0,0,0,0,0,0,0,0,,,,,,,,,,,,,,126.04120113100362,141.70697231800295,141.70697231800295,None,149.75106051500188,150.25400177799747,None,1,149.75106051500188,None,,,,,,,,,,,,,,,,,,,,,,,,,,,,,,,,,,,,,,,,,,,,,,,,,,,,,,,,,,,,,matiasp,001,b,2019_Nov_15_2032,Experimento,3.2.3,60.00390649449134,
8,14,14,999,0.5,0:10,3,White,['space'],0,0,1,15:50,./completed_changuitos/montage_qiswf_55.55_49.15.jpg,left,0,0,0,0,,,,,0,0,0,0,,,,,,,,,0,0,0,0,0,1,1,1,,,,,,,,,,,,,,,,,,151.75354110300395,152.25334258699877,None,0,151.75354110300395,151.75354110300395,,,,,,,,,,,,,,,,,,,,,,,,,,,,,,,,,,,,,,,,,,,,,,,,,,,,,,,,,,,,,matiasp,001,b,2019_Nov_15_2032,Experimento,3.2.3,60.00390649449134,
8,14,14,999,0.5,0:10,3,Magenta,None,0,0,1,15:50,./completed_changuitos/montage_qiswf_55.55_49.15.jpg,left,0,0,0,0,,,,,0,0,0,0,,,,,,,,,0,0,0,0,0,2,2,2,,,,,,,,,,,,,,,,,,153.75281371099845,154.25265750000108,None,1,153.75281371099845,153.75281371099845,,,,,,,,,,,,,,,,,,,,,,,,,,,,,,,,,,,,,,,,,,,,,,,,,,,,,,,,,,,,,matiasp,001,b,2019_Nov_15_2032,Experimento,3.2.3,60.00390649449134,
8,14,14,999,0.5,0:10,3,Cyan,None,0,0,1,15:50,./completed_changuitos/montage_qiswf_55.55_49.15.jpg,left,0,0,0,0,,,,,0,0,0,0,,,,,,,,,0,0,0,0,0,3,3,3,,,,,,,,,,,,,,,,,,155.75214629199763,156.25202939500014,None,1,155.75214629199763,155.75214629199763,,,,,,,,,,,,,,,,,,,,,,,,,,,,,,,,,,,,,,,,,,,,,,,,,,,,,,,,,,,,,matiasp,001,b,2019_Nov_15_2032,Experimento,3.2.3,60.00390649449134,
8,14,14,999,0.5,0:10,3,Blue,None,0,0,1,15:50,./completed_changuitos/montage_qiswf_55.55_49.15.jpg,left,0,0,0,0,,,,,0,0,0,0,,,,,,,,,0,0,0,0,0,4,4,4,,,,,,,,,,,,,,,,,,157.751451533004,158.25128692100407,None,1,157.751451533004,157.751451533004,,,,,,,,,,,,,,,,,,,,,,,,,,,,,,,,,,,,,,,,,,,,,,,,,,,,,,,,,,,,,matiasp,001,b,2019_Nov_15_2032,Experimento,3.2.3,60.00390649449134,
8,14,14,999,0.5,0:10,3,Magenta,None,0,0,1,15:50,./completed_changuitos/montage_qiswf_55.55_49.15.jpg,left,0,0,0,0,,,,,0,0,0,0,,,,,,,,,0,0,0,0,0,5,5,5,,,,,,,,,,,,,,,,,,159.75077492900164,160.25060562900035,None,1,159.75077492900164,159.75077492900164,,,,,,,,,,,,,,,,,,,,,,,,,,,,,,,,,,,,,,,,,,,,,,,,,,,,,,,,,,,,,matiasp,001,b,2019_Nov_15_2032,Experimento,3.2.3,60.00390649449134,
8,14,14,999,0.5,0:10,3,Blue,['space'],0,0,1,15:50,./completed_changuitos/montage_qiswf_55.55_49.15.jpg,left,0,0,0,0,,,,,0,0,0,0,,,,,,,,,0,0,0,0,0,6,6,6,,,,,,,,,,,,,,,,,,161.75016067000251,162.24994522600173,['return'],0,161.75016067000251,161.75016067000251,[1.3167502470023464],,,,,,,,,,,,,,,,,,,,,,,,,,,,,,,,,,,,,,,,,,,,,,,,,,,,,,,,,,,,matiasp,001,b,2019_Nov_15_2032,Experimento,3.2.3,60.00390649449134,
8,14,14,999,0.5,0:10,3,Cyan,None,0,0,1,15:50,./completed_changuitos/montage_qiswf_55.55_49.15.jpg,left,0,0,0,0,,,,,0,0,0,0,,,,,,,,,0,0,0,0,0,7,7,7,,,,,,,,,,,,,,,,,,163.73275251910383,None,None,1,163.73275251910383,None,,,,,,,,,,,,,,,,,,,,,,,,,,,,,,,,,,,,,,,,,,,,,,,,,,,,,,,,,,,,,matiasp,001,b,2019_Nov_15_2032,Experimento,3.2.3,60.00390649449134,
8,14,14,999,0.5,0:10,3,Yellow,None,0,0,1,15:50,./completed_changuitos/montage_qiswf_55.55_49.15.jpg,left,0,0,0,0,,,,,0,0,0,0,,,,,,,,,0,0,0,0,0,8,8,8,,,,,,,,,,,,,,,,,,163.73275251910383,None,None,1,163.73275251910383,None,,,,,,,,,,,,,,,,,,,,,,,,,,,,,,,,,,,,,,,,,,,,,,,,,,,,,,,,,,,,,matiasp,001,b,2019_Nov_15_2032,Experimento,3.2.3,60.00390649449134,
8,14,14,999,0.5,0:10,3,Cyan,None,0,0,1,15:50,./completed_changuitos/montage_qiswf_55.55_49.15.jpg,left,0,0,0,0,,,,,0,0,0,0,,,,,,,,,0,0,0,0,0,9,9,9,,,,,,,,,,,,,,,,,,163.73275251910383,None,None,1,163.73275251910383,None,,,,,,,,,,,,,,,,,,,,,,,,,,,,,,,,,,,,,,,,,,,,,,,,,,,,,,,,,,,,,matiasp,001,b,2019_Nov_15_2032,Experimento,3.2.3,60.00390649449134,
8,14,14,999,0.5,0:10,3,Blue,None,0,0,1,15:50,./completed_changuitos/montage_qiswf_55.55_49.15.jpg,left,0,0,0,0,,,,,0,0,0,0,,,,,,,,,0,0,0,0,0,10,10,10,,,,,,,,,,,,,,,,,,163.73275251910383,None,None,1,163.73275251910383,None,,,,,,,,,,,,,,,,,,,,,,,,,,,,,,,,,,,,,,,,,,,,,,,,,,,,,,,,,,,,,matiasp,001,b,2019_Nov_15_2032,Experimento,3.2.3,60.00390649449134,
8,14,14,999,0.5,0:10,3,Cyan,['space'],0,0,1,15:50,./completed_changuitos/montage_qiswf_55.55_49.15.jpg,left,0,0,0,0,,,,,0,0,0,0,,,,,,,,,0,0,0,0,0,11,11,11,,,,,,,,,,,,,,,,,,163.74941551720406,None,None,0,163.74941551720406,None,,,,,,,,,,,,,,,,,,,,,,,,,,,,,,,,,,,,,,,,,,,,,,,,,,,,,,,,,,,,,matiasp,001,b,2019_Nov_15_2032,Experimento,3.2.3,60.00390649449134,
8,14,14,999,0.5,0:10,3,Magenta,None,0,0,1,15:50,./completed_changuitos/montage_qiswf_55.55_49.15.jpg,left,0,0,0,0,,,,,0,0,0,0,,,,,,,,,0,0,0,0,0,12,12,12,,,,,,,,,,,,,,,,,,163.74941551720406,None,None,1,163.74941551720406,None,,,,,,,,,,,,,,,,,,,,,,,,,,,,,,,,,,,,,,,,,,,,,,,,,,,,,,,,,,,,,matiasp,001,b,2019_Nov_15_2032,Experimento,3.2.3,60.00390649449134,
8,14,14,999,0.5,0:10,3,Red,None,0,0,1,15:50,./completed_changuitos/montage_qiswf_55.55_49.15.jpg,left,0,0,0,0,,,,,0,0,0,0,,,,,,,,,0,0,0,0,0,13,13,13,,,,,,,,,,,,,,,,,,163.74941551720406,None,None,1,163.74941551720406,None,,,,,,,,,,,,,,,,,,,,,,,,,,,,,,,,,,,,,,,,,,,,,,,,,,,,,,,,,,,,,matiasp,001,b,2019_Nov_15_2032,Experimento,3.2.3,60.00390649449134,
8,14,14,999,0.5,0:10,3,Magenta,['space'],0,0,1,15:50,./completed_changuitos/montage_qiswf_55.55_49.15.jpg,left,0,0,0,0,,,,,0,0,0,0,,,,,,,,,0,0,0,0,0,14,14,14,,,,,,,,,,,,,,,,,,163.74941551720406,None,None,0,163.74941551720406,None,,,,,,,,,,,,,,,,,,,,,,,,,,,,,,,,,,,,,,,,,,,,,,,,,,,,,,,,,,,,,matiasp,001,b,2019_Nov_15_2032,Experimento,3.2.3,60.00390649449134,
8,14,14,999,0.5,0:10,3,Green,None,0,0,1,15:50,./completed_changuitos/montage_qiswf_55.55_49.15.jpg,left,0,0,0,0,,,,,0,0,0,0,,,,,,,,,0,0,0,0,0,15,15,15,,,,,,,,,,,,,,,,,,163.74941551720406,None,None,1,163.74941551720406,None,,,,,,,,,,,,,,,,,,,,,,,,,,,,,,,,,,,,,,,,,,,,,,,,,,,,,,,,,,,,,matiasp,001,b,2019_Nov_15_2032,Experimento,3.2.3,60.00390649449134,
8,14,14,999,0.5,0:10,3,Yellow,['space'],0,0,1,15:50,./completed_changuitos/montage_qiswf_55.55_49.15.jpg,left,0,0,0,0,,,,,0,0,0,0,,,,,,,,,0,0,0,0,0,16,16,16,,,,,,,,,,,,,,,,,,163.76607851530426,None,None,0,163.76607851530426,None,,,,,,,,,,,,,,,,,,,,,,,,,,,,,,,,,,,,,,,,,,,,,,,,,,,,,,,,,,,,,matiasp,001,b,2019_Nov_15_2032,Experimento,3.2.3,60.00390649449134,
8,14,14,999,0.5,0:10,3,Blue,None,0,0,1,15:50,./completed_changuitos/montage_qiswf_55.55_49.15.jpg,left,0,0,0,0,,,,,0,0,0,0,,,,,,,,,0,0,0,0,0,17,17,17,,,,,,,,,,,,,,,,,,163.76607851530426,None,None,1,163.76607851530426,None,,,,,,,,,,,,,,,,,,,,,,,,,,,,,,,,,,,,,,,,,,,,,,,,,,,,,,,,,,,,,matiasp,001,b,2019_Nov_15_2032,Experimento,3.2.3,60.00390649449134,
8,14,14,999,0.5,0:10,3,Cyan,None,0,0,1,15:50,./completed_changuitos/montage_qiswf_55.55_49.15.jpg,left,0,0,0,0,,,,,0,0,0,0,,,,,,,,,0,0,0,0,0,18,18,18,,,,,,,,,,,,,,,,,,163.76607851530426,None,None,1,163.76607851530426,None,,,,,,,,,,,,,,,,,,,,,,,,,,,,,,,,,,,,,,,,,,,,,,,,,,,,,,,,,,,,,matiasp,001,b,2019_Nov_15_2032,Experimento,3.2.3,60.00390649449134,
8,14,14,999,0.5,0:10,3,Blue,['space'],0,0,1,15:50,./completed_changuitos/montage_qiswf_55.55_49.15.jpg,left,0,0,0,0,,,,,0,0,0,0,,,,,,,,,0,0,0,0,0,19,19,19,,,,,,,,,,,,,,,,,,163.76607851530426,None,None,0,163.76607851530426,None,,,,,,,,,,,,,,,,,,,,,,,,,,,,,,,,,,,,,,,,,,,,,,,,,,,,,,,,,,,,,matiasp,001,b,2019_Nov_15_2032,Experimento,3.2.3,60.00390649449134,
8,14,14,999,0.5,0:10,3,Yellow,None,0,0,1,15:50,./completed_changuitos/montage_qiswf_55.55_49.15.jpg,left,0,0,0,0,,,,,0,0,0,0,,,,,,,,,0,0,0,0,0,20,20,20,,,,,,,,,,,,,,,,,,163.76607851530426,None,None,1,163.76607851530426,None,,,,,,,,,,,,,,,,,,,,,,,,,,,,,,,,,,,,,,,,,,,,,,,,,,,,,,,,,,,,,matiasp,001,b,2019_Nov_15_2032,Experimento,3.2.3,60.00390649449134,
8,14,14,999,0.5,0:10,3,Cyan,None,0,0,1,15:50,./completed_changuitos/montage_qiswf_55.55_49.15.jpg,left,0,0,0,0,,,,,0,0,0,0,,,,,,,,,0,0,0,0,0,21,21,21,,,,,,,,,,,,,,,,,,163.76607851530426,None,None,1,163.76607851530426,None,,,,,,,,,,,,,,,,,,,,,,,,,,,,,,,,,,,,,,,,,,,,,,,,,,,,,,,,,,,,,matiasp,001,b,2019_Nov_15_2032,Experimento,3.2.3,60.00390649449134,
8,14,14,999,0.5,0:10,3,Yellow,['space'],0,0,1,15:50,./completed_changuitos/montage_qiswf_55.55_49.15.jpg,left,0,0,0,0,,,,,0,0,0,0,,,,,,,,,0,0,0,0,0,22,22,22,,,,,,,,,,,,,,,,,,163.76607851530426,None,None,0,163.76607851530426,None,,,,,,,,,,,,,,,,,,,,,,,,,,,,,,,,,,,,,,,,,,,,,,,,,,,,,,,,,,,,,matiasp,001,b,2019_Nov_15_2032,Experimento,3.2.3,60.00390649449134,
8,14,14,999,0.5,0:10,3,Magenta,None,0,0,1,15:50,./completed_changuitos/montage_qiswf_55.55_49.15.jpg,left,0,0,0,0,,,,,0,0,0,0,,,,,,,,,0,0,0,0,0,23,23,23,,,,,,,,,,,,,,,,,,163.76607851530426,None,None,1,163.76607851530426,None,,,,,,,,,,,,,,,,,,,,,,,,,,,,,,,,,,,,,,,,,,,,,,,,,,,,,,,,,,,,,matiasp,001,b,2019_Nov_15_2032,Experimento,3.2.3,60.00390649449134,
8,14,14,999,0.5,0:10,3,Red,None,0,0,1,15:50,./completed_changuitos/montage_qiswf_55.55_49.15.jpg,left,0,0,0,0,,,,,0,0,0,0,,,,,,,,,0,0,0,0,0,24,24,24,,,,,,,,,,,,,,,,,,163.76607851530426,None,None,1,163.76607851530426,None,,,,,,,,,,,,,,,,,,,,,,,,,,,,,,,,,,,,,,,,,,,,,,,,,,,,,,,,,,,,,matiasp,001,b,2019_Nov_15_2032,Experimento,3.2.3,60.00390649449134,
8,14,14,999,0.5,0:10,3,Magenta,['space'],0,0,1,15:50,./completed_changuitos/montage_qiswf_55.55_49.15.jpg,left,0,0,0,0,,,,,0,0,0,0,,,,,,,,,0,0,0,0,0,25,25,25,,,,,,,,,,,,,,,,,,163.76607851530426,None,None,0,163.76607851530426,None,,,,,,,,,,,,,,,,,,,,,,,,,,,,,,,,,,,,,,,,,,,,,,,,,,,,,,,,,,,,,matiasp,001,b,2019_Nov_15_2032,Experimento,3.2.3,60.00390649449134,
8,14,14,999,0.5,0:10,3,Red,['space'],0,0,1,15:50,./completed_changuitos/montage_qiswf_55.55_49.15.jpg,left,0,0,0,0,,,,,0,0,0,0,,,,,,,,,0,0,0,0,0,26,26,26,,,,,,,,,,,,,,,,,,163.76607851530426,None,None,0,163.76607851530426,None,,,,,,,,,,,,,,,,,,,,,,,,,,,,,,,,,,,,,,,,,,,,,,,,,,,,,,,,,,,,,matiasp,001,b,2019_Nov_15_2032,Experimento,3.2.3,60.00390649449134,
8,14,14,999,0.5,0:10,3,Yellow,None,0,0,1,15:50,./completed_changuitos/montage_qiswf_55.55_49.15.jpg,left,0,0,0,0,,,,,0,0,0,0,,,,,,,,,0,0,0,0,0,27,27,27,,,,,,,,,,,,,,,,,,163.76607851530426,None,None,1,163.76607851530426,None,,,,,,,,,,,,,,,,,,,,,,,,,,,,,,,,,,,,,,,,,,,,,,,,,,,,,,,,,,,,,matiasp,001,b,2019_Nov_15_2032,Experimento,3.2.3,60.00390649449134,
8,14,14,999,0.5,0:10,3,Cyan,None,0,0,1,15:50,./completed_changuitos/montage_qiswf_55.55_49.15.jpg,left,0,0,0,0,,,,,0,0,0,0,,,,,,,,,0,0,0,0,0,28,28,28,,,,,,,,,,,,,,,,,,163.7827415134045,None,None,1,163.7827415134045,None,,,,,,,,,,,,,,,,,,,,,,,,,,,,,,,,,,,,,,,,,,,,,,,,,,,,,,,,,,,,,matiasp,001,b,2019_Nov_15_2032,Experimento,3.2.3,60.00390649449134,
8,14,14,999,0.5,0:10,3,Green,None,0,0,1,15:50,./completed_changuitos/montage_qiswf_55.55_49.15.jpg,left,0,0,0,0,,,,,0,0,0,0,,,,,,,,,0,0,0,0,0,29,29,29,,,,,,,,,,,,,,,,,,163.7827415134045,None,None,1,163.7827415134045,None,,,,,,,,,,,,,,,,,,,,,,,,,,,,,,,,,,,,,,,,,,,,,,,,,,,,,,,,,,,,,matiasp,001,b,2019_Nov_15_2032,Experimento,3.2.3,60.00390649449134,
8,14,14,999,0.5,0:10,3,White,None,0,0,1,15:50,./completed_changuitos/montage_qiswf_55.55_49.15.jpg,left,0,0,0,0,,,,,0,0,0,0,,,,,,,,,0,0,0,0,0,30,30,30,,,,,,,,,,,,,,,,,,163.7827415134045,None,None,1,163.7827415134045,None,,,,,,,,,,,,,,,,,,,,,,,,,,,,,,,,,,,,,,,,,,,,,,,,,,,,,,,,,,,,,matiasp,001,b,2019_Nov_15_2032,Experimento,3.2.3,60.00390649449134,
8,14,14,999,0.5,0:10,3,Green,['space'],0,0,1,15:50,./completed_changuitos/montage_qiswf_55.55_49.15.jpg,left,0,0,0,0,,,,,0,0,0,0,,,,,,,,,0,0,0,0,0,31,31,31,,,,,,,,,,,,,,,,,,163.7827415134045,None,None,0,163.7827415134045,None,,,,,,,,,,,,,,,,,,,,,,,,,,,,,,,,,,,,,,,,,,,,,,,,,,,,,,,,,,,,,matiasp,001,b,2019_Nov_15_2032,Experimento,3.2.3,60.00390649449134,
8,14,14,999,0.5,0:10,3,Red,None,0,0,1,15:50,./completed_changuitos/montage_qiswf_55.55_49.15.jpg,left,0,0,0,0,,,,,0,0,0,0,,,,,,,,,0,0,0,0,0,32,32,32,,,,,,,,,,,,,,,,,,163.7827415134045,None,None,1,163.7827415134045,None,,,,,,,,,,,,,,,,,,,,,,,,,,,,,,,,,,,,,,,,,,,,,,,,,,,,,,,,,,,,,matiasp,001,b,2019_Nov_15_2032,Experimento,3.2.3,60.00390649449134,
8,14,14,999,0.5,0:10,3,Blue,None,0,0,1,15:50,./completed_changuitos/montage_qiswf_55.55_49.15.jpg,left,0,0,0,0,,,,,0,0,0,0,,,,,,,,,0,0,0,0,0,33,33,33,,,,,,,,,,,,,,,,,,163.7827415134045,None,None,1,163.7827415134045,None,,,,,,,,,,,,,,,,,,,,,,,,,,,,,,,,,,,,,,,,,,,,,,,,,,,,,,,,,,,,,matiasp,001,b,2019_Nov_15_2032,Experimento,3.2.3,60.00390649449134,
8,14,14,999,0.5,0:10,3,Green,None,0,0,1,15:50,./completed_changuitos/montage_qiswf_55.55_49.15.jpg,left,0,0,0,0,,,,,0,0,0,0,,,,,,,,,0,0,0,0,0,34,34,34,,,,,,,,,,,,,,,,,,163.7827415134045,None,None,1,163.7827415134045,None,,,,,,,,,,,,,,,,,,,,,,,,,,,,,,,,,,,,,,,,,,,,,,,,,,,,,,,,,,,,,matiasp,001,b,2019_Nov_15_2032,Experimento,3.2.3,60.00390649449134,
8,14,14,999,0.5,0:10,3,,,0,0,1,15:50,./completed_changuitos/montage_qiswf_55.55_49.15.jpg,left,0,0,0,0,,,,,0,0,0,0,,,,,,,,,0,0,0,0,,,,,,,,,,,,,,,,,,,,,,,,,,,,,163.81714021300286,None,left,1,12.54452556600154,163.81714021300286,None,163.81714021300286,166.83170887100277,,,,,,,,,,,,,,,,,,,,,,,,,,,,,,,,,,,,,,,,,,,,,,,,,,,matiasp,001,b,2019_Nov_15_2032,Experimento,3.2.3,60.00390649449134,
8,14,14,999,0.5,0:10,3,,,0,0,1,15:50,,,0,0,0,0,,,,,0,0,0,0,,,,,,,,,,,,,,,,,,,,,,,,,,,,,,,,,,,,,,,,,,,,,,,,,,,,,,,,,,,,,,,,,,,,,,,,,,,,,,,,,,,,,,,,,,,,,,,,,,,,matiasp,001,b,2019_Nov_15_2032,Experimento,3.2.3,60.00390649449134,
8,14,14,999,0.5,0:10,3,,,0,1,0,19:50,./completed_changuitos/montage_tucft_55.65_49.25.jpg,left,0,0,0,0,,,,,0,1,1,1,,,,,0,0,0,0,,,,,,,,,,,,,,,,,,,,,,,,,,,,,,,,,,,,,,,,,,176.54661076800403,180.04351231799956,180.04351231799956,188.05782661600097,188.05782661600097,202.06972468000458,right,0,1.9497845959995175,202.06972468000458,None,202.06972468000458,None,202.06972468000458,None,,,,,,,,,,,,,,,,,,,,,,,,,,,,,,,,,,,,matiasp,001,b,2019_Nov_15_2032,Experimento,3.2.3,60.00390649449134,
8,14,14,999,0.5,0:10,3,,,0,1,0,19:50,,,0,0,0,0,,,,,0,1,1,1,,,,,,,,,,,,,,,,,,,,,,,,,,,,,,,,,,,,,,,,,,,,,,,,,,,,,,,,,,,,,,,,,,,,,,,,,,,,,,,,,,,,,,,,,,,,,,,,,,,,matiasp,001,b,2019_Nov_15_2032,Experimento,3.2.3,60.00390649449134,
8,14,14,999,0.5,0:10,3,Magenta,None,0,0,1,20:50,./completed_changuitos/montage_kjkwh_77.05_91.39.jpg,right,0,0,0,0,,,,,0,2,2,2,,,,,,,,,0,0,0,0,0,0,0,0,,,,,,,,,,,,,,204.13528349000262,207.06801888799964,207.06801888799964,None,215.11110168699815,215.61510992600233,None,1,215.11110168699815,None,,,,,,,,,,,,,,,,,,,,,,,,,,,,,,,,,,,,,,,,,,,,,,,,,,,,,,,,,,,,,matiasp,001,b,2019_Nov_15_2032,Experimento,3.2.3,60.00390649449134,
8,14,14,999,0.5,0:10,3,Blue,['space'],0,0,1,20:50,./completed_changuitos/montage_kjkwh_77.05_91.39.jpg,right,0,0,0,0,,,,,0,2,2,2,,,,,,,,,0,0,0,0,0,1,1,1,,,,,,,,,,,,,,,,,,217.11459840200405,217.61441501900117,None,0,217.11459840200405,217.11459840200405,,,,,,,,,,,,,,,,,,,,,,,,,,,,,,,,,,,,,,,,,,,,,,,,,,,,,,,,,,,,,matiasp,001,b,2019_Nov_15_2032,Experimento,3.2.3,60.00390649449134,
8,14,14,999,0.5,0:10,3,Cyan,None,0,0,1,20:50,./completed_changuitos/montage_kjkwh_77.05_91.39.jpg,right,0,0,0,0,,,,,0,2,2,2,,,,,,,,,0,0,0,0,0,2,2,2,,,,,,,,,,,,,,,,,,219.11394730999746,219.61382504399808,None,1,219.11394730999746,219.11394730999746,,,,,,,,,,,,,,,,,,,,,,,,,,,,,,,,,,,,,,,,,,,,,,,,,,,,,,,,,,,,,matiasp,001,b,2019_Nov_15_2032,Experimento,3.2.3,60.00390649449134,
8,14,14,999,0.5,0:10,3,Yellow,None,0,0,1,20:50,./completed_changuitos/montage_kjkwh_77.05_91.39.jpg,right,0,0,0,0,,,,,0,2,2,2,,,,,,,,,0,0,0,0,0,3,3,3,,,,,,,,,,,,,,,,,,221.11332907200267,221.61306384499767,None,1,221.11332907200267,221.11332907200267,,,,,,,,,,,,,,,,,,,,,,,,,,,,,,,,,,,,,,,,,,,,,,,,,,,,,,,,,,,,,matiasp,001,b,2019_Nov_15_2032,Experimento,3.2.3,60.00390649449134,
8,14,14,999,0.5,0:10,3,Cyan,None,0,0,1,20:50,./completed_changuitos/montage_kjkwh_77.05_91.39.jpg,right,0,0,0,0,,,,,0,2,2,2,,,,,,,,,0,0,0,0,0,4,4,4,,,,,,,,,,,,,,,,,,223.11253266600397,223.61237511000218,['return'],0,223.11253266600397,223.11253266600397,[0.6663092730013886],,,,,,,,,,,,,,,,,,,,,,,,,,,,,,,,,,,,,,,,,,,,,,,,,,,,,,,,,,,,matiasp,001,b,2019_Nov_15_2032,Experimento,3.2.3,60.00390649449134,
8,14,14,999,0.5,0:10,3,Blue,None,0,0,1,20:50,./completed_changuitos/montage_kjkwh_77.05_91.39.jpg,right,0,0,0,0,,,,,0,2,2,2,,,,,,,,,0,0,0,0,0,5,5,5,,,,,,,,,,,,,,,,,,225.11186720799742,225.61170069700165,None,1,225.11186720799742,225.11186720799742,,,,,,,,,,,,,,,,,,,,,,,,,,,,,,,,,,,,,,,,,,,,,,,,,,,,,,,,,,,,,matiasp,001,b,2019_Nov_15_2032,Experimento,3.2.3,60.00390649449134,
8,14,14,999,0.5,0:10,3,Cyan,['space'],0,0,1,20:50,./completed_changuitos/montage_kjkwh_77.05_91.39.jpg,right,0,0,0,0,,,,,0,2,2,2,,,,,,,,,0,0,0,0,0,6,6,6,,,,,,,,,,,,,,,,,,227.11087387500447,227.61104472199804,['return'],0,227.11087387500447,227.11087387500447,[0.6841029100032756],,,,,,,,,,,,,,,,,,,,,,,,,,,,,,,,,,,,,,,,,,,,,,,,,,,,,,,,,,,,matiasp,001,b,2019_Nov_15_2032,Experimento,3.2.3,60.00390649449134,
8,14,14,999,0.5,0:10,3,Magenta,None,0,0,1,20:50,./completed_changuitos/montage_kjkwh_77.05_91.39.jpg,right,0,0,0,0,,,,,0,2,2,2,,,,,,,,,0,0,0,0,0,7,7,7,,,,,,,,,,,,,,,,,,229.09383055010113,None,None,1,229.09383055010113,None,,,,,,,,,,,,,,,,,,,,,,,,,,,,,,,,,,,,,,,,,,,,,,,,,,,,,,,,,,,,,matiasp,001,b,2019_Nov_15_2032,Experimento,3.2.3,60.00390649449134,
8,14,14,999,0.5,0:10,3,Red,None,0,0,1,20:50,./completed_changuitos/montage_kjkwh_77.05_91.39.jpg,right,0,0,0,0,,,,,0,2,2,2,,,,,,,,,0,0,0,0,0,8,8,8,,,,,,,,,,,,,,,,,,229.09383055010113,None,None,1,229.09383055010113,None,,,,,,,,,,,,,,,,,,,,,,,,,,,,,,,,,,,,,,,,,,,,,,,,,,,,,,,,,,,,,matiasp,001,b,2019_Nov_15_2032,Experimento,3.2.3,60.00390649449134,
8,14,14,999,0.5,0:10,3,Magenta,['space'],0,0,1,20:50,./completed_changuitos/montage_kjkwh_77.05_91.39.jpg,right,0,0,0,0,,,,,0,2,2,2,,,,,,,,,0,0,0,0,0,9,9,9,,,,,,,,,,,,,,,,,,229.09383055010113,None,None,0,229.09383055010113,None,,,,,,,,,,,,,,,,,,,,,,,,,,,,,,,,,,,,,,,,,,,,,,,,,,,,,,,,,,,,,matiasp,001,b,2019_Nov_15_2032,Experimento,3.2.3,60.00390649449134,
8,14,14,999,0.5,0:10,3,Green,None,0,0,1,20:50,./completed_changuitos/montage_kjkwh_77.05_91.39.jpg,right,0,0,0,0,,,,,0,2,2,2,,,,,,,,,0,0,0,0,0,10,10,10,,,,,,,,,,,,,,,,,,229.09383055010113,None,None,1,229.09383055010113,None,,,,,,,,,,,,,,,,,,,,,,,,,,,,,,,,,,,,,,,,,,,,,,,,,,,,,,,,,,,,,matiasp,001,b,2019_Nov_15_2032,Experimento,3.2.3,60.00390649449134,
8,14,14,999,0.5,0:10,3,Yellow,['space'],0,0,1,20:50,./completed_changuitos/montage_kjkwh_77.05_91.39.jpg,right,0,0,0,0,,,,,0,2,2,2,,,,,,,,,0,0,0,0,0,11,11,11,,,,,,,,,,,,,,,,,,229.11049354820136,None,None,0,229.11049354820136,None,,,,,,,,,,,,,,,,,,,,,,,,,,,,,,,,,,,,,,,,,,,,,,,,,,,,,,,,,,,,,matiasp,001,b,2019_Nov_15_2032,Experimento,3.2.3,60.00390649449134,
8,14,14,999,0.5,0:10,3,Blue,None,0,0,1,20:50,./completed_changuitos/montage_kjkwh_77.05_91.39.jpg,right,0,0,0,0,,,,,0,2,2,2,,,,,,,,,0,0,0,0,0,12,12,12,,,,,,,,,,,,,,,,,,229.11049354820136,None,None,1,229.11049354820136,None,,,,,,,,,,,,,,,,,,,,,,,,,,,,,,,,,,,,,,,,,,,,,,,,,,,,,,,,,,,,,matiasp,001,b,2019_Nov_15_2032,Experimento,3.2.3,60.00390649449134,
8,14,14,999,0.5,0:10,3,Cyan,None,0,0,1,20:50,./completed_changuitos/montage_kjkwh_77.05_91.39.jpg,right,0,0,0,0,,,,,0,2,2,2,,,,,,,,,0,0,0,0,0,13,13,13,,,,,,,,,,,,,,,,,,229.11049354820136,None,None,1,229.11049354820136,None,,,,,,,,,,,,,,,,,,,,,,,,,,,,,,,,,,,,,,,,,,,,,,,,,,,,,,,,,,,,,matiasp,001,b,2019_Nov_15_2032,Experimento,3.2.3,60.00390649449134,
8,14,14,999,0.5,0:10,3,Blue,['space'],0,0,1,20:50,./completed_changuitos/montage_kjkwh_77.05_91.39.jpg,right,0,0,0,0,,,,,0,2,2,2,,,,,,,,,0,0,0,0,0,14,14,14,,,,,,,,,,,,,,,,,,229.11049354820136,None,None,0,229.11049354820136,None,,,,,,,,,,,,,,,,,,,,,,,,,,,,,,,,,,,,,,,,,,,,,,,,,,,,,,,,,,,,,matiasp,001,b,2019_Nov_15_2032,Experimento,3.2.3,60.00390649449134,
8,14,14,999,0.5,0:10,3,Yellow,None,0,0,1,20:50,./completed_changuitos/montage_kjkwh_77.05_91.39.jpg,right,0,0,0,0,,,,,0,2,2,2,,,,,,,,,0,0,0,0,0,15,15,15,,,,,,,,,,,,,,,,,,229.11049354820136,None,None,1,229.11049354820136,None,,,,,,,,,,,,,,,,,,,,,,,,,,,,,,,,,,,,,,,,,,,,,,,,,,,,,,,,,,,,,matiasp,001,b,2019_Nov_15_2032,Experimento,3.2.3,60.00390649449134,
8,14,14,999,0.5,0:10,3,Cyan,None,0,0,1,20:50,./completed_changuitos/montage_kjkwh_77.05_91.39.jpg,right,0,0,0,0,,,,,0,2,2,2,,,,,,,,,0,0,0,0,0,16,16,16,,,,,,,,,,,,,,,,,,229.12715654630156,None,None,1,229.12715654630156,None,,,,,,,,,,,,,,,,,,,,,,,,,,,,,,,,,,,,,,,,,,,,,,,,,,,,,,,,,,,,,matiasp,001,b,2019_Nov_15_2032,Experimento,3.2.3,60.00390649449134,
8,14,14,999,0.5,0:10,3,Yellow,['space'],0,0,1,20:50,./completed_changuitos/montage_kjkwh_77.05_91.39.jpg,right,0,0,0,0,,,,,0,2,2,2,,,,,,,,,0,0,0,0,0,17,17,17,,,,,,,,,,,,,,,,,,229.12715654630156,None,None,0,229.12715654630156,None,,,,,,,,,,,,,,,,,,,,,,,,,,,,,,,,,,,,,,,,,,,,,,,,,,,,,,,,,,,,,matiasp,001,b,2019_Nov_15_2032,Experimento,3.2.3,60.00390649449134,
8,14,14,999,0.5,0:10,3,Magenta,None,0,0,1,20:50,./completed_changuitos/montage_kjkwh_77.05_91.39.jpg,right,0,0,0,0,,,,,0,2,2,2,,,,,,,,,0,0,0,0,0,18,18,18,,,,,,,,,,,,,,,,,,229.12715654630156,None,None,1,229.12715654630156,None,,,,,,,,,,,,,,,,,,,,,,,,,,,,,,,,,,,,,,,,,,,,,,,,,,,,,,,,,,,,,matiasp,001,b,2019_Nov_15_2032,Experimento,3.2.3,60.00390649449134,
8,14,14,999,0.5,0:10,3,Red,None,0,0,1,20:50,./completed_changuitos/montage_kjkwh_77.05_91.39.jpg,right,0,0,0,0,,,,,0,2,2,2,,,,,,,,,0,0,0,0,0,19,19,19,,,,,,,,,,,,,,,,,,229.12715654630156,None,None,1,229.12715654630156,None,,,,,,,,,,,,,,,,,,,,,,,,,,,,,,,,,,,,,,,,,,,,,,,,,,,,,,,,,,,,,matiasp,001,b,2019_Nov_15_2032,Experimento,3.2.3,60.00390649449134,
8,14,14,999,0.5,0:10,3,Magenta,['space'],0,0,1,20:50,./completed_changuitos/montage_kjkwh_77.05_91.39.jpg,right,0,0,0,0,,,,,0,2,2,2,,,,,,,,,0,0,0,0,0,20,20,20,,,,,,,,,,,,,,,,,,229.12715654630156,None,None,0,229.12715654630156,None,,,,,,,,,,,,,,,,,,,,,,,,,,,,,,,,,,,,,,,,,,,,,,,,,,,,,,,,,,,,,matiasp,001,b,2019_Nov_15_2032,Experimento,3.2.3,60.00390649449134,
8,14,14,999,0.5,0:10,3,Red,['space'],0,0,1,20:50,./completed_changuitos/montage_kjkwh_77.05_91.39.jpg,right,0,0,0,0,,,,,0,2,2,2,,,,,,,,,0,0,0,0,0,21,21,21,,,,,,,,,,,,,,,,,,229.12715654630156,None,None,0,229.12715654630156,None,,,,,,,,,,,,,,,,,,,,,,,,,,,,,,,,,,,,,,,,,,,,,,,,,,,,,,,,,,,,,matiasp,001,b,2019_Nov_15_2032,Experimento,3.2.3,60.00390649449134,
8,14,14,999,0.5,0:10,3,Yellow,None,0,0,1,20:50,./completed_changuitos/montage_kjkwh_77.05_91.39.jpg,right,0,0,0,0,,,,,0,2,2,2,,,,,,,,,0,0,0,0,0,22,22,22,,,,,,,,,,,,,,,,,,229.12715654630156,None,None,1,229.12715654630156,None,,,,,,,,,,,,,,,,,,,,,,,,,,,,,,,,,,,,,,,,,,,,,,,,,,,,,,,,,,,,,matiasp,001,b,2019_Nov_15_2032,Experimento,3.2.3,60.00390649449134,
8,14,14,999,0.5,0:10,3,Cyan,None,0,0,1,20:50,./completed_changuitos/montage_kjkwh_77.05_91.39.jpg,right,0,0,0,0,,,,,0,2,2,2,,,,,,,,,0,0,0,0,0,23,23,23,,,,,,,,,,,,,,,,,,229.12715654630156,None,None,1,229.12715654630156,None,,,,,,,,,,,,,,,,,,,,,,,,,,,,,,,,,,,,,,,,,,,,,,,,,,,,,,,,,,,,,matiasp,001,b,2019_Nov_15_2032,Experimento,3.2.3,60.00390649449134,
8,14,14,999,0.5,0:10,3,Green,None,0,0,1,20:50,./completed_changuitos/montage_kjkwh_77.05_91.39.jpg,right,0,0,0,0,,,,,0,2,2,2,,,,,,,,,0,0,0,0,0,24,24,24,,,,,,,,,,,,,,,,,,229.12715654630156,None,None,1,229.12715654630156,None,,,,,,,,,,,,,,,,,,,,,,,,,,,,,,,,,,,,,,,,,,,,,,,,,,,,,,,,,,,,,matiasp,001,b,2019_Nov_15_2032,Experimento,3.2.3,60.00390649449134,
8,14,14,999,0.5,0:10,3,White,None,0,0,1,20:50,./completed_changuitos/montage_kjkwh_77.05_91.39.jpg,right,0,0,0,0,,,,,0,2,2,2,,,,,,,,,0,0,0,0,0,25,25,25,,,,,,,,,,,,,,,,,,229.12715654630156,None,None,1,229.12715654630156,None,,,,,,,,,,,,,,,,,,,,,,,,,,,,,,,,,,,,,,,,,,,,,,,,,,,,,,,,,,,,,matiasp,001,b,2019_Nov_15_2032,Experimento,3.2.3,60.00390649449134,
8,14,14,999,0.5,0:10,3,Green,['space'],0,0,1,20:50,./completed_changuitos/montage_kjkwh_77.05_91.39.jpg,right,0,0,0,0,,,,,0,2,2,2,,,,,,,,,0,0,0,0,0,26,26,26,,,,,,,,,,,,,,,,,,229.12715654630156,None,None,0,229.12715654630156,None,,,,,,,,,,,,,,,,,,,,,,,,,,,,,,,,,,,,,,,,,,,,,,,,,,,,,,,,,,,,,matiasp,001,b,2019_Nov_15_2032,Experimento,3.2.3,60.00390649449134,
8,14,14,999,0.5,0:10,3,Red,None,0,0,1,20:50,./completed_changuitos/montage_kjkwh_77.05_91.39.jpg,right,0,0,0,0,,,,,0,2,2,2,,,,,,,,,0,0,0,0,0,27,27,27,,,,,,,,,,,,,,,,,,229.12715654630156,None,None,1,229.12715654630156,None,,,,,,,,,,,,,,,,,,,,,,,,,,,,,,,,,,,,,,,,,,,,,,,,,,,,,,,,,,,,,matiasp,001,b,2019_Nov_15_2032,Experimento,3.2.3,60.00390649449134,
8,14,14,999,0.5,0:10,3,Blue,None,0,0,1,20:50,./completed_changuitos/montage_kjkwh_77.05_91.39.jpg,right,0,0,0,0,,,,,0,2,2,2,,,,,,,,,0,0,0,0,0,28,28,28,,,,,,,,,,,,,,,,,,229.12715654630156,None,None,1,229.12715654630156,None,,,,,,,,,,,,,,,,,,,,,,,,,,,,,,,,,,,,,,,,,,,,,,,,,,,,,,,,,,,,,matiasp,001,b,2019_Nov_15_2032,Experimento,3.2.3,60.00390649449134,
8,14,14,999,0.5,0:10,3,Green,None,0,0,1,20:50,./completed_changuitos/montage_kjkwh_77.05_91.39.jpg,right,0,0,0,0,,,,,0,2,2,2,,,,,,,,,0,0,0,0,0,29,29,29,,,,,,,,,,,,,,,,,,229.1438195444018,None,None,1,229.1438195444018,None,,,,,,,,,,,,,,,,,,,,,,,,,,,,,,,,,,,,,,,,,,,,,,,,,,,,,,,,,,,,,matiasp,001,b,2019_Nov_15_2032,Experimento,3.2.3,60.00390649449134,
8,14,14,999,0.5,0:10,3,,,0,0,1,20:50,./completed_changuitos/montage_kjkwh_77.05_91.39.jpg,right,0,0,0,0,,,,,0,2,2,2,,,,,,,,,0,0,0,0,,,,,,,,,,,,,,,,,,,,,,,,,,,,,229.16930712300382,None,right,1,1.5740748259995598,229.16930712300382,None,229.16930712300382,None,,,,,,,,,,,,,,,,,,,,,,,,,,,,,,,,,,,,,,,,,,,,,,,,,,,matiasp,001,b,2019_Nov_15_2032,Experimento,3.2.3,60.00390649449134,
8,14,14,999,0.5,0:10,3,,,0,0,1,20:50,,,0,0,0,0,,,,,0,2,2,2,,,,,,,,,,,,,,,,,,,,,,,,,,,,,,,,,,,,,,,,,,,,,,,,,,,,,,,,,,,,,,,,,,,,,,,,,,,,,,,,,,,,,,,,,,,,,,,,,,,,matiasp,001,b,2019_Nov_15_2032,Experimento,3.2.3,60.00390649449134,
8,14,14,999,0.5,0:10,3,,,0,1,0,25:50,./completed_changuitos/montage_qbbbl_66.25_76.85.jpg,right,0,0,0,0,,,,,0,3,3,3,,,,,0,0,0,0,,,,,,,,,,,,,,,,,,,,,,,,,,,,,,,,,,,,,,,,,,230.88221393799904,232.57598632200097,232.57598632200097,240.5899450529978,240.5899450529978,254.6018342899988,right,1,0.7002918729995145,254.6018342899988,None,254.6018342899988,None,254.6018342899988,None,,,,,,,,,,,,,,,,,,,,,,,,,,,,,,,,,,,,matiasp,001,b,2019_Nov_15_2032,Experimento,3.2.3,60.00390649449134,
8,14,14,999,0.5,0:10,3,,,0,1,0,25:50,,,0,0,0,0,,,,,0,3,3,3,,,,,,,,,,,,,,,,,,,,,,,,,,,,,,,,,,,,,,,,,,,,,,,,,,,,,,,,,,,,,,,,,,,,,,,,,,,,,,,,,,,,,,,,,,,,,,,,,,,,matiasp,001,b,2019_Nov_15_2032,Experimento,3.2.3,60.00390649449134,
8,14,14,999,0.5,0:10,3,Red,None,0,0,1,28:50,./completed_changuitos/montage_egbvd_61.95_71.19.jpg,right,0,0,0,0,,,,,0,4,4,4,,,,,,,,,0,0,0,0,0,0,0,0,,,,,,,,,,,,,,255.41763722700125,256.7344419380024,256.7344419380024,None,264.775854835003,265.2815464000014,None,1,264.775854835003,None,,,,,,,,,,,,,,,,,,,,,,,,,,,,,,,,,,,,,,,,,,,,,,,,,,,,,,,,,,,,,matiasp,001,b,2019_Nov_15_2032,Experimento,3.2.3,60.00390649449134,
8,14,14,999,0.5,0:10,3,Magenta,['space'],0,0,1,28:50,./completed_changuitos/montage_egbvd_61.95_71.19.jpg,right,0,0,0,0,,,,,0,4,4,4,,,,,,,,,0,0,0,0,0,1,1,1,,,,,,,,,,,,,,,,,,266.7810064790028,267.28083737900306,None,0,266.7810064790028,266.7810064790028,,,,,,,,,,,,,,,,,,,,,,,,,,,,,,,,,,,,,,,,,,,,,,,,,,,,,,,,,,,,,matiasp,001,b,2019_Nov_15_2032,Experimento,3.2.3,60.00390649449134,
8,14,14,999,0.5,0:10,3,Green,None,0,0,1,28:50,./completed_changuitos/montage_egbvd_61.95_71.19.jpg,right,0,0,0,0,,,,,0,4,4,4,,,,,,,,,0,0,0,0,0,2,2,2,,,,,,,,,,,,,,,,,,268.7803294109981,269.28017174400156,None,1,268.7803294109981,268.7803294109981,,,,,,,,,,,,,,,,,,,,,,,,,,,,,,,,,,,,,,,,,,,,,,,,,,,,,,,,,,,,,matiasp,001,b,2019_Nov_15_2032,Experimento,3.2.3,60.00390649449134,
8,14,14,999,0.5,0:10,3,Yellow,['space'],0,0,1,28:50,./completed_changuitos/montage_egbvd_61.95_71.19.jpg,right,0,0,0,0,,,,,0,4,4,4,,,,,,,,,0,0,0,0,0,3,3,3,,,,,,,,,,,,,,,,,,270.7793475569997,271.2794884629984,None,0,270.7793475569997,270.7793475569997,,,,,,,,,,,,,,,,,,,,,,,,,,,,,,,,,,,,,,,,,,,,,,,,,,,,,,,,,,,,,matiasp,001,b,2019_Nov_15_2032,Experimento,3.2.3,60.00390649449134,
8,14,14,999,0.5,0:10,3,Blue,None,0,0,1,28:50,./completed_changuitos/montage_egbvd_61.95_71.19.jpg,right,0,0,0,0,,,,,0,4,4,4,,,,,,,,,0,0,0,0,0,4,4,4,,,,,,,,,,,,,,,,,,272.77897383899835,273.27879538699926,None,1,272.77897383899835,272.77897383899835,,,,,,,,,,,,,,,,,,,,,,,,,,,,,,,,,,,,,,,,,,,,,,,,,,,,,,,,,,,,,matiasp,001,b,2019_Nov_15_2032,Experimento,3.2.3,60.00390649449134,
8,14,14,999,0.5,0:10,3,Cyan,None,0,0,1,28:50,./completed_changuitos/montage_egbvd_61.95_71.19.jpg,right,0,0,0,0,,,,,0,4,4,4,,,,,,,,,0,0,0,0,0,5,5,5,,,,,,,,,,,,,,,,,,274.77828781800054,275.2781203199993,None,1,274.77828781800054,274.77828781800054,,,,,,,,,,,,,,,,,,,,,,,,,,,,,,,,,,,,,,,,,,,,,,,,,,,,,,,,,,,,,matiasp,001,b,2019_Nov_15_2032,Experimento,3.2.3,60.00390649449134,
8,14,14,999,0.5,0:10,3,Blue,['space'],0,0,1,28:50,./completed_changuitos/montage_egbvd_61.95_71.19.jpg,right,0,0,0,0,,,,,0,4,4,4,,,,,,,,,0,0,0,0,0,6,6,6,,,,,,,,,,,,,,,,,,276.7776308449975,277.27753463500267,['return'],0,276.7776308449975,276.7776308449975,[0.8007423849994666],,,,,,,,,,,,,,,,,,,,,,,,,,,,,,,,,,,,,,,,,,,,,,,,,,,,,,,,,,,,matiasp,001,b,2019_Nov_15_2032,Experimento,3.2.3,60.00390649449134,
8,14,14,999,0.5,0:10,3,Yellow,None,0,0,1,28:50,./completed_changuitos/montage_egbvd_61.95_71.19.jpg,right,0,0,0,0,,,,,0,4,4,4,,,,,,,,,0,0,0,0,0,7,7,7,,,,,,,,,,,,,,,,,,278.7602606471017,None,None,1,278.7602606471017,None,,,,,,,,,,,,,,,,,,,,,,,,,,,,,,,,,,,,,,,,,,,,,,,,,,,,,,,,,,,,,matiasp,001,b,2019_Nov_15_2032,Experimento,3.2.3,60.00390649449134,
8,14,14,999,0.5,0:10,3,Cyan,None,0,0,1,28:50,./completed_changuitos/montage_egbvd_61.95_71.19.jpg,right,0,0,0,0,,,,,0,4,4,4,,,,,,,,,0,0,0,0,0,8,8,8,,,,,,,,,,,,,,,,,,278.7602606471017,None,None,1,278.7602606471017,None,,,,,,,,,,,,,,,,,,,,,,,,,,,,,,,,,,,,,,,,,,,,,,,,,,,,,,,,,,,,,matiasp,001,b,2019_Nov_15_2032,Experimento,3.2.3,60.00390649449134,
8,14,14,999,0.5,0:10,3,Yellow,['space'],0,0,1,28:50,./completed_changuitos/montage_egbvd_61.95_71.19.jpg,right,0,0,0,0,,,,,0,4,4,4,,,,,,,,,0,0,0,0,0,9,9,9,,,,,,,,,,,,,,,,,,278.7602606471017,None,None,0,278.7602606471017,None,,,,,,,,,,,,,,,,,,,,,,,,,,,,,,,,,,,,,,,,,,,,,,,,,,,,,,,,,,,,,matiasp,001,b,2019_Nov_15_2032,Experimento,3.2.3,60.00390649449134,
8,14,14,999,0.5,0:10,3,Magenta,None,0,0,1,28:50,./completed_changuitos/montage_egbvd_61.95_71.19.jpg,right,0,0,0,0,,,,,0,4,4,4,,,,,,,,,0,0,0,0,0,10,10,10,,,,,,,,,,,,,,,,,,278.7602606471017,None,None,1,278.7602606471017,None,,,,,,,,,,,,,,,,,,,,,,,,,,,,,,,,,,,,,,,,,,,,,,,,,,,,,,,,,,,,,matiasp,001,b,2019_Nov_15_2032,Experimento,3.2.3,60.00390649449134,
8,14,14,999,0.5,0:10,3,Red,None,0,0,1,28:50,./completed_changuitos/montage_egbvd_61.95_71.19.jpg,right,0,0,0,0,,,,,0,4,4,4,,,,,,,,,0,0,0,0,0,11,11,11,,,,,,,,,,,,,,,,,,278.7769236452019,None,None,1,278.7769236452019,None,,,,,,,,,,,,,,,,,,,,,,,,,,,,,,,,,,,,,,,,,,,,,,,,,,,,,,,,,,,,,matiasp,001,b,2019_Nov_15_2032,Experimento,3.2.3,60.00390649449134,
8,14,14,999,0.5,0:10,3,Magenta,['space'],0,0,1,28:50,./completed_changuitos/montage_egbvd_61.95_71.19.jpg,right,0,0,0,0,,,,,0,4,4,4,,,,,,,,,0,0,0,0,0,12,12,12,,,,,,,,,,,,,,,,,,278.7769236452019,None,None,0,278.7769236452019,None,,,,,,,,,,,,,,,,,,,,,,,,,,,,,,,,,,,,,,,,,,,,,,,,,,,,,,,,,,,,,matiasp,001,b,2019_Nov_15_2032,Experimento,3.2.3,60.00390649449134,
8,14,14,999,0.5,0:10,3,Red,['space'],0,0,1,28:50,./completed_changuitos/montage_egbvd_61.95_71.19.jpg,right,0,0,0,0,,,,,0,4,4,4,,,,,,,,,0,0,0,0,0,13,13,13,,,,,,,,,,,,,,,,,,278.7769236452019,None,None,0,278.7769236452019,None,,,,,,,,,,,,,,,,,,,,,,,,,,,,,,,,,,,,,,,,,,,,,,,,,,,,,,,,,,,,,matiasp,001,b,2019_Nov_15_2032,Experimento,3.2.3,60.00390649449134,
8,14,14,999,0.5,0:10,3,Yellow,None,0,0,1,28:50,./completed_changuitos/montage_egbvd_61.95_71.19.jpg,right,0,0,0,0,,,,,0,4,4,4,,,,,,,,,0,0,0,0,0,14,14,14,,,,,,,,,,,,,,,,,,278.7769236452019,None,None,1,278.7769236452019,None,,,,,,,,,,,,,,,,,,,,,,,,,,,,,,,,,,,,,,,,,,,,,,,,,,,,,,,,,,,,,matiasp,001,b,2019_Nov_15_2032,Experimento,3.2.3,60.00390649449134,
8,14,14,999,0.5,0:10,3,Cyan,None,0,0,1,28:50,./completed_changuitos/montage_egbvd_61.95_71.19.jpg,right,0,0,0,0,,,,,0,4,4,4,,,,,,,,,0,0,0,0,0,15,15,15,,,,,,,,,,,,,,,,,,278.7769236452019,None,None,1,278.7769236452019,None,,,,,,,,,,,,,,,,,,,,,,,,,,,,,,,,,,,,,,,,,,,,,,,,,,,,,,,,,,,,,matiasp,001,b,2019_Nov_15_2032,Experimento,3.2.3,60.00390649449134,
8,14,14,999,0.5,0:10,3,Green,None,0,0,1,28:50,./completed_changuitos/montage_egbvd_61.95_71.19.jpg,right,0,0,0,0,,,,,0,4,4,4,,,,,,,,,0,0,0,0,0,16,16,16,,,,,,,,,,,,,,,,,,278.79358664330215,None,None,1,278.79358664330215,None,,,,,,,,,,,,,,,,,,,,,,,,,,,,,,,,,,,,,,,,,,,,,,,,,,,,,,,,,,,,,matiasp,001,b,2019_Nov_15_2032,Experimento,3.2.3,60.00390649449134,
8,14,14,999,0.5,0:10,3,White,None,0,0,1,28:50,./completed_changuitos/montage_egbvd_61.95_71.19.jpg,right,0,0,0,0,,,,,0,4,4,4,,,,,,,,,0,0,0,0,0,17,17,17,,,,,,,,,,,,,,,,,,278.79358664330215,None,None,1,278.79358664330215,None,,,,,,,,,,,,,,,,,,,,,,,,,,,,,,,,,,,,,,,,,,,,,,,,,,,,,,,,,,,,,matiasp,001,b,2019_Nov_15_2032,Experimento,3.2.3,60.00390649449134,
8,14,14,999,0.5,0:10,3,Green,['space'],0,0,1,28:50,./completed_changuitos/montage_egbvd_61.95_71.19.jpg,right,0,0,0,0,,,,,0,4,4,4,,,,,,,,,0,0,0,0,0,18,18,18,,,,,,,,,,,,,,,,,,278.79358664330215,None,None,0,278.79358664330215,None,,,,,,,,,,,,,,,,,,,,,,,,,,,,,,,,,,,,,,,,,,,,,,,,,,,,,,,,,,,,,matiasp,001,b,2019_Nov_15_2032,Experimento,3.2.3,60.00390649449134,
8,14,14,999,0.5,0:10,3,Red,None,0,0,1,28:50,./completed_changuitos/montage_egbvd_61.95_71.19.jpg,right,0,0,0,0,,,,,0,4,4,4,,,,,,,,,0,0,0,0,0,19,19,19,,,,,,,,,,,,,,,,,,278.79358664330215,None,None,1,278.79358664330215,None,,,,,,,,,,,,,,,,,,,,,,,,,,,,,,,,,,,,,,,,,,,,,,,,,,,,,,,,,,,,,matiasp,001,b,2019_Nov_15_2032,Experimento,3.2.3,60.00390649449134,
8,14,14,999,0.5,0:10,3,Blue,None,0,0,1,28:50,./completed_changuitos/montage_egbvd_61.95_71.19.jpg,right,0,0,0,0,,,,,0,4,4,4,,,,,,,,,0,0,0,0,0,20,20,20,,,,,,,,,,,,,,,,,,278.79358664330215,None,None,1,278.79358664330215,None,,,,,,,,,,,,,,,,,,,,,,,,,,,,,,,,,,,,,,,,,,,,,,,,,,,,,,,,,,,,,matiasp,001,b,2019_Nov_15_2032,Experimento,3.2.3,60.00390649449134,
8,14,14,999,0.5,0:10,3,Green,None,0,0,1,28:50,./completed_changuitos/montage_egbvd_61.95_71.19.jpg,right,0,0,0,0,,,,,0,4,4,4,,,,,,,,,0,0,0,0,0,21,21,21,,,,,,,,,,,,,,,,,,278.79358664330215,None,None,1,278.79358664330215,None,,,,,,,,,,,,,,,,,,,,,,,,,,,,,,,,,,,,,,,,,,,,,,,,,,,,,,,,,,,,,matiasp,001,b,2019_Nov_15_2032,Experimento,3.2.3,60.00390649449134,
8,14,14,999,0.5,0:10,3,,,0,0,1,28:50,./completed_changuitos/montage_egbvd_61.95_71.19.jpg,right,0,0,0,0,,,,,0,4,4,4,,,,,,,,,0,0,0,0,,,,,,,,,,,,,,,,,,,,,,,,,,,,,278.8301616680037,None,right,1,2.1295836030039936,278.8301616680037,None,278.8301616680037,None,,,,,,,,,,,,,,,,,,,,,,,,,,,,,,,,,,,,,,,,,,,,,,,,,,,matiasp,001,b,2019_Nov_15_2032,Experimento,3.2.3,60.00390649449134,
8,14,14,999,0.5,0:10,3,,,0,0,1,28:50,,,0,0,0,0,,,,,0,4,4,4,,,,,,,,,,,,,,,,,,,,,,,,,,,,,,,,,,,,,,,,,,,,,,,,,,,,,,,,,,,,,,,,,,,,,,,,,,,,,,,,,,,,,,,,,,,,,,,,,,,,matiasp,001,b,2019_Nov_15_2032,Experimento,3.2.3,60.00390649449134,
8,14,14,999,0.5,0:10,3,,,0,1,0,10:50,./completed_changuitos/montage_llcfz_94.59_110.85.jpg,right,0,0,0,0,,,,,0,5,5,5,,,,,0,0,0,0,,,,,,,,,,,,,,,,,,,,,,,,,,,,,,,,,,,,,,,,,,281.1064661030032,282.7922190809986,282.7922190809986,290.806197705002,290.806197705002,304.8180651470029,left,0,1.1165027219976764,304.8180651470029,None,304.8180651470029,None,304.8180651470029,None,,,,,,,,,,,,,,,,,,,,,,,,,,,,,,,,,,,,matiasp,001,b,2019_Nov_15_2032,Experimento,3.2.3,60.00390649449134,
8,14,14,999,0.5,0:10,3,,,0,1,0,10:50,,,0,0,0,0,,,,,0,5,5,5,,,,,,,,,,,,,,,,,,,,,,,,,,,,,,,,,,,,,,,,,,,,,,,,,,,,,,,,,,,,,,,,,,,,,,,,,,,,,,,,,,,,,,,,,,,,,,,,,,,,matiasp,001,b,2019_Nov_15_2032,Experimento,3.2.3,60.00390649449134,
8,14,14,999,0.5,0:10,3,Yellow,None,0,0,1,15:50,./completed_changuitos/montage_gvywe_210.79_240.75.jpg,right,0,0,0,0,,,,,0,6,6,6,,,,,,,,,0,0,0,0,0,0,0,0,,,,,,,,,,,,,,306.0751699610046,307.23392944800435,307.23392944800435,None,315.27656992300035,315.78099392999866,None,1,315.27656992300035,None,,,,,,,,,,,,,,,,,,,,,,,,,,,,,,,,,,,,,,,,,,,,,,,,,,,,,,,,,,,,,matiasp,001,b,2019_Nov_15_2032,Experimento,3.2.3,60.00390649449134,
8,14,14,999,0.5,0:10,3,White,['space'],0,0,1,15:50,./completed_changuitos/montage_gvywe_210.79_240.75.jpg,right,0,0,0,0,,,,,0,6,6,6,,,,,,,,,0,0,0,0,0,1,1,1,,,,,,,,,,,,,,,,,,317.2804899039984,317.78031810800167,None,0,317.2804899039984,317.2804899039984,,,,,,,,,,,,,,,,,,,,,,,,,,,,,,,,,,,,,,,,,,,,,,,,,,,,,,,,,,,,,matiasp,001,b,2019_Nov_15_2032,Experimento,3.2.3,60.00390649449134,
8,14,14,999,0.5,0:10,3,Magenta,None,0,0,1,15:50,./completed_changuitos/montage_gvywe_210.79_240.75.jpg,right,0,0,0,0,,,,,0,6,6,6,,,,,,,,,0,0,0,0,0,2,2,2,,,,,,,,,,,,,,,,,,319.27980500500416,319.7796463429986,None,1,319.27980500500416,319.27980500500416,,,,,,,,,,,,,,,,,,,,,,,,,,,,,,,,,,,,,,,,,,,,,,,,,,,,,,,,,,,,,matiasp,001,b,2019_Nov_15_2032,Experimento,3.2.3,60.00390649449134,
8,14,14,999,0.5,0:10,3,Cyan,None,0,0,1,15:50,./completed_changuitos/montage_gvywe_210.79_240.75.jpg,right,0,0,0,0,,,,,0,6,6,6,,,,,,,,,0,0,0,0,0,3,3,3,,,,,,,,,,,,,,,,,,321.27916187300434,321.7789471159995,None,1,321.27916187300434,321.27916187300434,,,,,,,,,,,,,,,,,,,,,,,,,,,,,,,,,,,,,,,,,,,,,,,,,,,,,,,,,,,,,matiasp,001,b,2019_Nov_15_2032,Experimento,3.2.3,60.00390649449134,
8,14,14,999,0.5,0:10,3,Blue,None,0,0,1,15:50,./completed_changuitos/montage_gvywe_210.79_240.75.jpg,right,0,0,0,0,,,,,0,6,6,6,,,,,,,,,0,0,0,0,0,4,4,4,,,,,,,,,,,,,,,,,,323.2948395019994,323.79492172100436,None,1,323.2948395019994,323.2948395019994,,,,,,,,,,,,,,,,,,,,,,,,,,,,,,,,,,,,,,,,,,,,,,,,,,,,,,,,,,,,,matiasp,001,b,2019_Nov_15_2032,Experimento,3.2.3,60.00390649449134,
8,14,14,999,0.5,0:10,3,Magenta,None,0,0,1,15:50,./completed_changuitos/montage_gvywe_210.79_240.75.jpg,right,0,0,0,0,,,,,0,6,6,6,,,,,,,,,0,0,0,0,0,5,5,5,,,,,,,,,,,,,,,,,,325.29409863099863,325.79424687199935,None,1,325.29409863099863,325.29409863099863,,,,,,,,,,,,,,,,,,,,,,,,,,,,,,,,,,,,,,,,,,,,,,,,,,,,,,,,,,,,,matiasp,001,b,2019_Nov_15_2032,Experimento,3.2.3,60.00390649449134,
8,14,14,999,0.5,0:10,3,Blue,['space'],0,0,1,15:50,./completed_changuitos/montage_gvywe_210.79_240.75.jpg,right,0,0,0,0,,,,,0,6,6,6,,,,,,,,,0,0,0,0,0,6,6,6,,,,,,,,,,,,,,,,,,327.29345381299936,327.79359065899916,['return'],0,327.29345381299936,327.29345381299936,[0.7340421170010814],,,,,,,,,,,,,,,,,,,,,,,,,,,,,,,,,,,,,,,,,,,,,,,,,,,,,,,,,,,,matiasp,001,b,2019_Nov_15_2032,Experimento,3.2.3,60.00390649449134,
8,14,14,999,0.5,0:10,3,Cyan,None,0,0,1,15:50,./completed_changuitos/montage_gvywe_210.79_240.75.jpg,right,0,0,0,0,,,,,0,6,6,6,,,,,,,,,0,0,0,0,0,7,7,7,,,,,,,,,,,,,,,,,,329.2593918981045,None,None,1,329.2593918981045,None,,,,,,,,,,,,,,,,,,,,,,,,,,,,,,,,,,,,,,,,,,,,,,,,,,,,,,,,,,,,,matiasp,001,b,2019_Nov_15_2032,Experimento,3.2.3,60.00390649449134,
8,14,14,999,0.5,0:10,3,Yellow,None,0,0,1,15:50,./completed_changuitos/montage_gvywe_210.79_240.75.jpg,right,0,0,0,0,,,,,0,6,6,6,,,,,,,,,0,0,0,0,0,8,8,8,,,,,,,,,,,,,,,,,,329.2593918981045,None,None,1,329.2593918981045,None,,,,,,,,,,,,,,,,,,,,,,,,,,,,,,,,,,,,,,,,,,,,,,,,,,,,,,,,,,,,,matiasp,001,b,2019_Nov_15_2032,Experimento,3.2.3,60.00390649449134,
8,14,14,999,0.5,0:10,3,Cyan,None,0,0,1,15:50,./completed_changuitos/montage_gvywe_210.79_240.75.jpg,right,0,0,0,0,,,,,0,6,6,6,,,,,,,,,0,0,0,0,0,9,9,9,,,,,,,,,,,,,,,,,,329.2593918981045,None,None,1,329.2593918981045,None,,,,,,,,,,,,,,,,,,,,,,,,,,,,,,,,,,,,,,,,,,,,,,,,,,,,,,,,,,,,,matiasp,001,b,2019_Nov_15_2032,Experimento,3.2.3,60.00390649449134,
8,14,14,999,0.5,0:10,3,Blue,None,0,0,1,15:50,./completed_changuitos/montage_gvywe_210.79_240.75.jpg,right,0,0,0,0,,,,,0,6,6,6,,,,,,,,,0,0,0,0,0,10,10,10,,,,,,,,,,,,,,,,,,329.2593918981045,None,None,1,329.2593918981045,None,,,,,,,,,,,,,,,,,,,,,,,,,,,,,,,,,,,,,,,,,,,,,,,,,,,,,,,,,,,,,matiasp,001,b,2019_Nov_15_2032,Experimento,3.2.3,60.00390649449134,
8,14,14,999,0.5,0:10,3,Cyan,['space'],0,0,1,15:50,./completed_changuitos/montage_gvywe_210.79_240.75.jpg,right,0,0,0,0,,,,,0,6,6,6,,,,,,,,,0,0,0,0,0,11,11,11,,,,,,,,,,,,,,,,,,329.2593918981045,None,None,0,329.2593918981045,None,,,,,,,,,,,,,,,,,,,,,,,,,,,,,,,,,,,,,,,,,,,,,,,,,,,,,,,,,,,,,matiasp,001,b,2019_Nov_15_2032,Experimento,3.2.3,60.00390649449134,
8,14,14,999,0.5,0:10,3,Magenta,None,0,0,1,15:50,./completed_changuitos/montage_gvywe_210.79_240.75.jpg,right,0,0,0,0,,,,,0,6,6,6,,,,,,,,,0,0,0,0,0,12,12,12,,,,,,,,,,,,,,,,,,329.2593918981045,None,None,1,329.2593918981045,None,,,,,,,,,,,,,,,,,,,,,,,,,,,,,,,,,,,,,,,,,,,,,,,,,,,,,,,,,,,,,matiasp,001,b,2019_Nov_15_2032,Experimento,3.2.3,60.00390649449134,
8,14,14,999,0.5,0:10,3,Red,None,0,0,1,15:50,./completed_changuitos/montage_gvywe_210.79_240.75.jpg,right,0,0,0,0,,,,,0,6,6,6,,,,,,,,,0,0,0,0,0,13,13,13,,,,,,,,,,,,,,,,,,329.2593918981045,None,None,1,329.2593918981045,None,,,,,,,,,,,,,,,,,,,,,,,,,,,,,,,,,,,,,,,,,,,,,,,,,,,,,,,,,,,,,matiasp,001,b,2019_Nov_15_2032,Experimento,3.2.3,60.00390649449134,
8,14,14,999,0.5,0:10,3,Magenta,['space'],0,0,1,15:50,./completed_changuitos/montage_gvywe_210.79_240.75.jpg,right,0,0,0,0,,,,,0,6,6,6,,,,,,,,,0,0,0,0,0,14,14,14,,,,,,,,,,,,,,,,,,329.2593918981045,None,None,0,329.2593918981045,None,,,,,,,,,,,,,,,,,,,,,,,,,,,,,,,,,,,,,,,,,,,,,,,,,,,,,,,,,,,,,matiasp,001,b,2019_Nov_15_2032,Experimento,3.2.3,60.00390649449134,
8,14,14,999,0.5,0:10,3,Green,None,0,0,1,15:50,./completed_changuitos/montage_gvywe_210.79_240.75.jpg,right,0,0,0,0,,,,,0,6,6,6,,,,,,,,,0,0,0,0,0,15,15,15,,,,,,,,,,,,,,,,,,329.2593918981045,None,None,1,329.2593918981045,None,,,,,,,,,,,,,,,,,,,,,,,,,,,,,,,,,,,,,,,,,,,,,,,,,,,,,,,,,,,,,matiasp,001,b,2019_Nov_15_2032,Experimento,3.2.3,60.00390649449134,
8,14,14,999,0.5,0:10,3,Yellow,['space'],0,0,1,15:50,./completed_changuitos/montage_gvywe_210.79_240.75.jpg,right,0,0,0,0,,,,,0,6,6,6,,,,,,,,,0,0,0,0,0,16,16,16,,,,,,,,,,,,,,,,,,329.2593918981045,None,None,0,329.2593918981045,None,,,,,,,,,,,,,,,,,,,,,,,,,,,,,,,,,,,,,,,,,,,,,,,,,,,,,,,,,,,,,matiasp,001,b,2019_Nov_15_2032,Experimento,3.2.3,60.00390649449134,
8,14,14,999,0.5,0:10,3,Blue,None,0,0,1,15:50,./completed_changuitos/montage_gvywe_210.79_240.75.jpg,right,0,0,0,0,,,,,0,6,6,6,,,,,,,,,0,0,0,0,0,17,17,17,,,,,,,,,,,,,,,,,,329.2593918981045,None,None,1,329.2593918981045,None,,,,,,,,,,,,,,,,,,,,,,,,,,,,,,,,,,,,,,,,,,,,,,,,,,,,,,,,,,,,,matiasp,001,b,2019_Nov_15_2032,Experimento,3.2.3,60.00390649449134,
8,14,14,999,0.5,0:10,3,Cyan,None,0,0,1,15:50,./completed_changuitos/montage_gvywe_210.79_240.75.jpg,right,0,0,0,0,,,,,0,6,6,6,,,,,,,,,0,0,0,0,0,18,18,18,,,,,,,,,,,,,,,,,,329.2593918981045,None,None,1,329.2593918981045,None,,,,,,,,,,,,,,,,,,,,,,,,,,,,,,,,,,,,,,,,,,,,,,,,,,,,,,,,,,,,,matiasp,001,b,2019_Nov_15_2032,Experimento,3.2.3,60.00390649449134,
8,14,14,999,0.5,0:10,3,Blue,['space'],0,0,1,15:50,./completed_changuitos/montage_gvywe_210.79_240.75.jpg,right,0,0,0,0,,,,,0,6,6,6,,,,,,,,,0,0,0,0,0,19,19,19,,,,,,,,,,,,,,,,,,329.2593918981045,None,None,0,329.2593918981045,None,,,,,,,,,,,,,,,,,,,,,,,,,,,,,,,,,,,,,,,,,,,,,,,,,,,,,,,,,,,,,matiasp,001,b,2019_Nov_15_2032,Experimento,3.2.3,60.00390649449134,
8,14,14,999,0.5,0:10,3,Yellow,None,0,0,1,15:50,./completed_changuitos/montage_gvywe_210.79_240.75.jpg,right,0,0,0,0,,,,,0,6,6,6,,,,,,,,,0,0,0,0,0,20,20,20,,,,,,,,,,,,,,,,,,329.2593918981045,None,None,1,329.2593918981045,None,,,,,,,,,,,,,,,,,,,,,,,,,,,,,,,,,,,,,,,,,,,,,,,,,,,,,,,,,,,,,matiasp,001,b,2019_Nov_15_2032,Experimento,3.2.3,60.00390649449134,
8,14,14,999,0.5,0:10,3,Cyan,None,0,0,1,15:50,./completed_changuitos/montage_gvywe_210.79_240.75.jpg,right,0,0,0,0,,,,,0,6,6,6,,,,,,,,,0,0,0,0,0,21,21,21,,,,,,,,,,,,,,,,,,329.27605489620476,None,None,1,329.27605489620476,None,,,,,,,,,,,,,,,,,,,,,,,,,,,,,,,,,,,,,,,,,,,,,,,,,,,,,,,,,,,,,matiasp,001,b,2019_Nov_15_2032,Experimento,3.2.3,60.00390649449134,
8,14,14,999,0.5,0:10,3,Yellow,['space'],0,0,1,15:50,./completed_changuitos/montage_gvywe_210.79_240.75.jpg,right,0,0,0,0,,,,,0,6,6,6,,,,,,,,,0,0,0,0,0,22,22,22,,,,,,,,,,,,,,,,,,329.27605489620476,None,None,0,329.27605489620476,None,,,,,,,,,,,,,,,,,,,,,,,,,,,,,,,,,,,,,,,,,,,,,,,,,,,,,,,,,,,,,matiasp,001,b,2019_Nov_15_2032,Experimento,3.2.3,60.00390649449134,
8,14,14,999,0.5,0:10,3,Magenta,None,0,0,1,15:50,./completed_changuitos/montage_gvywe_210.79_240.75.jpg,right,0,0,0,0,,,,,0,6,6,6,,,,,,,,,0,0,0,0,0,23,23,23,,,,,,,,,,,,,,,,,,329.27605489620476,None,None,1,329.27605489620476,None,,,,,,,,,,,,,,,,,,,,,,,,,,,,,,,,,,,,,,,,,,,,,,,,,,,,,,,,,,,,,matiasp,001,b,2019_Nov_15_2032,Experimento,3.2.3,60.00390649449134,
8,14,14,999,0.5,0:10,3,Red,None,0,0,1,15:50,./completed_changuitos/montage_gvywe_210.79_240.75.jpg,right,0,0,0,0,,,,,0,6,6,6,,,,,,,,,0,0,0,0,0,24,24,24,,,,,,,,,,,,,,,,,,329.27605489620476,None,None,1,329.27605489620476,None,,,,,,,,,,,,,,,,,,,,,,,,,,,,,,,,,,,,,,,,,,,,,,,,,,,,,,,,,,,,,matiasp,001,b,2019_Nov_15_2032,Experimento,3.2.3,60.00390649449134,
8,14,14,999,0.5,0:10,3,Magenta,['space'],0,0,1,15:50,./completed_changuitos/montage_gvywe_210.79_240.75.jpg,right,0,0,0,0,,,,,0,6,6,6,,,,,,,,,0,0,0,0,0,25,25,25,,,,,,,,,,,,,,,,,,329.27605489620476,None,None,0,329.27605489620476,None,,,,,,,,,,,,,,,,,,,,,,,,,,,,,,,,,,,,,,,,,,,,,,,,,,,,,,,,,,,,,matiasp,001,b,2019_Nov_15_2032,Experimento,3.2.3,60.00390649449134,
8,14,14,999,0.5,0:10,3,Red,['space'],0,0,1,15:50,./completed_changuitos/montage_gvywe_210.79_240.75.jpg,right,0,0,0,0,,,,,0,6,6,6,,,,,,,,,0,0,0,0,0,26,26,26,,,,,,,,,,,,,,,,,,329.27605489620476,None,None,0,329.27605489620476,None,,,,,,,,,,,,,,,,,,,,,,,,,,,,,,,,,,,,,,,,,,,,,,,,,,,,,,,,,,,,,matiasp,001,b,2019_Nov_15_2032,Experimento,3.2.3,60.00390649449134,
8,14,14,999,0.5,0:10,3,Yellow,None,0,0,1,15:50,./completed_changuitos/montage_gvywe_210.79_240.75.jpg,right,0,0,0,0,,,,,0,6,6,6,,,,,,,,,0,0,0,0,0,27,27,27,,,,,,,,,,,,,,,,,,329.27605489620476,None,None,1,329.27605489620476,None,,,,,,,,,,,,,,,,,,,,,,,,,,,,,,,,,,,,,,,,,,,,,,,,,,,,,,,,,,,,,matiasp,001,b,2019_Nov_15_2032,Experimento,3.2.3,60.00390649449134,
8,14,14,999,0.5,0:10,3,Cyan,None,0,0,1,15:50,./completed_changuitos/montage_gvywe_210.79_240.75.jpg,right,0,0,0,0,,,,,0,6,6,6,,,,,,,,,0,0,0,0,0,28,28,28,,,,,,,,,,,,,,,,,,329.27605489620476,None,None,1,329.27605489620476,None,,,,,,,,,,,,,,,,,,,,,,,,,,,,,,,,,,,,,,,,,,,,,,,,,,,,,,,,,,,,,matiasp,001,b,2019_Nov_15_2032,Experimento,3.2.3,60.00390649449134,
8,14,14,999,0.5,0:10,3,Green,None,0,0,1,15:50,./completed_changuitos/montage_gvywe_210.79_240.75.jpg,right,0,0,0,0,,,,,0,6,6,6,,,,,,,,,0,0,0,0,0,29,29,29,,,,,,,,,,,,,,,,,,329.27605489620476,None,None,1,329.27605489620476,None,,,,,,,,,,,,,,,,,,,,,,,,,,,,,,,,,,,,,,,,,,,,,,,,,,,,,,,,,,,,,matiasp,001,b,2019_Nov_15_2032,Experimento,3.2.3,60.00390649449134,
8,14,14,999,0.5,0:10,3,White,None,0,0,1,15:50,./completed_changuitos/montage_gvywe_210.79_240.75.jpg,right,0,0,0,0,,,,,0,6,6,6,,,,,,,,,0,0,0,0,0,30,30,30,,,,,,,,,,,,,,,,,,329.27605489620476,None,None,1,329.27605489620476,None,,,,,,,,,,,,,,,,,,,,,,,,,,,,,,,,,,,,,,,,,,,,,,,,,,,,,,,,,,,,,matiasp,001,b,2019_Nov_15_2032,Experimento,3.2.3,60.00390649449134,
8,14,14,999,0.5,0:10,3,Green,['space'],0,0,1,15:50,./completed_changuitos/montage_gvywe_210.79_240.75.jpg,right,0,0,0,0,,,,,0,6,6,6,,,,,,,,,0,0,0,0,0,31,31,31,,,,,,,,,,,,,,,,,,329.27605489620476,None,None,0,329.27605489620476,None,,,,,,,,,,,,,,,,,,,,,,,,,,,,,,,,,,,,,,,,,,,,,,,,,,,,,,,,,,,,,matiasp,001,b,2019_Nov_15_2032,Experimento,3.2.3,60.00390649449134,
8,14,14,999,0.5,0:10,3,Red,None,0,0,1,15:50,./completed_changuitos/montage_gvywe_210.79_240.75.jpg,right,0,0,0,0,,,,,0,6,6,6,,,,,,,,,0,0,0,0,0,32,32,32,,,,,,,,,,,,,,,,,,329.27605489620476,None,None,1,329.27605489620476,None,,,,,,,,,,,,,,,,,,,,,,,,,,,,,,,,,,,,,,,,,,,,,,,,,,,,,,,,,,,,,matiasp,001,b,2019_Nov_15_2032,Experimento,3.2.3,60.00390649449134,
8,14,14,999,0.5,0:10,3,Blue,None,0,0,1,15:50,./completed_changuitos/montage_gvywe_210.79_240.75.jpg,right,0,0,0,0,,,,,0,6,6,6,,,,,,,,,0,0,0,0,0,33,33,33,,,,,,,,,,,,,,,,,,329.27605489620476,None,None,1,329.27605489620476,None,,,,,,,,,,,,,,,,,,,,,,,,,,,,,,,,,,,,,,,,,,,,,,,,,,,,,,,,,,,,,matiasp,001,b,2019_Nov_15_2032,Experimento,3.2.3,60.00390649449134,
8,14,14,999,0.5,0:10,3,Green,None,0,0,1,15:50,./completed_changuitos/montage_gvywe_210.79_240.75.jpg,right,0,0,0,0,,,,,0,6,6,6,,,,,,,,,0,0,0,0,0,34,34,34,,,,,,,,,,,,,,,,,,329.27605489620476,None,None,1,329.27605489620476,None,,,,,,,,,,,,,,,,,,,,,,,,,,,,,,,,,,,,,,,,,,,,,,,,,,,,,,,,,,,,,matiasp,001,b,2019_Nov_15_2032,Experimento,3.2.3,60.00390649449134,
8,14,14,999,0.5,0:10,3,,,0,0,1,15:50,./completed_changuitos/montage_gvywe_210.79_240.75.jpg,right,0,0,0,0,,,,,0,6,6,6,,,,,,,,,0,0,0,0,,,,,,,,,,,,,,,,,,,,,,,,,,,,,329.31630840599973,None,left,0,1.8086920810019365,329.31630840599973,None,329.31630840599973,None,,,,,,,,,,,,,,,,,,,,,,,,,,,,,,,,,,,,,,,,,,,,,,,,,,,matiasp,001,b,2019_Nov_15_2032,Experimento,3.2.3,60.00390649449134,
8,14,14,999,0.5,0:10,3,,,0,0,1,15:50,,,0,0,0,0,,,,,0,6,6,6,,,,,,,,,,,,,,,,,,,,,,,,,,,,,,,,,,,,,,,,,,,,,,,,,,,,,,,,,,,,,,,,,,,,,,,,,,,,,,,,,,,,,,,,,,,,,,,,,,,,matiasp,001,b,2019_Nov_15_2032,Experimento,3.2.3,60.00390649449134,
8,14,14,999,0.5,0:10,3,,,0,1,0,19:50,./completed_changuitos/montage_pjowk_40.65_46.0.jpg,right,0,0,0,0,,,,,0,7,7,7,,,,,0,0,0,0,,,,,,,,,,,,,,,,,,,,,,,,,,,,,,,,,,,,,,,,,,331.2484787939975,332.4253341349977,332.4253341349977,340.43926306399953,340.43926306399953,354.4511630499983,left,0,1.333343223996053,354.4511630499983,None,354.4511630499983,None,354.4511630499983,None,,,,,,,,,,,,,,,,,,,,,,,,,,,,,,,,,,,,matiasp,001,b,2019_Nov_15_2032,Experimento,3.2.3,60.00390649449134,
8,14,14,999,0.5,0:10,3,,,0,1,0,19:50,,,0,0,0,0,,,,,0,7,7,7,,,,,,,,,,,,,,,,,,,,,,,,,,,,,,,,,,,,,,,,,,,,,,,,,,,,,,,,,,,,,,,,,,,,,,,,,,,,,,,,,,,,,,,,,,,,,,,,,,,,matiasp,001,b,2019_Nov_15_2032,Experimento,3.2.3,60.00390649449134,
8,14,14,999,0.5,0:10,3,Magenta,None,0,0,1,20:50,./completed_changuitos/montage_nxyuf_412.39_354.19.jpg,left,0,0,0,0,,,,,0,8,8,8,,,,,,,,,0,0,0,0,0,0,0,0,,,,,,,,,,,,,,355.92044148399873,357.03363871900365,357.03363871900365,None,365.07503429200005,365.58071952900355,None,1,365.07503429200005,None,,,,,,,,,,,,,,,,,,,,,,,,,,,,,,,,,,,,,,,,,,,,,,,,,,,,,,,,,,,,,matiasp,001,b,2019_Nov_15_2032,Experimento,3.2.3,60.00390649449134,
8,14,14,999,0.5,0:10,3,Blue,['space'],0,0,1,20:50,./completed_changuitos/montage_nxyuf_412.39_354.19.jpg,left,0,0,0,0,,,,,0,8,8,8,,,,,,,,,0,0,0,0,0,1,1,1,,,,,,,,,,,,,,,,,,367.0799203330025,367.58002653300355,None,0,367.0799203330025,367.0799203330025,,,,,,,,,,,,,,,,,,,,,,,,,,,,,,,,,,,,,,,,,,,,,,,,,,,,,,,,,,,,,matiasp,001,b,2019_Nov_15_2032,Experimento,3.2.3,60.00390649449134,
8,14,14,999,0.5,0:10,3,Cyan,None,0,0,1,20:50,./completed_changuitos/montage_nxyuf_412.39_354.19.jpg,left,0,0,0,0,,,,,0,8,8,8,,,,,,,,,0,0,0,0,0,2,2,2,,,,,,,,,,,,,,,,,,369.07919560900336,369.5793534100012,None,1,369.07919560900336,369.07919560900336,,,,,,,,,,,,,,,,,,,,,,,,,,,,,,,,,,,,,,,,,,,,,,,,,,,,,,,,,,,,,matiasp,001,b,2019_Nov_15_2032,Experimento,3.2.3,60.00390649449134,
8,14,14,999,0.5,0:10,3,Yellow,None,0,0,1,20:50,./completed_changuitos/montage_nxyuf_412.39_354.19.jpg,left,0,0,0,0,,,,,0,8,8,8,,,,,,,,,0,0,0,0,0,3,3,3,,,,,,,,,,,,,,,,,,371.0788360840015,371.57865994600434,None,1,371.0788360840015,371.0788360840015,,,,,,,,,,,,,,,,,,,,,,,,,,,,,,,,,,,,,,,,,,,,,,,,,,,,,,,,,,,,,matiasp,001,b,2019_Nov_15_2032,Experimento,3.2.3,60.00390649449134,
8,14,14,999,0.5,0:10,3,Cyan,None,0,0,1,20:50,./completed_changuitos/montage_nxyuf_412.39_354.19.jpg,left,0,0,0,0,,,,,0,8,8,8,,,,,,,,,0,0,0,0,0,4,4,4,,,,,,,,,,,,,,,,,,373.07814567800233,373.57798330300284,None,1,373.07814567800233,373.07814567800233,,,,,,,,,,,,,,,,,,,,,,,,,,,,,,,,,,,,,,,,,,,,,,,,,,,,,,,,,,,,,matiasp,001,b,2019_Nov_15_2032,Experimento,3.2.3,60.00390649449134,
8,14,14,999,0.5,0:10,3,Blue,None,0,0,1,20:50,./completed_changuitos/montage_nxyuf_412.39_354.19.jpg,left,0,0,0,0,,,,,0,8,8,8,,,,,,,,,0,0,0,0,0,5,5,5,,,,,,,,,,,,,,,,,,375.0771370900038,375.57730427400384,None,1,375.0771370900038,375.0771370900038,,,,,,,,,,,,,,,,,,,,,,,,,,,,,,,,,,,,,,,,,,,,,,,,,,,,,,,,,,,,,matiasp,001,b,2019_Nov_15_2032,Experimento,3.2.3,60.00390649449134,
8,14,14,999,0.5,0:10,3,Cyan,['space'],0,0,1,20:50,./completed_changuitos/montage_nxyuf_412.39_354.19.jpg,left,0,0,0,0,,,,,0,8,8,8,,,,,,,,,0,0,0,0,0,6,6,6,,,,,,,,,,,,,,,,,,377.07678750400373,377.57662196000456,['return'],0,377.07678750400373,377.07678750400373,[0.7670609459964908],,,,,,,,,,,,,,,,,,,,,,,,,,,,,,,,,,,,,,,,,,,,,,,,,,,,,,,,,,,,matiasp,001,b,2019_Nov_15_2032,Experimento,3.2.3,60.00390649449134,
8,14,14,999,0.5,0:10,3,Magenta,None,0,0,1,20:50,./completed_changuitos/montage_nxyuf_412.39_354.19.jpg,left,0,0,0,0,,,,,0,8,8,8,,,,,,,,,0,0,0,0,0,7,7,7,,,,,,,,,,,,,,,,,,379.05943902310247,None,None,1,379.05943902310247,None,,,,,,,,,,,,,,,,,,,,,,,,,,,,,,,,,,,,,,,,,,,,,,,,,,,,,,,,,,,,,matiasp,001,b,2019_Nov_15_2032,Experimento,3.2.3,60.00390649449134,
8,14,14,999,0.5,0:10,3,Red,None,0,0,1,20:50,./completed_changuitos/montage_nxyuf_412.39_354.19.jpg,left,0,0,0,0,,,,,0,8,8,8,,,,,,,,,0,0,0,0,0,8,8,8,,,,,,,,,,,,,,,,,,379.05943902310247,None,None,1,379.05943902310247,None,,,,,,,,,,,,,,,,,,,,,,,,,,,,,,,,,,,,,,,,,,,,,,,,,,,,,,,,,,,,,matiasp,001,b,2019_Nov_15_2032,Experimento,3.2.3,60.00390649449134,
8,14,14,999,0.5,0:10,3,Magenta,['space'],0,0,1,20:50,./completed_changuitos/montage_nxyuf_412.39_354.19.jpg,left,0,0,0,0,,,,,0,8,8,8,,,,,,,,,0,0,0,0,0,9,9,9,,,,,,,,,,,,,,,,,,379.05943902310247,None,None,0,379.05943902310247,None,,,,,,,,,,,,,,,,,,,,,,,,,,,,,,,,,,,,,,,,,,,,,,,,,,,,,,,,,,,,,matiasp,001,b,2019_Nov_15_2032,Experimento,3.2.3,60.00390649449134,
8,14,14,999,0.5,0:10,3,Green,None,0,0,1,20:50,./completed_changuitos/montage_nxyuf_412.39_354.19.jpg,left,0,0,0,0,,,,,0,8,8,8,,,,,,,,,0,0,0,0,0,10,10,10,,,,,,,,,,,,,,,,,,379.05943902310247,None,None,1,379.05943902310247,None,,,,,,,,,,,,,,,,,,,,,,,,,,,,,,,,,,,,,,,,,,,,,,,,,,,,,,,,,,,,,matiasp,001,b,2019_Nov_15_2032,Experimento,3.2.3,60.00390649449134,
8,14,14,999,0.5,0:10,3,Yellow,['space'],0,0,1,20:50,./completed_changuitos/montage_nxyuf_412.39_354.19.jpg,left,0,0,0,0,,,,,0,8,8,8,,,,,,,,,0,0,0,0,0,11,11,11,,,,,,,,,,,,,,,,,,379.0761020212027,None,None,0,379.0761020212027,None,,,,,,,,,,,,,,,,,,,,,,,,,,,,,,,,,,,,,,,,,,,,,,,,,,,,,,,,,,,,,matiasp,001,b,2019_Nov_15_2032,Experimento,3.2.3,60.00390649449134,
8,14,14,999,0.5,0:10,3,Blue,None,0,0,1,20:50,./completed_changuitos/montage_nxyuf_412.39_354.19.jpg,left,0,0,0,0,,,,,0,8,8,8,,,,,,,,,0,0,0,0,0,12,12,12,,,,,,,,,,,,,,,,,,379.0761020212027,None,None,1,379.0761020212027,None,,,,,,,,,,,,,,,,,,,,,,,,,,,,,,,,,,,,,,,,,,,,,,,,,,,,,,,,,,,,,matiasp,001,b,2019_Nov_15_2032,Experimento,3.2.3,60.00390649449134,
8,14,14,999,0.5,0:10,3,Cyan,None,0,0,1,20:50,./completed_changuitos/montage_nxyuf_412.39_354.19.jpg,left,0,0,0,0,,,,,0,8,8,8,,,,,,,,,0,0,0,0,0,13,13,13,,,,,,,,,,,,,,,,,,379.0761020212027,None,None,1,379.0761020212027,None,,,,,,,,,,,,,,,,,,,,,,,,,,,,,,,,,,,,,,,,,,,,,,,,,,,,,,,,,,,,,matiasp,001,b,2019_Nov_15_2032,Experimento,3.2.3,60.00390649449134,
8,14,14,999,0.5,0:10,3,Blue,['space'],0,0,1,20:50,./completed_changuitos/montage_nxyuf_412.39_354.19.jpg,left,0,0,0,0,,,,,0,8,8,8,,,,,,,,,0,0,0,0,0,14,14,14,,,,,,,,,,,,,,,,,,379.0761020212027,None,None,0,379.0761020212027,None,,,,,,,,,,,,,,,,,,,,,,,,,,,,,,,,,,,,,,,,,,,,,,,,,,,,,,,,,,,,,matiasp,001,b,2019_Nov_15_2032,Experimento,3.2.3,60.00390649449134,
8,14,14,999,0.5,0:10,3,Yellow,None,0,0,1,20:50,./completed_changuitos/montage_nxyuf_412.39_354.19.jpg,left,0,0,0,0,,,,,0,8,8,8,,,,,,,,,0,0,0,0,0,15,15,15,,,,,,,,,,,,,,,,,,379.0761020212027,None,None,1,379.0761020212027,None,,,,,,,,,,,,,,,,,,,,,,,,,,,,,,,,,,,,,,,,,,,,,,,,,,,,,,,,,,,,,matiasp,001,b,2019_Nov_15_2032,Experimento,3.2.3,60.00390649449134,
8,14,14,999,0.5,0:10,3,Cyan,None,0,0,1,20:50,./completed_changuitos/montage_nxyuf_412.39_354.19.jpg,left,0,0,0,0,,,,,0,8,8,8,,,,,,,,,0,0,0,0,0,16,16,16,,,,,,,,,,,,,,,,,,379.09276501930293,None,None,1,379.09276501930293,None,,,,,,,,,,,,,,,,,,,,,,,,,,,,,,,,,,,,,,,,,,,,,,,,,,,,,,,,,,,,,matiasp,001,b,2019_Nov_15_2032,Experimento,3.2.3,60.00390649449134,
8,14,14,999,0.5,0:10,3,Yellow,['space'],0,0,1,20:50,./completed_changuitos/montage_nxyuf_412.39_354.19.jpg,left,0,0,0,0,,,,,0,8,8,8,,,,,,,,,0,0,0,0,0,17,17,17,,,,,,,,,,,,,,,,,,379.09276501930293,None,None,0,379.09276501930293,None,,,,,,,,,,,,,,,,,,,,,,,,,,,,,,,,,,,,,,,,,,,,,,,,,,,,,,,,,,,,,matiasp,001,b,2019_Nov_15_2032,Experimento,3.2.3,60.00390649449134,
8,14,14,999,0.5,0:10,3,Magenta,None,0,0,1,20:50,./completed_changuitos/montage_nxyuf_412.39_354.19.jpg,left,0,0,0,0,,,,,0,8,8,8,,,,,,,,,0,0,0,0,0,18,18,18,,,,,,,,,,,,,,,,,,379.09276501930293,None,None,1,379.09276501930293,None,,,,,,,,,,,,,,,,,,,,,,,,,,,,,,,,,,,,,,,,,,,,,,,,,,,,,,,,,,,,,matiasp,001,b,2019_Nov_15_2032,Experimento,3.2.3,60.00390649449134,
8,14,14,999,0.5,0:10,3,Red,None,0,0,1,20:50,./completed_changuitos/montage_nxyuf_412.39_354.19.jpg,left,0,0,0,0,,,,,0,8,8,8,,,,,,,,,0,0,0,0,0,19,19,19,,,,,,,,,,,,,,,,,,379.09276501930293,None,None,1,379.09276501930293,None,,,,,,,,,,,,,,,,,,,,,,,,,,,,,,,,,,,,,,,,,,,,,,,,,,,,,,,,,,,,,matiasp,001,b,2019_Nov_15_2032,Experimento,3.2.3,60.00390649449134,
8,14,14,999,0.5,0:10,3,Magenta,['space'],0,0,1,20:50,./completed_changuitos/montage_nxyuf_412.39_354.19.jpg,left,0,0,0,0,,,,,0,8,8,8,,,,,,,,,0,0,0,0,0,20,20,20,,,,,,,,,,,,,,,,,,379.09276501930293,None,None,0,379.09276501930293,None,,,,,,,,,,,,,,,,,,,,,,,,,,,,,,,,,,,,,,,,,,,,,,,,,,,,,,,,,,,,,matiasp,001,b,2019_Nov_15_2032,Experimento,3.2.3,60.00390649449134,
8,14,14,999,0.5,0:10,3,Red,['space'],0,0,1,20:50,./completed_changuitos/montage_nxyuf_412.39_354.19.jpg,left,0,0,0,0,,,,,0,8,8,8,,,,,,,,,0,0,0,0,0,21,21,21,,,,,,,,,,,,,,,,,,379.09276501930293,None,None,0,379.09276501930293,None,,,,,,,,,,,,,,,,,,,,,,,,,,,,,,,,,,,,,,,,,,,,,,,,,,,,,,,,,,,,,matiasp,001,b,2019_Nov_15_2032,Experimento,3.2.3,60.00390649449134,
8,14,14,999,0.5,0:10,3,Yellow,None,0,0,1,20:50,./completed_changuitos/montage_nxyuf_412.39_354.19.jpg,left,0,0,0,0,,,,,0,8,8,8,,,,,,,,,0,0,0,0,0,22,22,22,,,,,,,,,,,,,,,,,,379.09276501930293,None,None,1,379.09276501930293,None,,,,,,,,,,,,,,,,,,,,,,,,,,,,,,,,,,,,,,,,,,,,,,,,,,,,,,,,,,,,,matiasp,001,b,2019_Nov_15_2032,Experimento,3.2.3,60.00390649449134,
8,14,14,999,0.5,0:10,3,Cyan,None,0,0,1,20:50,./completed_changuitos/montage_nxyuf_412.39_354.19.jpg,left,0,0,0,0,,,,,0,8,8,8,,,,,,,,,0,0,0,0,0,23,23,23,,,,,,,,,,,,,,,,,,379.09276501930293,None,None,1,379.09276501930293,None,,,,,,,,,,,,,,,,,,,,,,,,,,,,,,,,,,,,,,,,,,,,,,,,,,,,,,,,,,,,,matiasp,001,b,2019_Nov_15_2032,Experimento,3.2.3,60.00390649449134,
8,14,14,999,0.5,0:10,3,Green,None,0,0,1,20:50,./completed_changuitos/montage_nxyuf_412.39_354.19.jpg,left,0,0,0,0,,,,,0,8,8,8,,,,,,,,,0,0,0,0,0,24,24,24,,,,,,,,,,,,,,,,,,379.09276501930293,None,None,1,379.09276501930293,None,,,,,,,,,,,,,,,,,,,,,,,,,,,,,,,,,,,,,,,,,,,,,,,,,,,,,,,,,,,,,matiasp,001,b,2019_Nov_15_2032,Experimento,3.2.3,60.00390649449134,
8,14,14,999,0.5,0:10,3,White,None,0,0,1,20:50,./completed_changuitos/montage_nxyuf_412.39_354.19.jpg,left,0,0,0,0,,,,,0,8,8,8,,,,,,,,,0,0,0,0,0,25,25,25,,,,,,,,,,,,,,,,,,379.09276501930293,None,None,1,379.09276501930293,None,,,,,,,,,,,,,,,,,,,,,,,,,,,,,,,,,,,,,,,,,,,,,,,,,,,,,,,,,,,,,matiasp,001,b,2019_Nov_15_2032,Experimento,3.2.3,60.00390649449134,
8,14,14,999,0.5,0:10,3,Green,['space'],0,0,1,20:50,./completed_changuitos/montage_nxyuf_412.39_354.19.jpg,left,0,0,0,0,,,,,0,8,8,8,,,,,,,,,0,0,0,0,0,26,26,26,,,,,,,,,,,,,,,,,,379.09276501930293,None,None,0,379.09276501930293,None,,,,,,,,,,,,,,,,,,,,,,,,,,,,,,,,,,,,,,,,,,,,,,,,,,,,,,,,,,,,,matiasp,001,b,2019_Nov_15_2032,Experimento,3.2.3,60.00390649449134,
8,14,14,999,0.5,0:10,3,Red,None,0,0,1,20:50,./completed_changuitos/montage_nxyuf_412.39_354.19.jpg,left,0,0,0,0,,,,,0,8,8,8,,,,,,,,,0,0,0,0,0,27,27,27,,,,,,,,,,,,,,,,,,379.1094280174031,None,None,1,379.1094280174031,None,,,,,,,,,,,,,,,,,,,,,,,,,,,,,,,,,,,,,,,,,,,,,,,,,,,,,,,,,,,,,matiasp,001,b,2019_Nov_15_2032,Experimento,3.2.3,60.00390649449134,
8,14,14,999,0.5,0:10,3,Blue,None,0,0,1,20:50,./completed_changuitos/montage_nxyuf_412.39_354.19.jpg,left,0,0,0,0,,,,,0,8,8,8,,,,,,,,,0,0,0,0,0,28,28,28,,,,,,,,,,,,,,,,,,379.1094280174031,None,None,1,379.1094280174031,None,,,,,,,,,,,,,,,,,,,,,,,,,,,,,,,,,,,,,,,,,,,,,,,,,,,,,,,,,,,,,matiasp,001,b,2019_Nov_15_2032,Experimento,3.2.3,60.00390649449134,
8,14,14,999,0.5,0:10,3,Green,None,0,0,1,20:50,./completed_changuitos/montage_nxyuf_412.39_354.19.jpg,left,0,0,0,0,,,,,0,8,8,8,,,,,,,,,0,0,0,0,0,29,29,29,,,,,,,,,,,,,,,,,,379.1094280174031,None,None,1,379.1094280174031,None,,,,,,,,,,,,,,,,,,,,,,,,,,,,,,,,,,,,,,,,,,,,,,,,,,,,,,,,,,,,,matiasp,001,b,2019_Nov_15_2032,Experimento,3.2.3,60.00390649449134,
8,14,14,999,0.5,0:10,3,,,0,0,1,20:50,./completed_changuitos/montage_nxyuf_412.39_354.19.jpg,left,0,0,0,0,,,,,0,8,8,8,,,,,,,,,0,0,0,0,,,,,,,,,,,,,,,,,,,,,,,,,,,,,379.1370209500019,None,left,1,3.7212142040007166,379.1370209500019,None,379.1370209500019,382.1417858700006,,,,,,,,,,,,,,,,,,,,,,,,,,,,,,,,,,,,,,,,,,,,,,,,,,,matiasp,001,b,2019_Nov_15_2032,Experimento,3.2.3,60.00390649449134,
8,14,14,999,0.5,0:10,3,,,0,0,1,20:50,,,0,0,0,0,,,,,0,8,8,8,,,,,,,,,,,,,,,,,,,,,,,,,,,,,,,,,,,,,,,,,,,,,,,,,,,,,,,,,,,,,,,,,,,,,,,,,,,,,,,,,,,,,,,,,,,,,,,,,,,,matiasp,001,b,2019_Nov_15_2032,Experimento,3.2.3,60.00390649449134,
8,14,14,999,0.5,0:10,3,,,0,1,0,25:50,./completed_changuitos/montage_ztvxj_76.0_66.05.jpg,left,0,0,0,0,,,,,0,9,9,9,,,,,0,0,0,0,,,,,,,,,,,,,,,,,,,,,,,,,,,,,,,,,,,,,,,,,,382.99840435200167,384.4739148610024,384.4739148610024,392.48823383099807,392.48823383099807,406.5000608379996,left,1,1.1834749069967074,406.5000608379996,None,406.5000608379996,None,406.5000608379996,None,,,,,,,,,,,,,,,,,,,,,,,,,,,,,,,,,,,,matiasp,001,b,2019_Nov_15_2032,Experimento,3.2.3,60.00390649449134,
8,14,14,999,0.5,0:10,3,,,0,1,0,25:50,,,0,0,0,0,,,,,0,9,9,9,,,,,,,,,,,,,,,,,,,,,,,,,,,,,,,,,,,,,,,,,,,,,,,,,,,,,,,,,,,,,,,,,,,,,,,,,,,,,,,,,,,,,,,,,,,,,,,,,,,,matiasp,001,b,2019_Nov_15_2032,Experimento,3.2.3,60.00390649449134,
8,14,14,999,0.5,0:10,3,Red,None,0,0,1,28:50,./completed_changuitos/montage_tdtpf_179.19_150.89.jpg,left,0,0,0,0,,,,,0,10,10,10,,,,,,,,,0,0,0,0,0,0,0,0,,,,,,,,,,,,,,407.8202999360001,408.71606506500393,408.71606506500393,None,416.7597084779991,417.26307237400033,None,1,416.7597084779991,None,,,,,,,,,,,,,,,,,,,,,,,,,,,,,,,,,,,,,,,,,,,,,,,,,,,,,,,,,,,,,matiasp,001,b,2019_Nov_15_2032,Experimento,3.2.3,60.00390649449134,
8,14,14,999,0.5,0:10,3,Magenta,['space'],0,0,1,28:50,./completed_changuitos/montage_tdtpf_179.19_150.89.jpg,left,0,0,0,0,,,,,0,10,10,10,,,,,,,,,0,0,0,0,0,1,1,1,,,,,,,,,,,,,,,,,,418.7626512179995,419.2624168160037,None,0,418.7626512179995,418.7626512179995,,,,,,,,,,,,,,,,,,,,,,,,,,,,,,,,,,,,,,,,,,,,,,,,,,,,,,,,,,,,,matiasp,001,b,2019_Nov_15_2032,Experimento,3.2.3,60.00390649449134,
8,14,14,999,0.5,0:10,3,Green,None,0,0,1,28:50,./completed_changuitos/montage_tdtpf_179.19_150.89.jpg,left,0,0,0,0,,,,,0,10,10,10,,,,,,,,,0,0,0,0,0,2,2,2,,,,,,,,,,,,,,,,,,420.7616013250008,421.2617405089986,None,1,420.7616013250008,420.7616013250008,,,,,,,,,,,,,,,,,,,,,,,,,,,,,,,,,,,,,,,,,,,,,,,,,,,,,,,,,,,,,matiasp,001,b,2019_Nov_15_2032,Experimento,3.2.3,60.00390649449134,
8,14,14,999,0.5,0:10,3,Yellow,['space'],0,0,1,28:50,./completed_changuitos/montage_tdtpf_179.19_150.89.jpg,left,0,0,0,0,,,,,0,10,10,10,,,,,,,,,0,0,0,0,0,3,3,3,,,,,,,,,,,,,,,,,,422.76118242600205,423.2610892840021,None,0,422.76118242600205,422.76118242600205,,,,,,,,,,,,,,,,,,,,,,,,,,,,,,,,,,,,,,,,,,,,,,,,,,,,,,,,,,,,,matiasp,001,b,2019_Nov_15_2032,Experimento,3.2.3,60.00390649449134,
8,14,14,999,0.5,0:10,3,Blue,None,0,0,1,28:50,./completed_changuitos/montage_tdtpf_179.19_150.89.jpg,left,0,0,0,0,,,,,0,10,10,10,,,,,,,,,0,0,0,0,0,4,4,4,,,,,,,,,,,,,,,,,,424.76056625800265,425.2604249080032,None,1,424.76056625800265,424.76056625800265,,,,,,,,,,,,,,,,,,,,,,,,,,,,,,,,,,,,,,,,,,,,,,,,,,,,,,,,,,,,,matiasp,001,b,2019_Nov_15_2032,Experimento,3.2.3,60.00390649449134,
8,14,14,999,0.5,0:10,3,Cyan,None,0,0,1,28:50,./completed_changuitos/montage_tdtpf_179.19_150.89.jpg,left,0,0,0,0,,,,,0,10,10,10,,,,,,,,,0,0,0,0,0,5,5,5,,,,,,,,,,,,,,,,,,426.7598678680006,427.25931301100354,None,1,426.7598678680006,426.7598678680006,,,,,,,,,,,,,,,,,,,,,,,,,,,,,,,,,,,,,,,,,,,,,,,,,,,,,,,,,,,,,matiasp,001,b,2019_Nov_15_2032,Experimento,3.2.3,60.00390649449134,
8,14,14,999,0.5,0:10,3,Blue,['space'],0,0,1,28:50,./completed_changuitos/montage_tdtpf_179.19_150.89.jpg,left,0,0,0,0,,,,,0,10,10,10,,,,,,,,,0,0,0,0,0,6,6,6,,,,,,,,,,,,,,,,,,428.7755017009986,429.27568074699957,['return'],0,428.7755017009986,428.7755017009986,[0.5841099960016436],,,,,,,,,,,,,,,,,,,,,,,,,,,,,,,,,,,,,,,,,,,,,,,,,,,,,,,,,,,,matiasp,001,b,2019_Nov_15_2032,Experimento,3.2.3,60.00390649449134,
8,14,14,999,0.5,0:10,3,Yellow,None,0,0,1,28:50,./completed_changuitos/montage_tdtpf_179.19_150.89.jpg,left,0,0,0,0,,,,,0,10,10,10,,,,,,,,,0,0,0,0,0,7,7,7,,,,,,,,,,,,,,,,,,430.7418259111044,None,None,1,430.7418259111044,None,,,,,,,,,,,,,,,,,,,,,,,,,,,,,,,,,,,,,,,,,,,,,,,,,,,,,,,,,,,,,matiasp,001,b,2019_Nov_15_2032,Experimento,3.2.3,60.00390649449134,
8,14,14,999,0.5,0:10,3,Cyan,None,0,0,1,28:50,./completed_changuitos/montage_tdtpf_179.19_150.89.jpg,left,0,0,0,0,,,,,0,10,10,10,,,,,,,,,0,0,0,0,0,8,8,8,,,,,,,,,,,,,,,,,,430.7418259111044,None,None,1,430.7418259111044,None,,,,,,,,,,,,,,,,,,,,,,,,,,,,,,,,,,,,,,,,,,,,,,,,,,,,,,,,,,,,,matiasp,001,b,2019_Nov_15_2032,Experimento,3.2.3,60.00390649449134,
8,14,14,999,0.5,0:10,3,Yellow,['space'],0,0,1,28:50,./completed_changuitos/montage_tdtpf_179.19_150.89.jpg,left,0,0,0,0,,,,,0,10,10,10,,,,,,,,,0,0,0,0,0,9,9,9,,,,,,,,,,,,,,,,,,430.7418259111044,None,None,0,430.7418259111044,None,,,,,,,,,,,,,,,,,,,,,,,,,,,,,,,,,,,,,,,,,,,,,,,,,,,,,,,,,,,,,matiasp,001,b,2019_Nov_15_2032,Experimento,3.2.3,60.00390649449134,
8,14,14,999,0.5,0:10,3,Magenta,None,0,0,1,28:50,./completed_changuitos/montage_tdtpf_179.19_150.89.jpg,left,0,0,0,0,,,,,0,10,10,10,,,,,,,,,0,0,0,0,0,10,10,10,,,,,,,,,,,,,,,,,,430.7418259111044,None,None,1,430.7418259111044,None,,,,,,,,,,,,,,,,,,,,,,,,,,,,,,,,,,,,,,,,,,,,,,,,,,,,,,,,,,,,,matiasp,001,b,2019_Nov_15_2032,Experimento,3.2.3,60.00390649449134,
8,14,14,999,0.5,0:10,3,Red,None,0,0,1,28:50,./completed_changuitos/montage_tdtpf_179.19_150.89.jpg,left,0,0,0,0,,,,,0,10,10,10,,,,,,,,,0,0,0,0,0,11,11,11,,,,,,,,,,,,,,,,,,430.75848890920463,None,None,1,430.75848890920463,None,,,,,,,,,,,,,,,,,,,,,,,,,,,,,,,,,,,,,,,,,,,,,,,,,,,,,,,,,,,,,matiasp,001,b,2019_Nov_15_2032,Experimento,3.2.3,60.00390649449134,
8,14,14,999,0.5,0:10,3,Magenta,['space'],0,0,1,28:50,./completed_changuitos/montage_tdtpf_179.19_150.89.jpg,left,0,0,0,0,,,,,0,10,10,10,,,,,,,,,0,0,0,0,0,12,12,12,,,,,,,,,,,,,,,,,,430.75848890920463,None,None,0,430.75848890920463,None,,,,,,,,,,,,,,,,,,,,,,,,,,,,,,,,,,,,,,,,,,,,,,,,,,,,,,,,,,,,,matiasp,001,b,2019_Nov_15_2032,Experimento,3.2.3,60.00390649449134,
8,14,14,999,0.5,0:10,3,Red,['space'],0,0,1,28:50,./completed_changuitos/montage_tdtpf_179.19_150.89.jpg,left,0,0,0,0,,,,,0,10,10,10,,,,,,,,,0,0,0,0,0,13,13,13,,,,,,,,,,,,,,,,,,430.75848890920463,None,None,0,430.75848890920463,None,,,,,,,,,,,,,,,,,,,,,,,,,,,,,,,,,,,,,,,,,,,,,,,,,,,,,,,,,,,,,matiasp,001,b,2019_Nov_15_2032,Experimento,3.2.3,60.00390649449134,
8,14,14,999,0.5,0:10,3,Yellow,None,0,0,1,28:50,./completed_changuitos/montage_tdtpf_179.19_150.89.jpg,left,0,0,0,0,,,,,0,10,10,10,,,,,,,,,0,0,0,0,0,14,14,14,,,,,,,,,,,,,,,,,,430.75848890920463,None,None,1,430.75848890920463,None,,,,,,,,,,,,,,,,,,,,,,,,,,,,,,,,,,,,,,,,,,,,,,,,,,,,,,,,,,,,,matiasp,001,b,2019_Nov_15_2032,Experimento,3.2.3,60.00390649449134,
8,14,14,999,0.5,0:10,3,Cyan,None,0,0,1,28:50,./completed_changuitos/montage_tdtpf_179.19_150.89.jpg,left,0,0,0,0,,,,,0,10,10,10,,,,,,,,,0,0,0,0,0,15,15,15,,,,,,,,,,,,,,,,,,430.75848890920463,None,None,1,430.75848890920463,None,,,,,,,,,,,,,,,,,,,,,,,,,,,,,,,,,,,,,,,,,,,,,,,,,,,,,,,,,,,,,matiasp,001,b,2019_Nov_15_2032,Experimento,3.2.3,60.00390649449134,
8,14,14,999,0.5,0:10,3,Green,None,0,0,1,28:50,./completed_changuitos/montage_tdtpf_179.19_150.89.jpg,left,0,0,0,0,,,,,0,10,10,10,,,,,,,,,0,0,0,0,0,16,16,16,,,,,,,,,,,,,,,,,,430.77515190730486,None,None,1,430.77515190730486,None,,,,,,,,,,,,,,,,,,,,,,,,,,,,,,,,,,,,,,,,,,,,,,,,,,,,,,,,,,,,,matiasp,001,b,2019_Nov_15_2032,Experimento,3.2.3,60.00390649449134,
8,14,14,999,0.5,0:10,3,White,None,0,0,1,28:50,./completed_changuitos/montage_tdtpf_179.19_150.89.jpg,left,0,0,0,0,,,,,0,10,10,10,,,,,,,,,0,0,0,0,0,17,17,17,,,,,,,,,,,,,,,,,,430.77515190730486,None,None,1,430.77515190730486,None,,,,,,,,,,,,,,,,,,,,,,,,,,,,,,,,,,,,,,,,,,,,,,,,,,,,,,,,,,,,,matiasp,001,b,2019_Nov_15_2032,Experimento,3.2.3,60.00390649449134,
8,14,14,999,0.5,0:10,3,Green,['space'],0,0,1,28:50,./completed_changuitos/montage_tdtpf_179.19_150.89.jpg,left,0,0,0,0,,,,,0,10,10,10,,,,,,,,,0,0,0,0,0,18,18,18,,,,,,,,,,,,,,,,,,430.77515190730486,None,None,0,430.77515190730486,None,,,,,,,,,,,,,,,,,,,,,,,,,,,,,,,,,,,,,,,,,,,,,,,,,,,,,,,,,,,,,matiasp,001,b,2019_Nov_15_2032,Experimento,3.2.3,60.00390649449134,
8,14,14,999,0.5,0:10,3,Red,None,0,0,1,28:50,./completed_changuitos/montage_tdtpf_179.19_150.89.jpg,left,0,0,0,0,,,,,0,10,10,10,,,,,,,,,0,0,0,0,0,19,19,19,,,,,,,,,,,,,,,,,,430.77515190730486,None,None,1,430.77515190730486,None,,,,,,,,,,,,,,,,,,,,,,,,,,,,,,,,,,,,,,,,,,,,,,,,,,,,,,,,,,,,,matiasp,001,b,2019_Nov_15_2032,Experimento,3.2.3,60.00390649449134,
8,14,14,999,0.5,0:10,3,Blue,None,0,0,1,28:50,./completed_changuitos/montage_tdtpf_179.19_150.89.jpg,left,0,0,0,0,,,,,0,10,10,10,,,,,,,,,0,0,0,0,0,20,20,20,,,,,,,,,,,,,,,,,,430.77515190730486,None,None,1,430.77515190730486,None,,,,,,,,,,,,,,,,,,,,,,,,,,,,,,,,,,,,,,,,,,,,,,,,,,,,,,,,,,,,,matiasp,001,b,2019_Nov_15_2032,Experimento,3.2.3,60.00390649449134,
8,14,14,999,0.5,0:10,3,Green,None,0,0,1,28:50,./completed_changuitos/montage_tdtpf_179.19_150.89.jpg,left,0,0,0,0,,,,,0,10,10,10,,,,,,,,,0,0,0,0,0,21,21,21,,,,,,,,,,,,,,,,,,430.77515190730486,None,None,1,430.77515190730486,None,,,,,,,,,,,,,,,,,,,,,,,,,,,,,,,,,,,,,,,,,,,,,,,,,,,,,,,,,,,,,matiasp,001,b,2019_Nov_15_2032,Experimento,3.2.3,60.00390649449134,
8,14,14,999,0.5,0:10,3,,,0,0,1,28:50,./completed_changuitos/montage_tdtpf_179.19_150.89.jpg,left,0,0,0,0,,,,,0,10,10,10,,,,,,,,,0,0,0,0,,,,,,,,,,,,,,,,,,,,,,,,,,,,,430.8121756030014,None,left,1,1.7295074919966282,430.8121756030014,None,430.8121756030014,None,,,,,,,,,,,,,,,,,,,,,,,,,,,,,,,,,,,,,,,,,,,,,,,,,,,matiasp,001,b,2019_Nov_15_2032,Experimento,3.2.3,60.00390649449134,
8,14,14,999,0.5,0:10,3,,,0,0,1,28:50,,,0,0,0,0,,,,,0,10,10,10,,,,,,,,,,,,,,,,,,,,,,,,,,,,,,,,,,,,,,,,,,,,,,,,,,,,,,,,,,,,,,,,,,,,,,,,,,,,,,,,,,,,,,,,,,,,,,,,,,,,matiasp,001,b,2019_Nov_15_2032,Experimento,3.2.3,60.00390649449134,
8,14,14,999,0.5,0:10,3,,,0,1,0,10:50,./completed_changuitos/montage_egacw_149.79_171.19.jpg,right,0,0,0,0,,,,,0,11,11,11,,,,,0,0,0,0,,,,,,,,,,,,,,,,,,,,,,,,,,,,,,,,,,,,,,,,,,432.6866270190003,433.8907979939977,433.8907979939977,441.9047507639989,441.9047507639989,455.9165987610031,right,1,1.5669055510006729,455.9165987610031,None,455.9165987610031,None,455.9165987610031,None,,,,,,,,,,,,,,,,,,,,,,,,,,,,,,,,,,,,matiasp,001,b,2019_Nov_15_2032,Experimento,3.2.3,60.00390649449134,
8,14,14,999,0.5,0:10,3,,,0,1,0,10:50,,,0,0,0,0,,,,,0,11,11,11,,,,,,,,,,,,,,,,,,,,,,,,,,,,,,,,,,,,,,,,,,,,,,,,,,,,,,,,,,,,,,,,,,,,,,,,,,,,,,,,,,,,,,,,,,,,,,,,,,,,matiasp,001,b,2019_Nov_15_2032,Experimento,3.2.3,60.00390649449134,
8,14,14,999,0.5,0:10,3,,,1,0,0,30:50,./completed_changuitos/montage_klzhn_157.29_179.75.jpg,right,0,0,0,0,,,,,0,12,12,12,0,0,0,0,,,,,,,,,,,,,,,,,,,,,,,,,,,,,,,,,,,,,,,,,,,,,,,,,,,,,,,,,,,,,458.11589229100355,459.21550355100044,459.21550355100044,467.2293925060003,left,0,0.08382997900480404,467.2293925060003,None,467.2293925060003,None,467.2293925060003,None,,,,,,,,,,,,,,,,,,,,,,,matiasp,001,b,2019_Nov_15_2032,Experimento,3.2.3,60.00390649449134,
8,14,14,999,0.5,0:10,3,,,1,0,0,30:50,,,0,0,0,0,,,,,0,12,12,12,,,,,,,,,,,,,,,,,,,,,,,,,,,,,,,,,,,,,,,,,,,,,,,,,,,,,,,,,,,,,,,,,,,,,,,,,,,,,,,,,,,,,,,,,,,,,,,,,,,,matiasp,001,b,2019_Nov_15_2032,Experimento,3.2.3,60.00390649449134,
8,14,14,999,0.5,0:10,3,,,1,0,0,32:50,./completed_changuitos/montage_kjkwh_77.05_91.39.jpg,right,0,0,0,0,,,,,0,13,13,13,0,0,0,0,,,,,,,,,,,,,,,,,,,,,,,,,,,,,,,,,,,,,,,,,,,,,,,,,,,,,,,,,,,,,467.9624584859994,468.92886157199973,468.92886157199973,476.9427666060001,right,1,1.2167768010040163,476.9427666060001,None,476.9427666060001,None,476.9427666060001,None,,,,,,,,,,,,,,,,,,,,,,,matiasp,001,b,2019_Nov_15_2032,Experimento,3.2.3,60.00390649449134,
8,14,14,999,0.5,0:10,3,,,1,0,0,32:50,,,0,0,0,0,,,,,0,13,13,13,,,,,,,,,,,,,,,,,,,,,,,,,,,,,,,,,,,,,,,,,,,,,,,,,,,,,,,,,,,,,,,,,,,,,,,,,,,,,,,,,,,,,,,,,,,,,,,,,,,,matiasp,001,b,2019_Nov_15_2032,Experimento,3.2.3,60.00390649449134,
8,14,14,999,0.5,0:10,3,,,1,0,0,34:50,./completed_changuitos/montage_knizt_101.55_87.75.jpg,left,0,0,0,0,,,,,0,14,14,14,0,0,0,0,,,,,,,,,,,,,,,,,,,,,,,,,,,,,,,,,,,,,,,,,,,,,,,,,,,,,,,,,,,,,478.7921334260027,479.8917780819975,479.8917780819975,487.90568000900385,left,1,1.9664932109953952,487.90568000900385,None,487.90568000900385,None,487.90568000900385,None,,,,,,,,,,,,,,,,,,,,,,,matiasp,001,b,2019_Nov_15_2032,Experimento,3.2.3,60.00390649449134,
8,14,14,999,0.5,0:10,3,,,1,0,0,34:50,,,0,0,0,0,,,,,0,14,14,14,,,,,,,,,,,,,,,,,,,,,,,,,,,,,,,,,,,,,,,,,,,,,,,,,,,,,,,,,,,,,,,,,,,,,,,,,,,,,,,,,,,,,,,,,,,,,,,,,,,,matiasp,001,b,2019_Nov_15_2032,Experimento,3.2.3,60.00390649449134,
8,14,14,999,0.5,0:10,3,,,1,0,0,30:50,./completed_changuitos/montage_usdgf_469.9_410.19.jpg,left,0,0,0,0,,,,,0,15,15,15,0,0,0,0,,,,,,,,,,,,,,,,,,,,,,,,,,,,,,,,,,,,,,,,,,,,,,,,,,,,,,,,,,,,,490.521456663002,491.6541111260012,491.6541111260012,499.66835290699964,right,0,1.9331449669989524,499.66835290699964,None,499.66835290699964,None,499.66835290699964,None,,,,,,,,,,,,,,,,,,,,,,,matiasp,001,b,2019_Nov_15_2032,Experimento,3.2.3,60.00390649449134,
8,14,14,999,0.5,0:10,3,,,1,0,0,30:50,,,0,0,0,0,,,,,0,15,15,15,,,,,,,,,,,,,,,,,,,,,,,,,,,,,,,,,,,,,,,,,,,,,,,,,,,,,,,,,,,,,,,,,,,,,,,,,,,,,,,,,,,,,,,,,,,,,,,,,,,,matiasp,001,b,2019_Nov_15_2032,Experimento,3.2.3,60.00390649449134,
8,14,14,999,0.5,0:10,3,,,1,0,0,32:50,./completed_changuitos/montage_cgdku_68.49_81.35.jpg,right,0,0,0,0,,,,,0,16,16,16,0,0,0,0,,,,,,,,,,,,,,,,,,,,,,,,,,,,,,,,,,,,,,,,,,,,,,,,,,,,,,,,,,,,,502.250479934999,503.33380726700125,503.33380726700125,511.34770750199823,right,1,1.7832455469979323,511.34770750199823,None,511.34770750199823,None,511.34770750199823,None,,,,,,,,,,,,,,,,,,,,,,,matiasp,001,b,2019_Nov_15_2032,Experimento,3.2.3,60.00390649449134,
8,14,14,999,0.5,0:10,3,,,1,0,0,32:50,,,0,0,0,0,,,,,0,16,16,16,,,,,,,,,,,,,,,,,,,,,,,,,,,,,,,,,,,,,,,,,,,,,,,,,,,,,,,,,,,,,,,,,,,,,,,,,,,,,,,,,,,,,,,,,,,,,,,,,,,,matiasp,001,b,2019_Nov_15_2032,Experimento,3.2.3,60.00390649449134,
8,14,14,999,0.5,0:10,3,,,1,0,0,34:50,./completed_changuitos/montage_jutpp_113.99_127.15.jpg,right,0,0,0,0,,,,,0,17,17,17,0,0,0,0,,,,,,,,,,,,,,,,,,,,,,,,,,,,,,,,,,,,,,,,,,,,,,,,,,,,,,,,,,,,,513.7802005789999,515.0797722720017,515.0797722720017,523.0937138770023,right,1,0.8002060129947495,523.0937138770023,None,523.0937138770023,None,523.0937138770023,None,,,,,,,,,,,,,,,,,,,,,,,matiasp,001,b,2019_Nov_15_2032,Experimento,3.2.3,60.00390649449134,
8,14,14,999,0.5,0:10,3,,,1,0,0,34:50,,,0,0,0,0,,,,,0,17,17,17,,,,,,,,,,,,,,,,,,,,,,,,,,,,,,,,,,,,,,,,,,,,,,,,,,,,,,,,,,,,,,,,,,,,,,,,,,,,,,,,,,,,,,,,,,,,,,,,,,,,matiasp,001,b,2019_Nov_15_2032,Experimento,3.2.3,60.00390649449134,
8,14,14,999,0.5,0:10,3,,,,,,,,,0,0,0,0,,,,,,,,,,,,,,,,,,,,,,,,,,,,,,,,,,,,,,,,,,,,,,,,,,,,,,,,,,,,,,,,,,,,,,,,,,,,,,,,,,,,,,523.9461657840002,528.4419100800005,1,20.02701703600178,528.4419100800005,None,528.4419100800005,None,c,10.296458188000543,548.485062411004,None,548.485062411004,None,548.485062411004,None,558.797903454004,None,7,8.597918983999989,558.797903454004,None,matiasp,001,b,2019_Nov_15_2032,Experimento,3.2.3,60.00390649449134,
