changuito_time_to_show,time_to_think,time_to_play,total_items,nback_stimulus_time,nback_training,time_to_show_tiny_stimulus,colourtest,corresp,inmediato,consciente,inconsciente,nback_slice,imagen,correcta,trials_5.thisRepN,trials_5.thisTrialN,trials_5.thisN,trials_5.thisIndex,nback_train.thisRepN,nback_train.thisTrialN,nback_train.thisN,nback_train.thisIndex,treatment_order.thisRepN,treatment_order.thisTrialN,treatment_order.thisN,treatment_order.thisIndex,trials.thisRepN,trials.thisTrialN,trials.thisN,trials.thisIndex,trials_2.thisRepN,trials_2.thisTrialN,trials_2.thisN,trials_2.thisIndex,trials_3.thisRepN,trials_3.thisTrialN,trials_3.thisN,trials_3.thisIndex,trials_4.thisRepN,trials_4.thisTrialN,trials_4.thisN,trials_4.thisIndex,Presentacion.started,Presentacion.stopped,Juego.started,Juego.stopped,image_6.started,image_6.stopped,polygon.started,polygon.stopped,nback_train_resp.keys,nback_train_resp.corr,nback_train_resp.started,nback_train_resp.stopped,nback_train_resp.rt,holi.started,holi.stopped,image_3.started,image_3.stopped,polygon_2.started,polygon_2.stopped,nback_train_resp_2.keys,nback_train_resp_2.corr,nback_train_resp_2.started,nback_train_resp_2.stopped,nback_train_resp_2.rt,text_2.started,text_2.stopped,key_resp.keys,key_resp.corr,key_resp.rt,key_resp.started,key_resp.stopped,image_5.started,image_5.stopped,hola.started,hola.stopped,image_2.started,image_2.stopped,tiempo_para_pensar.started,tiempo_para_pensar.stopped,respuesta_consciente.keys,respuesta_consciente.corr,respuesta_consciente.rt,respuesta_consciente.started,respuesta_consciente.stopped,cual_es_la_mas_barata.started,cual_es_la_mas_barata.stopped,image_4.started,image_4.stopped,text.started,text.stopped,image.started,image.stopped,respuesta_inmediato.keys,respuesta_inmediato.corr,respuesta_inmediato.rt,respuesta_inmediato.started,respuesta_inmediato.stopped,pregunta_cual_es_el_mas_barato.started,pregunta_cual_es_el_mas_barato.stopped,short_stim1.started,short_stim1.stopped,gracias.started,gracias.stopped,respuesta1.keys,respuesta1.rt,respuesta1.started,respuesta1.stopped,pregunta1.started,pregunta1.stopped,respuesta3bis_3.keys,respuesta3bis_3.rt,respuesta3bis_3.started,respuesta3bis_3.stopped,pregunta3_3.started,pregunta3_3.stopped,productoCon3RANGOSabc_3.started,productoCon3RANGOSabc_3.stopped,text_3.started,text_3.stopped,key_resp_2.keys,key_resp_2.rt,key_resp_2.started,key_resp_2.stopped,participant,session,group,date,expName,psychopyVersion,frameRate,
8,14,14,999,0.5,0:10,3,White,None,,,,,,,0,0,0,0,0,0,0,0,,,,,,,,,,,,,,,,,,,,,18.134344294005132,None,36.269874502002494,None,36.269874502002494,None,77.31430896700476,77.8154441229999,None,1,77.31430896700476,None,,,,,,,,,,,,,,,,,,,,,,,,,,,,,,,,,,,,,,,,,,,,,,,,,,,,,,,,,,,,,,,,,,,,,,,,monicaD,001,d,2019_Oct_12_1252,Experimento,3.2.3,59.94334119487734,
8,14,14,999,0.5,0:10,3,Red,None,,,,,,,0,0,0,0,0,1,1,1,,,,,,,,,,,,,,,,,,,,,,,,,,,79.31551125900296,79.81543876600335,None,1,79.31551125900296,79.31551125900296,,,,,,,,,,,,,,,,,,,,,,,,,,,,,,,,,,,,,,,,,,,,,,,,,,,,,,,,,,,,,,,,,,,,,,,,monicaD,001,d,2019_Oct_12_1252,Experimento,3.2.3,59.94334119487734,
8,14,14,999,0.5,0:10,3,Magenta,None,,,,,,,0,0,0,0,0,2,2,2,,,,,,,,,,,,,,,,,,,,,,,,,,,81.31544764900173,81.81535616300243,None,1,81.31544764900173,81.31544764900173,,,,,,,,,,,,,,,,,,,,,,,,,,,,,,,,,,,,,,,,,,,,,,,,,,,,,,,,,,,,,,,,,,,,,,,,monicaD,001,d,2019_Oct_12_1252,Experimento,3.2.3,59.94334119487734,
8,14,14,999,0.5,0:10,3,Cyan,None,,,,,,,0,0,0,0,0,3,3,3,,,,,,,,,,,,,,,,,,,,,,,,,,,83.31535788000474,83.81537479200051,None,1,83.31535788000474,83.31535788000474,,,,,,,,,,,,,,,,,,,,,,,,,,,,,,,,,,,,,,,,,,,,,,,,,,,,,,,,,,,,,,,,,,,,,,,,monicaD,001,d,2019_Oct_12_1252,Experimento,3.2.3,59.94334119487734,
8,14,14,999,0.5,0:10,3,Magenta,['space'],,,,,,,0,0,0,0,0,4,4,4,,,,,,,,,,,,,,,,,,,,,,,,,,,85.31535709900345,85.81535551100387,['return'],0,85.31535709900345,85.31535709900345,[1.587828215000627],,,,,,,,,,,,,,,,,,,,,,,,,,,,,,,,,,,,,,,,,,,,,,,,,,,,,,,,,,,,,,,,,,,,,,,monicaD,001,d,2019_Oct_12_1252,Experimento,3.2.3,59.94334119487734,
8,14,14,999,0.5,0:10,3,Green,None,,,,,,,0,0,0,0,0,5,5,5,,,,,,,,,,,,,,,,,,,,,,,,,,,87.315545811005,87.81530257300619,None,1,87.315545811005,87.315545811005,,,,,,,,,,,,,,,,,,,,,,,,,,,,,,,,,,,,,,,,,,,,,,,,,,,,,,,,,,,,,,,,,,,,,,,,monicaD,001,d,2019_Oct_12_1252,Experimento,3.2.3,59.94334119487734,
8,14,14,999,0.5,0:10,3,White,None,,,,,,,0,0,0,0,0,6,6,6,,,,,,,,,,,,,,,,,,,,,,,,,,,89.31525552300445,89.81515793200379,None,1,89.31525552300445,89.31525552300445,,,,,,,,,,,,,,,,,,,,,,,,,,,,,,,,,,,,,,,,,,,,,,,,,,,,,,,,,,,,,,,,,,,,,,,,monicaD,001,d,2019_Oct_12_1252,Experimento,3.2.3,59.94334119487734,
8,14,14,999,0.5,0:10,3,Green,['space'],,,,,,,0,0,0,0,0,7,7,7,,,,,,,,,,,,,,,,,,,,,,,,,,,91.31525870900077,91.81534324200038,['return'],0,91.31525870900077,91.31525870900077,[0.44341823900322197],,,,,,,,,,,,,,,,,,,,,,,,,,,,,,,,,,,,,,,,,,,,,,,,,,,,,,,,,,,,,,,,,,,,,,,monicaD,001,d,2019_Oct_12_1252,Experimento,3.2.3,59.94334119487734,
8,14,14,999,0.5,0:10,3,Blue,None,,,,,,,0,0,0,0,0,8,8,8,,,,,,,,,,,,,,,,,,,,,,,,,,,93.31540769500134,93.81524156000523,None,1,93.31540769500134,93.31540769500134,,,,,,,,,,,,,,,,,,,,,,,,,,,,,,,,,,,,,,,,,,,,,,,,,,,,,,,,,,,,,,,,,,,,,,,,monicaD,001,d,2019_Oct_12_1252,Experimento,3.2.3,59.94334119487734,
8,14,14,999,0.5,0:10,3,Green,['space'],,,,,,,0,0,0,0,0,9,9,9,,,,,,,,,,,,,,,,,,,,,,,,,,,95.31515021200175,95.81511927700194,None,0,95.31515021200175,95.31515021200175,,,,,,,,,,,,,,,,,,,,,,,,,,,,,,,,,,,,,,,,,,,,,,,,,,,,,,,,,,,,,,,,,,,,,,,,monicaD,001,d,2019_Oct_12_1252,Experimento,3.2.3,59.94334119487734,
8,14,14,999,0.5,0:10,3,Magenta,None,0,0,1,20:50,./completed_changuitos/montage_iukfg_79.19_69.45.jpg,left,0,0,0,0,,,,,0,0,0,0,,,,,,,,,0,0,0,0,0,0,0,0,,,,,,,,,,,,,,97.51838252100424,114.1308343500059,114.1308343500059,None,122.1510014670057,122.66484488100104,None,1,122.1510014670057,None,,,,,,,,,,,,,,,,,,,,,,,,,,,,,,,,,,,,,,,,,,,,,,,,,,,,,,,,,,,,,monicaD,001,d,2019_Oct_12_1252,Experimento,3.2.3,59.94334119487734,
8,14,14,999,0.5,0:10,3,Blue,['space'],0,0,1,20:50,./completed_changuitos/montage_iukfg_79.19_69.45.jpg,left,0,0,0,0,,,,,0,0,0,0,,,,,,,,,0,0,0,0,0,1,1,1,,,,,,,,,,,,,,,,,,124.16494032100309,124.66487970000162,None,0,124.16494032100309,124.16494032100309,,,,,,,,,,,,,,,,,,,,,,,,,,,,,,,,,,,,,,,,,,,,,,,,,,,,,,,,,,,,,monicaD,001,d,2019_Oct_12_1252,Experimento,3.2.3,59.94334119487734,
8,14,14,999,0.5,0:10,3,Cyan,None,0,0,1,20:50,./completed_changuitos/montage_iukfg_79.19_69.45.jpg,left,0,0,0,0,,,,,0,0,0,0,,,,,,,,,0,0,0,0,0,2,2,2,,,,,,,,,,,,,,,,,,126.16484062700329,126.664713846003,None,1,126.16484062700329,126.16484062700329,,,,,,,,,,,,,,,,,,,,,,,,,,,,,,,,,,,,,,,,,,,,,,,,,,,,,,,,,,,,,monicaD,001,d,2019_Oct_12_1252,Experimento,3.2.3,59.94334119487734,
8,14,14,999,0.5,0:10,3,Yellow,None,0,0,1,20:50,./completed_changuitos/montage_iukfg_79.19_69.45.jpg,left,0,0,0,0,,,,,0,0,0,0,,,,,,,,,0,0,0,0,0,3,3,3,,,,,,,,,,,,,,,,,,128.16472784300277,128.66470869000477,None,1,128.16472784300277,128.16472784300277,,,,,,,,,,,,,,,,,,,,,,,,,,,,,,,,,,,,,,,,,,,,,,,,,,,,,,,,,,,,,monicaD,001,d,2019_Oct_12_1252,Experimento,3.2.3,59.94334119487734,
8,14,14,999,0.5,0:10,3,Cyan,None,0,0,1,20:50,./completed_changuitos/montage_iukfg_79.19_69.45.jpg,left,0,0,0,0,,,,,0,0,0,0,,,,,,,,,0,0,0,0,0,4,4,4,,,,,,,,,,,,,,,,,,130.16467232300056,130.6646484380035,['return'],0,130.16467232300056,130.16467232300056,[0.7594712119971518],,,,,,,,,,,,,,,,,,,,,,,,,,,,,,,,,,,,,,,,,,,,,,,,,,,,,,,,,,,,monicaD,001,d,2019_Oct_12_1252,Experimento,3.2.3,59.94334119487734,
8,14,14,999,0.5,0:10,3,Blue,None,0,0,1,20:50,./completed_changuitos/montage_iukfg_79.19_69.45.jpg,left,0,0,0,0,,,,,0,0,0,0,,,,,,,,,0,0,0,0,0,5,5,5,,,,,,,,,,,,,,,,,,132.16440934500133,132.66475267600617,None,1,132.16440934500133,132.16440934500133,,,,,,,,,,,,,,,,,,,,,,,,,,,,,,,,,,,,,,,,,,,,,,,,,,,,,,,,,,,,,monicaD,001,d,2019_Oct_12_1252,Experimento,3.2.3,59.94334119487734,
8,14,14,999,0.5,0:10,3,Cyan,['space'],0,0,1,20:50,./completed_changuitos/montage_iukfg_79.19_69.45.jpg,left,0,0,0,0,,,,,0,0,0,0,,,,,,,,,0,0,0,0,0,6,6,6,,,,,,,,,,,,,,,,,,134.1649250010014,134.66467560300225,None,0,134.1649250010014,134.1649250010014,,,,,,,,,,,,,,,,,,,,,,,,,,,,,,,,,,,,,,,,,,,,,,,,,,,,,,,,,,,,,monicaD,001,d,2019_Oct_12_1252,Experimento,3.2.3,59.94334119487734,
8,14,14,999,0.5,0:10,3,Magenta,None,0,0,1,20:50,./completed_changuitos/montage_iukfg_79.19_69.45.jpg,left,0,0,0,0,,,,,0,0,0,0,,,,,,,,,0,0,0,0,0,7,7,7,,,,,,,,,,,,,,,,,,136.1478373701997,None,None,1,136.1478373701997,None,,,,,,,,,,,,,,,,,,,,,,,,,,,,,,,,,,,,,,,,,,,,,,,,,,,,,,,,,,,,,monicaD,001,d,2019_Oct_12_1252,Experimento,3.2.3,59.94334119487734,
8,14,14,999,0.5,0:10,3,Red,None,0,0,1,20:50,./completed_changuitos/montage_iukfg_79.19_69.45.jpg,left,0,0,0,0,,,,,0,0,0,0,,,,,,,,,0,0,0,0,0,8,8,8,,,,,,,,,,,,,,,,,,136.1478373701997,None,None,1,136.1478373701997,None,,,,,,,,,,,,,,,,,,,,,,,,,,,,,,,,,,,,,,,,,,,,,,,,,,,,,,,,,,,,,monicaD,001,d,2019_Oct_12_1252,Experimento,3.2.3,59.94334119487734,
8,14,14,999,0.5,0:10,3,Magenta,['space'],0,0,1,20:50,./completed_changuitos/montage_iukfg_79.19_69.45.jpg,left,0,0,0,0,,,,,0,0,0,0,,,,,,,,,0,0,0,0,0,9,9,9,,,,,,,,,,,,,,,,,,136.1478373701997,None,None,0,136.1478373701997,None,,,,,,,,,,,,,,,,,,,,,,,,,,,,,,,,,,,,,,,,,,,,,,,,,,,,,,,,,,,,,monicaD,001,d,2019_Oct_12_1252,Experimento,3.2.3,59.94334119487734,
8,14,14,999,0.5,0:10,3,Green,None,0,0,1,20:50,./completed_changuitos/montage_iukfg_79.19_69.45.jpg,left,0,0,0,0,,,,,0,0,0,0,,,,,,,,,0,0,0,0,0,10,10,10,,,,,,,,,,,,,,,,,,136.1478373701997,None,None,1,136.1478373701997,None,,,,,,,,,,,,,,,,,,,,,,,,,,,,,,,,,,,,,,,,,,,,,,,,,,,,,,,,,,,,,monicaD,001,d,2019_Oct_12_1252,Experimento,3.2.3,59.94334119487734,
8,14,14,999,0.5,0:10,3,Yellow,['space'],0,0,1,20:50,./completed_changuitos/montage_iukfg_79.19_69.45.jpg,left,0,0,0,0,,,,,0,0,0,0,,,,,,,,,0,0,0,0,0,11,11,11,,,,,,,,,,,,,,,,,,136.1478373701997,None,None,0,136.1478373701997,None,,,,,,,,,,,,,,,,,,,,,,,,,,,,,,,,,,,,,,,,,,,,,,,,,,,,,,,,,,,,,monicaD,001,d,2019_Oct_12_1252,Experimento,3.2.3,59.94334119487734,
8,14,14,999,0.5,0:10,3,Blue,None,0,0,1,20:50,./completed_changuitos/montage_iukfg_79.19_69.45.jpg,left,0,0,0,0,,,,,0,0,0,0,,,,,,,,,0,0,0,0,0,12,12,12,,,,,,,,,,,,,,,,,,136.1478373701997,None,None,1,136.1478373701997,None,,,,,,,,,,,,,,,,,,,,,,,,,,,,,,,,,,,,,,,,,,,,,,,,,,,,,,,,,,,,,monicaD,001,d,2019_Oct_12_1252,Experimento,3.2.3,59.94334119487734,
8,14,14,999,0.5,0:10,3,Cyan,None,0,0,1,20:50,./completed_changuitos/montage_iukfg_79.19_69.45.jpg,left,0,0,0,0,,,,,0,0,0,0,,,,,,,,,0,0,0,0,0,13,13,13,,,,,,,,,,,,,,,,,,136.1644732173998,None,None,1,136.1644732173998,None,,,,,,,,,,,,,,,,,,,,,,,,,,,,,,,,,,,,,,,,,,,,,,,,,,,,,,,,,,,,,monicaD,001,d,2019_Oct_12_1252,Experimento,3.2.3,59.94334119487734,
8,14,14,999,0.5,0:10,3,Blue,['space'],0,0,1,20:50,./completed_changuitos/montage_iukfg_79.19_69.45.jpg,left,0,0,0,0,,,,,0,0,0,0,,,,,,,,,0,0,0,0,0,14,14,14,,,,,,,,,,,,,,,,,,136.1644732173998,None,None,0,136.1644732173998,None,,,,,,,,,,,,,,,,,,,,,,,,,,,,,,,,,,,,,,,,,,,,,,,,,,,,,,,,,,,,,monicaD,001,d,2019_Oct_12_1252,Experimento,3.2.3,59.94334119487734,
8,14,14,999,0.5,0:10,3,Yellow,None,0,0,1,20:50,./completed_changuitos/montage_iukfg_79.19_69.45.jpg,left,0,0,0,0,,,,,0,0,0,0,,,,,,,,,0,0,0,0,0,15,15,15,,,,,,,,,,,,,,,,,,136.1644732173998,None,None,1,136.1644732173998,None,,,,,,,,,,,,,,,,,,,,,,,,,,,,,,,,,,,,,,,,,,,,,,,,,,,,,,,,,,,,,monicaD,001,d,2019_Oct_12_1252,Experimento,3.2.3,59.94334119487734,
8,14,14,999,0.5,0:10,3,Cyan,None,0,0,1,20:50,./completed_changuitos/montage_iukfg_79.19_69.45.jpg,left,0,0,0,0,,,,,0,0,0,0,,,,,,,,,0,0,0,0,0,16,16,16,,,,,,,,,,,,,,,,,,136.1644732173998,None,None,1,136.1644732173998,None,,,,,,,,,,,,,,,,,,,,,,,,,,,,,,,,,,,,,,,,,,,,,,,,,,,,,,,,,,,,,monicaD,001,d,2019_Oct_12_1252,Experimento,3.2.3,59.94334119487734,
8,14,14,999,0.5,0:10,3,Yellow,['space'],0,0,1,20:50,./completed_changuitos/montage_iukfg_79.19_69.45.jpg,left,0,0,0,0,,,,,0,0,0,0,,,,,,,,,0,0,0,0,0,17,17,17,,,,,,,,,,,,,,,,,,136.1644732173998,None,None,0,136.1644732173998,None,,,,,,,,,,,,,,,,,,,,,,,,,,,,,,,,,,,,,,,,,,,,,,,,,,,,,,,,,,,,,monicaD,001,d,2019_Oct_12_1252,Experimento,3.2.3,59.94334119487734,
8,14,14,999,0.5,0:10,3,Magenta,None,0,0,1,20:50,./completed_changuitos/montage_iukfg_79.19_69.45.jpg,left,0,0,0,0,,,,,0,0,0,0,,,,,,,,,0,0,0,0,0,18,18,18,,,,,,,,,,,,,,,,,,136.1644732173998,None,None,1,136.1644732173998,None,,,,,,,,,,,,,,,,,,,,,,,,,,,,,,,,,,,,,,,,,,,,,,,,,,,,,,,,,,,,,monicaD,001,d,2019_Oct_12_1252,Experimento,3.2.3,59.94334119487734,
8,14,14,999,0.5,0:10,3,Red,None,0,0,1,20:50,./completed_changuitos/montage_iukfg_79.19_69.45.jpg,left,0,0,0,0,,,,,0,0,0,0,,,,,,,,,0,0,0,0,0,19,19,19,,,,,,,,,,,,,,,,,,136.1644732173998,None,None,1,136.1644732173998,None,,,,,,,,,,,,,,,,,,,,,,,,,,,,,,,,,,,,,,,,,,,,,,,,,,,,,,,,,,,,,monicaD,001,d,2019_Oct_12_1252,Experimento,3.2.3,59.94334119487734,
8,14,14,999,0.5,0:10,3,Magenta,['space'],0,0,1,20:50,./completed_changuitos/montage_iukfg_79.19_69.45.jpg,left,0,0,0,0,,,,,0,0,0,0,,,,,,,,,0,0,0,0,0,20,20,20,,,,,,,,,,,,,,,,,,136.1644732173998,None,None,0,136.1644732173998,None,,,,,,,,,,,,,,,,,,,,,,,,,,,,,,,,,,,,,,,,,,,,,,,,,,,,,,,,,,,,,monicaD,001,d,2019_Oct_12_1252,Experimento,3.2.3,59.94334119487734,
8,14,14,999,0.5,0:10,3,Red,['space'],0,0,1,20:50,./completed_changuitos/montage_iukfg_79.19_69.45.jpg,left,0,0,0,0,,,,,0,0,0,0,,,,,,,,,0,0,0,0,0,21,21,21,,,,,,,,,,,,,,,,,,136.1644732173998,None,None,0,136.1644732173998,None,,,,,,,,,,,,,,,,,,,,,,,,,,,,,,,,,,,,,,,,,,,,,,,,,,,,,,,,,,,,,monicaD,001,d,2019_Oct_12_1252,Experimento,3.2.3,59.94334119487734,
8,14,14,999,0.5,0:10,3,Yellow,None,0,0,1,20:50,./completed_changuitos/montage_iukfg_79.19_69.45.jpg,left,0,0,0,0,,,,,0,0,0,0,,,,,,,,,0,0,0,0,0,22,22,22,,,,,,,,,,,,,,,,,,136.1644732173998,None,None,1,136.1644732173998,None,,,,,,,,,,,,,,,,,,,,,,,,,,,,,,,,,,,,,,,,,,,,,,,,,,,,,,,,,,,,,monicaD,001,d,2019_Oct_12_1252,Experimento,3.2.3,59.94334119487734,
8,14,14,999,0.5,0:10,3,Cyan,None,0,0,1,20:50,./completed_changuitos/montage_iukfg_79.19_69.45.jpg,left,0,0,0,0,,,,,0,0,0,0,,,,,,,,,0,0,0,0,0,23,23,23,,,,,,,,,,,,,,,,,,136.1644732173998,None,None,1,136.1644732173998,None,,,,,,,,,,,,,,,,,,,,,,,,,,,,,,,,,,,,,,,,,,,,,,,,,,,,,,,,,,,,,monicaD,001,d,2019_Oct_12_1252,Experimento,3.2.3,59.94334119487734,
8,14,14,999,0.5,0:10,3,Green,None,0,0,1,20:50,./completed_changuitos/montage_iukfg_79.19_69.45.jpg,left,0,0,0,0,,,,,0,0,0,0,,,,,,,,,0,0,0,0,0,24,24,24,,,,,,,,,,,,,,,,,,136.1811090645999,None,None,1,136.1811090645999,None,,,,,,,,,,,,,,,,,,,,,,,,,,,,,,,,,,,,,,,,,,,,,,,,,,,,,,,,,,,,,monicaD,001,d,2019_Oct_12_1252,Experimento,3.2.3,59.94334119487734,
8,14,14,999,0.5,0:10,3,White,None,0,0,1,20:50,./completed_changuitos/montage_iukfg_79.19_69.45.jpg,left,0,0,0,0,,,,,0,0,0,0,,,,,,,,,0,0,0,0,0,25,25,25,,,,,,,,,,,,,,,,,,136.1811090645999,None,None,1,136.1811090645999,None,,,,,,,,,,,,,,,,,,,,,,,,,,,,,,,,,,,,,,,,,,,,,,,,,,,,,,,,,,,,,monicaD,001,d,2019_Oct_12_1252,Experimento,3.2.3,59.94334119487734,
8,14,14,999,0.5,0:10,3,Green,['space'],0,0,1,20:50,./completed_changuitos/montage_iukfg_79.19_69.45.jpg,left,0,0,0,0,,,,,0,0,0,0,,,,,,,,,0,0,0,0,0,26,26,26,,,,,,,,,,,,,,,,,,136.1811090645999,None,None,0,136.1811090645999,None,,,,,,,,,,,,,,,,,,,,,,,,,,,,,,,,,,,,,,,,,,,,,,,,,,,,,,,,,,,,,monicaD,001,d,2019_Oct_12_1252,Experimento,3.2.3,59.94334119487734,
8,14,14,999,0.5,0:10,3,Red,None,0,0,1,20:50,./completed_changuitos/montage_iukfg_79.19_69.45.jpg,left,0,0,0,0,,,,,0,0,0,0,,,,,,,,,0,0,0,0,0,27,27,27,,,,,,,,,,,,,,,,,,136.1811090645999,None,None,1,136.1811090645999,None,,,,,,,,,,,,,,,,,,,,,,,,,,,,,,,,,,,,,,,,,,,,,,,,,,,,,,,,,,,,,monicaD,001,d,2019_Oct_12_1252,Experimento,3.2.3,59.94334119487734,
8,14,14,999,0.5,0:10,3,Blue,None,0,0,1,20:50,./completed_changuitos/montage_iukfg_79.19_69.45.jpg,left,0,0,0,0,,,,,0,0,0,0,,,,,,,,,0,0,0,0,0,28,28,28,,,,,,,,,,,,,,,,,,136.1811090645999,None,None,1,136.1811090645999,None,,,,,,,,,,,,,,,,,,,,,,,,,,,,,,,,,,,,,,,,,,,,,,,,,,,,,,,,,,,,,monicaD,001,d,2019_Oct_12_1252,Experimento,3.2.3,59.94334119487734,
8,14,14,999,0.5,0:10,3,Green,None,0,0,1,20:50,./completed_changuitos/montage_iukfg_79.19_69.45.jpg,left,0,0,0,0,,,,,0,0,0,0,,,,,,,,,0,0,0,0,0,29,29,29,,,,,,,,,,,,,,,,,,136.1811090645999,None,None,1,136.1811090645999,None,,,,,,,,,,,,,,,,,,,,,,,,,,,,,,,,,,,,,,,,,,,,,,,,,,,,,,,,,,,,,monicaD,001,d,2019_Oct_12_1252,Experimento,3.2.3,59.94334119487734,
8,14,14,999,0.5,0:10,3,,,0,0,1,20:50,./completed_changuitos/montage_iukfg_79.19_69.45.jpg,left,0,0,0,0,,,,,0,0,0,0,,,,,,,,,0,0,0,0,,,,,,,,,,,,,,,,,,,,,,,,,,,,,136.28476828700514,None,right,0,3.4479022180021275,136.28476828700514,None,136.28476828700514,139.2984706260031,,,,,,,,,,,,,,,,,,,,,,,,,,,,,,,,,,,,,,,,,,,,,,,,,,,monicaD,001,d,2019_Oct_12_1252,Experimento,3.2.3,59.94334119487734,
8,14,14,999,0.5,0:10,3,,,0,0,1,20:50,,,0,0,0,0,,,,,0,0,0,0,,,,,,,,,,,,,,,,,,,,,,,,,,,,,,,,,,,,,,,,,,,,,,,,,,,,,,,,,,,,,,,,,,,,,,,,,,,,,,,,,,,,,,,,,,,,,,,,,,,,monicaD,001,d,2019_Oct_12_1252,Experimento,3.2.3,59.94334119487734,
8,14,14,999,0.5,0:10,3,,,0,1,0,10:50,./completed_changuitos/montage_jtgrn_199.9_235.29.jpg,right,0,0,0,0,,,,,0,1,1,1,,,,,0,0,0,0,,,,,,,,,,,,,,,,,,,,,,,,,,,,,,,,,,,,,,,,,,140.08240542800195,146.86486213600438,146.86486213600438,154.86399141199945,154.86399141199945,168.8646496690053,left,0,2.831173619000765,168.8646496690053,None,168.8646496690053,None,168.8646496690053,None,,,,,,,,,,,,,,,,,,,,,,,,,,,,,,,,,,,,monicaD,001,d,2019_Oct_12_1252,Experimento,3.2.3,59.94334119487734,
8,14,14,999,0.5,0:10,3,,,0,1,0,10:50,,,0,0,0,0,,,,,0,1,1,1,,,,,,,,,,,,,,,,,,,,,,,,,,,,,,,,,,,,,,,,,,,,,,,,,,,,,,,,,,,,,,,,,,,,,,,,,,,,,,,,,,,,,,,,,,,,,,,,,,,,monicaD,001,d,2019_Oct_12_1252,Experimento,3.2.3,59.94334119487734,
8,14,14,999,0.5,0:10,3,,,0,1,0,25:50,./completed_changuitos/montage_lceqc_146.19_171.09.jpg,right,0,0,0,0,,,,,0,2,2,2,,,,,0,0,0,0,,,,,,,,,,,,,,,,,,,,,,,,,,,,,,,,,,,,,,,,,,171.99936263400014,177.63484361600422,177.63484361600422,185.64660974300205,185.64660974300205,199.64665327100374,left,0,0.9781100190011784,199.64665327100374,None,199.64665327100374,None,199.64665327100374,None,,,,,,,,,,,,,,,,,,,,,,,,,,,,,,,,,,,,monicaD,001,d,2019_Oct_12_1252,Experimento,3.2.3,59.94334119487734,
8,14,14,999,0.5,0:10,3,,,0,1,0,25:50,,,0,0,0,0,,,,,0,2,2,2,,,,,,,,,,,,,,,,,,,,,,,,,,,,,,,,,,,,,,,,,,,,,,,,,,,,,,,,,,,,,,,,,,,,,,,,,,,,,,,,,,,,,,,,,,,,,,,,,,,,monicaD,001,d,2019_Oct_12_1252,Experimento,3.2.3,59.94334119487734,
8,14,14,999,0.5,0:10,3,Yellow,None,0,0,1,15:50,./completed_changuitos/montage_jjuck_61.55_52.95.jpg,left,0,0,0,0,,,,,0,3,3,3,,,,,,,,,0,0,0,0,0,0,0,0,,,,,,,,,,,,,,200.86287737300154,204.7175118400046,204.7175118400046,None,212.76388225200208,213.26395936300105,None,1,212.76388225200208,None,,,,,,,,,,,,,,,,,,,,,,,,,,,,,,,,,,,,,,,,,,,,,,,,,,,,,,,,,,,,,monicaD,001,d,2019_Oct_12_1252,Experimento,3.2.3,59.94334119487734,
8,14,14,999,0.5,0:10,3,White,['space'],0,0,1,15:50,./completed_changuitos/montage_jjuck_61.55_52.95.jpg,left,0,0,0,0,,,,,0,3,3,3,,,,,,,,,0,0,0,0,0,1,1,1,,,,,,,,,,,,,,,,,,214.7654103570021,215.2807891840057,None,0,214.7654103570021,214.7654103570021,,,,,,,,,,,,,,,,,,,,,,,,,,,,,,,,,,,,,,,,,,,,,,,,,,,,,,,,,,,,,monicaD,001,d,2019_Oct_12_1252,Experimento,3.2.3,59.94334119487734,
8,14,14,999,0.5,0:10,3,Magenta,None,0,0,1,15:50,./completed_changuitos/montage_jjuck_61.55_52.95.jpg,left,0,0,0,0,,,,,0,3,3,3,,,,,,,,,0,0,0,0,0,2,2,2,,,,,,,,,,,,,,,,,,216.78124516599928,217.28090657600114,None,1,216.78124516599928,216.78124516599928,,,,,,,,,,,,,,,,,,,,,,,,,,,,,,,,,,,,,,,,,,,,,,,,,,,,,,,,,,,,,monicaD,001,d,2019_Oct_12_1252,Experimento,3.2.3,59.94334119487734,
8,14,14,999,0.5,0:10,3,Cyan,None,0,0,1,15:50,./completed_changuitos/montage_jjuck_61.55_52.95.jpg,left,0,0,0,0,,,,,0,3,3,3,,,,,,,,,0,0,0,0,0,3,3,3,,,,,,,,,,,,,,,,,,218.78124292000575,219.28075422800612,None,1,218.78124292000575,218.78124292000575,,,,,,,,,,,,,,,,,,,,,,,,,,,,,,,,,,,,,,,,,,,,,,,,,,,,,,,,,,,,,monicaD,001,d,2019_Oct_12_1252,Experimento,3.2.3,59.94334119487734,
8,14,14,999,0.5,0:10,3,Blue,None,0,0,1,15:50,./completed_changuitos/montage_jjuck_61.55_52.95.jpg,left,0,0,0,0,,,,,0,3,3,3,,,,,,,,,0,0,0,0,0,4,4,4,,,,,,,,,,,,,,,,,,220.7812316540003,221.28087283200148,None,1,220.7812316540003,220.7812316540003,,,,,,,,,,,,,,,,,,,,,,,,,,,,,,,,,,,,,,,,,,,,,,,,,,,,,,,,,,,,,monicaD,001,d,2019_Oct_12_1252,Experimento,3.2.3,59.94334119487734,
8,14,14,999,0.5,0:10,3,Magenta,None,0,0,1,15:50,./completed_changuitos/montage_jjuck_61.55_52.95.jpg,left,0,0,0,0,,,,,0,3,3,3,,,,,,,,,0,0,0,0,0,5,5,5,,,,,,,,,,,,,,,,,,222.7816632940012,223.29754162600148,None,1,222.7816632940012,222.7816632940012,,,,,,,,,,,,,,,,,,,,,,,,,,,,,,,,,,,,,,,,,,,,,,,,,,,,,,,,,,,,,monicaD,001,d,2019_Oct_12_1252,Experimento,3.2.3,59.94334119487734,
8,14,14,999,0.5,0:10,3,Blue,['space'],0,0,1,15:50,./completed_changuitos/montage_jjuck_61.55_52.95.jpg,left,0,0,0,0,,,,,0,3,3,3,,,,,,,,,0,0,0,0,0,6,6,6,,,,,,,,,,,,,,,,,,224.781604874006,225.28054096599953,['return'],0,224.781604874006,224.781604874006,[0.8994053690039436],,,,,,,,,,,,,,,,,,,,,,,,,,,,,,,,,,,,,,,,,,,,,,,,,,,,,,,,,,,,monicaD,001,d,2019_Oct_12_1252,Experimento,3.2.3,59.94334119487734,
8,14,14,999,0.5,0:10,3,Cyan,None,0,0,1,15:50,./completed_changuitos/montage_jjuck_61.55_52.95.jpg,left,0,0,0,0,,,,,0,3,3,3,,,,,,,,,0,0,0,0,0,7,7,7,,,,,,,,,,,,,,,,,,226.73079827520488,None,None,1,226.73079827520488,None,,,,,,,,,,,,,,,,,,,,,,,,,,,,,,,,,,,,,,,,,,,,,,,,,,,,,,,,,,,,,monicaD,001,d,2019_Oct_12_1252,Experimento,3.2.3,59.94334119487734,
8,14,14,999,0.5,0:10,3,Yellow,None,0,0,1,15:50,./completed_changuitos/montage_jjuck_61.55_52.95.jpg,left,0,0,0,0,,,,,0,3,3,3,,,,,,,,,0,0,0,0,0,8,8,8,,,,,,,,,,,,,,,,,,226.73079827520488,None,None,1,226.73079827520488,None,,,,,,,,,,,,,,,,,,,,,,,,,,,,,,,,,,,,,,,,,,,,,,,,,,,,,,,,,,,,,monicaD,001,d,2019_Oct_12_1252,Experimento,3.2.3,59.94334119487734,
8,14,14,999,0.5,0:10,3,Cyan,None,0,0,1,15:50,./completed_changuitos/montage_jjuck_61.55_52.95.jpg,left,0,0,0,0,,,,,0,3,3,3,,,,,,,,,0,0,0,0,0,9,9,9,,,,,,,,,,,,,,,,,,226.73079827520488,None,None,1,226.73079827520488,None,,,,,,,,,,,,,,,,,,,,,,,,,,,,,,,,,,,,,,,,,,,,,,,,,,,,,,,,,,,,,monicaD,001,d,2019_Oct_12_1252,Experimento,3.2.3,59.94334119487734,
8,14,14,999,0.5,0:10,3,Blue,None,0,0,1,15:50,./completed_changuitos/montage_jjuck_61.55_52.95.jpg,left,0,0,0,0,,,,,0,3,3,3,,,,,,,,,0,0,0,0,0,10,10,10,,,,,,,,,,,,,,,,,,226.73079827520488,None,None,1,226.73079827520488,None,,,,,,,,,,,,,,,,,,,,,,,,,,,,,,,,,,,,,,,,,,,,,,,,,,,,,,,,,,,,,monicaD,001,d,2019_Oct_12_1252,Experimento,3.2.3,59.94334119487734,
8,14,14,999,0.5,0:10,3,Cyan,['space'],0,0,1,15:50,./completed_changuitos/montage_jjuck_61.55_52.95.jpg,left,0,0,0,0,,,,,0,3,3,3,,,,,,,,,0,0,0,0,0,11,11,11,,,,,,,,,,,,,,,,,,226.73079827520488,None,None,0,226.73079827520488,None,,,,,,,,,,,,,,,,,,,,,,,,,,,,,,,,,,,,,,,,,,,,,,,,,,,,,,,,,,,,,monicaD,001,d,2019_Oct_12_1252,Experimento,3.2.3,59.94334119487734,
8,14,14,999,0.5,0:10,3,Magenta,None,0,0,1,15:50,./completed_changuitos/montage_jjuck_61.55_52.95.jpg,left,0,0,0,0,,,,,0,3,3,3,,,,,,,,,0,0,0,0,0,12,12,12,,,,,,,,,,,,,,,,,,226.73079827520488,None,None,1,226.73079827520488,None,,,,,,,,,,,,,,,,,,,,,,,,,,,,,,,,,,,,,,,,,,,,,,,,,,,,,,,,,,,,,monicaD,001,d,2019_Oct_12_1252,Experimento,3.2.3,59.94334119487734,
8,14,14,999,0.5,0:10,3,Red,None,0,0,1,15:50,./completed_changuitos/montage_jjuck_61.55_52.95.jpg,left,0,0,0,0,,,,,0,3,3,3,,,,,,,,,0,0,0,0,0,13,13,13,,,,,,,,,,,,,,,,,,226.73079827520488,None,None,1,226.73079827520488,None,,,,,,,,,,,,,,,,,,,,,,,,,,,,,,,,,,,,,,,,,,,,,,,,,,,,,,,,,,,,,monicaD,001,d,2019_Oct_12_1252,Experimento,3.2.3,59.94334119487734,
8,14,14,999,0.5,0:10,3,Magenta,['space'],0,0,1,15:50,./completed_changuitos/montage_jjuck_61.55_52.95.jpg,left,0,0,0,0,,,,,0,3,3,3,,,,,,,,,0,0,0,0,0,14,14,14,,,,,,,,,,,,,,,,,,226.74743412240497,None,None,0,226.74743412240497,None,,,,,,,,,,,,,,,,,,,,,,,,,,,,,,,,,,,,,,,,,,,,,,,,,,,,,,,,,,,,,monicaD,001,d,2019_Oct_12_1252,Experimento,3.2.3,59.94334119487734,
8,14,14,999,0.5,0:10,3,Green,None,0,0,1,15:50,./completed_changuitos/montage_jjuck_61.55_52.95.jpg,left,0,0,0,0,,,,,0,3,3,3,,,,,,,,,0,0,0,0,0,15,15,15,,,,,,,,,,,,,,,,,,226.74743412240497,None,None,1,226.74743412240497,None,,,,,,,,,,,,,,,,,,,,,,,,,,,,,,,,,,,,,,,,,,,,,,,,,,,,,,,,,,,,,monicaD,001,d,2019_Oct_12_1252,Experimento,3.2.3,59.94334119487734,
8,14,14,999,0.5,0:10,3,Yellow,['space'],0,0,1,15:50,./completed_changuitos/montage_jjuck_61.55_52.95.jpg,left,0,0,0,0,,,,,0,3,3,3,,,,,,,,,0,0,0,0,0,16,16,16,,,,,,,,,,,,,,,,,,226.74743412240497,None,None,0,226.74743412240497,None,,,,,,,,,,,,,,,,,,,,,,,,,,,,,,,,,,,,,,,,,,,,,,,,,,,,,,,,,,,,,monicaD,001,d,2019_Oct_12_1252,Experimento,3.2.3,59.94334119487734,
8,14,14,999,0.5,0:10,3,Blue,None,0,0,1,15:50,./completed_changuitos/montage_jjuck_61.55_52.95.jpg,left,0,0,0,0,,,,,0,3,3,3,,,,,,,,,0,0,0,0,0,17,17,17,,,,,,,,,,,,,,,,,,226.74743412240497,None,None,1,226.74743412240497,None,,,,,,,,,,,,,,,,,,,,,,,,,,,,,,,,,,,,,,,,,,,,,,,,,,,,,,,,,,,,,monicaD,001,d,2019_Oct_12_1252,Experimento,3.2.3,59.94334119487734,
8,14,14,999,0.5,0:10,3,Cyan,None,0,0,1,15:50,./completed_changuitos/montage_jjuck_61.55_52.95.jpg,left,0,0,0,0,,,,,0,3,3,3,,,,,,,,,0,0,0,0,0,18,18,18,,,,,,,,,,,,,,,,,,226.74743412240497,None,None,1,226.74743412240497,None,,,,,,,,,,,,,,,,,,,,,,,,,,,,,,,,,,,,,,,,,,,,,,,,,,,,,,,,,,,,,monicaD,001,d,2019_Oct_12_1252,Experimento,3.2.3,59.94334119487734,
8,14,14,999,0.5,0:10,3,Blue,['space'],0,0,1,15:50,./completed_changuitos/montage_jjuck_61.55_52.95.jpg,left,0,0,0,0,,,,,0,3,3,3,,,,,,,,,0,0,0,0,0,19,19,19,,,,,,,,,,,,,,,,,,226.74743412240497,None,None,0,226.74743412240497,None,,,,,,,,,,,,,,,,,,,,,,,,,,,,,,,,,,,,,,,,,,,,,,,,,,,,,,,,,,,,,monicaD,001,d,2019_Oct_12_1252,Experimento,3.2.3,59.94334119487734,
8,14,14,999,0.5,0:10,3,Yellow,None,0,0,1,15:50,./completed_changuitos/montage_jjuck_61.55_52.95.jpg,left,0,0,0,0,,,,,0,3,3,3,,,,,,,,,0,0,0,0,0,20,20,20,,,,,,,,,,,,,,,,,,226.74743412240497,None,None,1,226.74743412240497,None,,,,,,,,,,,,,,,,,,,,,,,,,,,,,,,,,,,,,,,,,,,,,,,,,,,,,,,,,,,,,monicaD,001,d,2019_Oct_12_1252,Experimento,3.2.3,59.94334119487734,
8,14,14,999,0.5,0:10,3,Cyan,None,0,0,1,15:50,./completed_changuitos/montage_jjuck_61.55_52.95.jpg,left,0,0,0,0,,,,,0,3,3,3,,,,,,,,,0,0,0,0,0,21,21,21,,,,,,,,,,,,,,,,,,226.74743412240497,None,None,1,226.74743412240497,None,,,,,,,,,,,,,,,,,,,,,,,,,,,,,,,,,,,,,,,,,,,,,,,,,,,,,,,,,,,,,monicaD,001,d,2019_Oct_12_1252,Experimento,3.2.3,59.94334119487734,
8,14,14,999,0.5,0:10,3,Yellow,['space'],0,0,1,15:50,./completed_changuitos/montage_jjuck_61.55_52.95.jpg,left,0,0,0,0,,,,,0,3,3,3,,,,,,,,,0,0,0,0,0,22,22,22,,,,,,,,,,,,,,,,,,226.74743412240497,None,None,0,226.74743412240497,None,,,,,,,,,,,,,,,,,,,,,,,,,,,,,,,,,,,,,,,,,,,,,,,,,,,,,,,,,,,,,monicaD,001,d,2019_Oct_12_1252,Experimento,3.2.3,59.94334119487734,
8,14,14,999,0.5,0:10,3,Magenta,None,0,0,1,15:50,./completed_changuitos/montage_jjuck_61.55_52.95.jpg,left,0,0,0,0,,,,,0,3,3,3,,,,,,,,,0,0,0,0,0,23,23,23,,,,,,,,,,,,,,,,,,226.74743412240497,None,None,1,226.74743412240497,None,,,,,,,,,,,,,,,,,,,,,,,,,,,,,,,,,,,,,,,,,,,,,,,,,,,,,,,,,,,,,monicaD,001,d,2019_Oct_12_1252,Experimento,3.2.3,59.94334119487734,
8,14,14,999,0.5,0:10,3,Red,None,0,0,1,15:50,./completed_changuitos/montage_jjuck_61.55_52.95.jpg,left,0,0,0,0,,,,,0,3,3,3,,,,,,,,,0,0,0,0,0,24,24,24,,,,,,,,,,,,,,,,,,226.74743412240497,None,None,1,226.74743412240497,None,,,,,,,,,,,,,,,,,,,,,,,,,,,,,,,,,,,,,,,,,,,,,,,,,,,,,,,,,,,,,monicaD,001,d,2019_Oct_12_1252,Experimento,3.2.3,59.94334119487734,
8,14,14,999,0.5,0:10,3,Magenta,['space'],0,0,1,15:50,./completed_changuitos/montage_jjuck_61.55_52.95.jpg,left,0,0,0,0,,,,,0,3,3,3,,,,,,,,,0,0,0,0,0,25,25,25,,,,,,,,,,,,,,,,,,226.76406996960506,None,None,0,226.76406996960506,None,,,,,,,,,,,,,,,,,,,,,,,,,,,,,,,,,,,,,,,,,,,,,,,,,,,,,,,,,,,,,monicaD,001,d,2019_Oct_12_1252,Experimento,3.2.3,59.94334119487734,
8,14,14,999,0.5,0:10,3,Red,['space'],0,0,1,15:50,./completed_changuitos/montage_jjuck_61.55_52.95.jpg,left,0,0,0,0,,,,,0,3,3,3,,,,,,,,,0,0,0,0,0,26,26,26,,,,,,,,,,,,,,,,,,226.76406996960506,None,None,0,226.76406996960506,None,,,,,,,,,,,,,,,,,,,,,,,,,,,,,,,,,,,,,,,,,,,,,,,,,,,,,,,,,,,,,monicaD,001,d,2019_Oct_12_1252,Experimento,3.2.3,59.94334119487734,
8,14,14,999,0.5,0:10,3,Yellow,None,0,0,1,15:50,./completed_changuitos/montage_jjuck_61.55_52.95.jpg,left,0,0,0,0,,,,,0,3,3,3,,,,,,,,,0,0,0,0,0,27,27,27,,,,,,,,,,,,,,,,,,226.76406996960506,None,None,1,226.76406996960506,None,,,,,,,,,,,,,,,,,,,,,,,,,,,,,,,,,,,,,,,,,,,,,,,,,,,,,,,,,,,,,monicaD,001,d,2019_Oct_12_1252,Experimento,3.2.3,59.94334119487734,
8,14,14,999,0.5,0:10,3,Cyan,None,0,0,1,15:50,./completed_changuitos/montage_jjuck_61.55_52.95.jpg,left,0,0,0,0,,,,,0,3,3,3,,,,,,,,,0,0,0,0,0,28,28,28,,,,,,,,,,,,,,,,,,226.76406996960506,None,None,1,226.76406996960506,None,,,,,,,,,,,,,,,,,,,,,,,,,,,,,,,,,,,,,,,,,,,,,,,,,,,,,,,,,,,,,monicaD,001,d,2019_Oct_12_1252,Experimento,3.2.3,59.94334119487734,
8,14,14,999,0.5,0:10,3,Green,None,0,0,1,15:50,./completed_changuitos/montage_jjuck_61.55_52.95.jpg,left,0,0,0,0,,,,,0,3,3,3,,,,,,,,,0,0,0,0,0,29,29,29,,,,,,,,,,,,,,,,,,226.76406996960506,None,None,1,226.76406996960506,None,,,,,,,,,,,,,,,,,,,,,,,,,,,,,,,,,,,,,,,,,,,,,,,,,,,,,,,,,,,,,monicaD,001,d,2019_Oct_12_1252,Experimento,3.2.3,59.94334119487734,
8,14,14,999,0.5,0:10,3,White,None,0,0,1,15:50,./completed_changuitos/montage_jjuck_61.55_52.95.jpg,left,0,0,0,0,,,,,0,3,3,3,,,,,,,,,0,0,0,0,0,30,30,30,,,,,,,,,,,,,,,,,,226.76406996960506,None,None,1,226.76406996960506,None,,,,,,,,,,,,,,,,,,,,,,,,,,,,,,,,,,,,,,,,,,,,,,,,,,,,,,,,,,,,,monicaD,001,d,2019_Oct_12_1252,Experimento,3.2.3,59.94334119487734,
8,14,14,999,0.5,0:10,3,Green,['space'],0,0,1,15:50,./completed_changuitos/montage_jjuck_61.55_52.95.jpg,left,0,0,0,0,,,,,0,3,3,3,,,,,,,,,0,0,0,0,0,31,31,31,,,,,,,,,,,,,,,,,,226.76406996960506,None,None,0,226.76406996960506,None,,,,,,,,,,,,,,,,,,,,,,,,,,,,,,,,,,,,,,,,,,,,,,,,,,,,,,,,,,,,,monicaD,001,d,2019_Oct_12_1252,Experimento,3.2.3,59.94334119487734,
8,14,14,999,0.5,0:10,3,Red,None,0,0,1,15:50,./completed_changuitos/montage_jjuck_61.55_52.95.jpg,left,0,0,0,0,,,,,0,3,3,3,,,,,,,,,0,0,0,0,0,32,32,32,,,,,,,,,,,,,,,,,,226.76406996960506,None,None,1,226.76406996960506,None,,,,,,,,,,,,,,,,,,,,,,,,,,,,,,,,,,,,,,,,,,,,,,,,,,,,,,,,,,,,,monicaD,001,d,2019_Oct_12_1252,Experimento,3.2.3,59.94334119487734,
8,14,14,999,0.5,0:10,3,Blue,None,0,0,1,15:50,./completed_changuitos/montage_jjuck_61.55_52.95.jpg,left,0,0,0,0,,,,,0,3,3,3,,,,,,,,,0,0,0,0,0,33,33,33,,,,,,,,,,,,,,,,,,226.76406996960506,None,None,1,226.76406996960506,None,,,,,,,,,,,,,,,,,,,,,,,,,,,,,,,,,,,,,,,,,,,,,,,,,,,,,,,,,,,,,monicaD,001,d,2019_Oct_12_1252,Experimento,3.2.3,59.94334119487734,
8,14,14,999,0.5,0:10,3,Green,None,0,0,1,15:50,./completed_changuitos/montage_jjuck_61.55_52.95.jpg,left,0,0,0,0,,,,,0,3,3,3,,,,,,,,,0,0,0,0,0,34,34,34,,,,,,,,,,,,,,,,,,226.76406996960506,None,None,1,226.76406996960506,None,,,,,,,,,,,,,,,,,,,,,,,,,,,,,,,,,,,,,,,,,,,,,,,,,,,,,,,,,,,,,monicaD,001,d,2019_Oct_12_1252,Experimento,3.2.3,59.94334119487734,
8,14,14,999,0.5,0:10,3,,,0,0,1,15:50,./completed_changuitos/montage_jjuck_61.55_52.95.jpg,left,0,0,0,0,,,,,0,3,3,3,,,,,,,,,0,0,0,0,,,,,,,,,,,,,,,,,,,,,,,,,,,,,226.86461856600363,None,right,0,3.3244331110036,226.86461856600363,None,226.86461856600363,229.88014410000324,,,,,,,,,,,,,,,,,,,,,,,,,,,,,,,,,,,,,,,,,,,,,,,,,,,monicaD,001,d,2019_Oct_12_1252,Experimento,3.2.3,59.94334119487734,
8,14,14,999,0.5,0:10,3,,,0,0,1,15:50,,,0,0,0,0,,,,,0,3,3,3,,,,,,,,,,,,,,,,,,,,,,,,,,,,,,,,,,,,,,,,,,,,,,,,,,,,,,,,,,,,,,,,,,,,,,,,,,,,,,,,,,,,,,,,,,,,,,,,,,,,monicaD,001,d,2019_Oct_12_1252,Experimento,3.2.3,59.94334119487734,
8,14,14,999,0.5,0:10,3,,,0,1,0,10:50,./completed_changuitos/montage_ecnrg_128.49_150.79.jpg,right,0,0,0,0,,,,,0,4,4,4,,,,,0,0,0,0,,,,,,,,,,,,,,,,,,,,,,,,,,,,,,,,,,,,,,,,,,230.46449379000114,232.39850280800601,232.39850280800601,240.41268551300163,240.41268551300163,254.4134997660003,left,0,1.2640348959976109,254.4134997660003,None,254.4134997660003,None,254.4134997660003,None,,,,,,,,,,,,,,,,,,,,,,,,,,,,,,,,,,,,monicaD,001,d,2019_Oct_12_1252,Experimento,3.2.3,59.94334119487734,
8,14,14,999,0.5,0:10,3,,,0,1,0,10:50,,,0,0,0,0,,,,,0,4,4,4,,,,,,,,,,,,,,,,,,,,,,,,,,,,,,,,,,,,,,,,,,,,,,,,,,,,,,,,,,,,,,,,,,,,,,,,,,,,,,,,,,,,,,,,,,,,,,,,,,,,monicaD,001,d,2019_Oct_12_1252,Experimento,3.2.3,59.94334119487734,
8,14,14,999,0.5,0:10,3,Red,None,0,0,1,28:50,./completed_changuitos/montage_htjas_247.19_283.55.jpg,right,0,0,0,0,,,,,0,5,5,5,,,,,,,,,0,0,0,0,0,0,0,0,,,,,,,,,,,,,,255.91668967900478,260.283273275003,260.283273275003,None,268.3293795050049,268.8294939930056,None,1,268.3293795050049,None,,,,,,,,,,,,,,,,,,,,,,,,,,,,,,,,,,,,,,,,,,,,,,,,,,,,,,,,,,,,,monicaD,001,d,2019_Oct_12_1252,Experimento,3.2.3,59.94334119487734,
8,14,14,999,0.5,0:10,3,Magenta,['space'],0,0,1,28:50,./completed_changuitos/montage_htjas_247.19_283.55.jpg,right,0,0,0,0,,,,,0,5,5,5,,,,,,,,,0,0,0,0,0,1,1,1,,,,,,,,,,,,,,,,,,270.32983307900577,270.82961422700464,None,0,270.32983307900577,270.32983307900577,,,,,,,,,,,,,,,,,,,,,,,,,,,,,,,,,,,,,,,,,,,,,,,,,,,,,,,,,,,,,monicaD,001,d,2019_Oct_12_1252,Experimento,3.2.3,59.94334119487734,
8,14,14,999,0.5,0:10,3,Green,None,0,0,1,28:50,./completed_changuitos/montage_htjas_247.19_283.55.jpg,right,0,0,0,0,,,,,0,5,5,5,,,,,,,,,0,0,0,0,0,2,2,2,,,,,,,,,,,,,,,,,,272.329394321001,272.8296038469998,None,1,272.329394321001,272.329394321001,,,,,,,,,,,,,,,,,,,,,,,,,,,,,,,,,,,,,,,,,,,,,,,,,,,,,,,,,,,,,monicaD,001,d,2019_Oct_12_1252,Experimento,3.2.3,59.94334119487734,
8,14,14,999,0.5,0:10,3,Yellow,['space'],0,0,1,28:50,./completed_changuitos/montage_htjas_247.19_283.55.jpg,right,0,0,0,0,,,,,0,5,5,5,,,,,,,,,0,0,0,0,0,3,3,3,,,,,,,,,,,,,,,,,,274.3293167380034,274.82949630200164,None,0,274.3293167380034,274.3293167380034,,,,,,,,,,,,,,,,,,,,,,,,,,,,,,,,,,,,,,,,,,,,,,,,,,,,,,,,,,,,,monicaD,001,d,2019_Oct_12_1252,Experimento,3.2.3,59.94334119487734,
8,14,14,999,0.5,0:10,3,Blue,None,0,0,1,28:50,./completed_changuitos/montage_htjas_247.19_283.55.jpg,right,0,0,0,0,,,,,0,5,5,5,,,,,,,,,0,0,0,0,0,4,4,4,,,,,,,,,,,,,,,,,,276.32921723800246,276.8294766340041,None,1,276.32921723800246,276.32921723800246,,,,,,,,,,,,,,,,,,,,,,,,,,,,,,,,,,,,,,,,,,,,,,,,,,,,,,,,,,,,,monicaD,001,d,2019_Oct_12_1252,Experimento,3.2.3,59.94334119487734,
8,14,14,999,0.5,0:10,3,Cyan,None,0,0,1,28:50,./completed_changuitos/montage_htjas_247.19_283.55.jpg,right,0,0,0,0,,,,,0,5,5,5,,,,,,,,,0,0,0,0,0,5,5,5,,,,,,,,,,,,,,,,,,278.32903745600197,278.8294975290046,None,1,278.32903745600197,278.32903745600197,,,,,,,,,,,,,,,,,,,,,,,,,,,,,,,,,,,,,,,,,,,,,,,,,,,,,,,,,,,,,monicaD,001,d,2019_Oct_12_1252,Experimento,3.2.3,59.94334119487734,
8,14,14,999,0.5,0:10,3,Blue,['space'],0,0,1,28:50,./completed_changuitos/montage_htjas_247.19_283.55.jpg,right,0,0,0,0,,,,,0,5,5,5,,,,,,,,,0,0,0,0,0,6,6,6,,,,,,,,,,,,,,,,,,280.329644467005,280.8294429410016,['return'],0,280.329644467005,280.329644467005,[0.6797692729960545],,,,,,,,,,,,,,,,,,,,,,,,,,,,,,,,,,,,,,,,,,,,,,,,,,,,,,,,,,,,monicaD,001,d,2019_Oct_12_1252,Experimento,3.2.3,59.94334119487734,
8,14,14,999,0.5,0:10,3,Yellow,None,0,0,1,28:50,./completed_changuitos/montage_htjas_247.19_283.55.jpg,right,0,0,0,0,,,,,0,5,5,5,,,,,,,,,0,0,0,0,0,7,7,7,,,,,,,,,,,,,,,,,,282.29605179419957,None,None,1,282.29605179419957,None,,,,,,,,,,,,,,,,,,,,,,,,,,,,,,,,,,,,,,,,,,,,,,,,,,,,,,,,,,,,,monicaD,001,d,2019_Oct_12_1252,Experimento,3.2.3,59.94334119487734,
8,14,14,999,0.5,0:10,3,Cyan,None,0,0,1,28:50,./completed_changuitos/montage_htjas_247.19_283.55.jpg,right,0,0,0,0,,,,,0,5,5,5,,,,,,,,,0,0,0,0,0,8,8,8,,,,,,,,,,,,,,,,,,282.29605179419957,None,None,1,282.29605179419957,None,,,,,,,,,,,,,,,,,,,,,,,,,,,,,,,,,,,,,,,,,,,,,,,,,,,,,,,,,,,,,monicaD,001,d,2019_Oct_12_1252,Experimento,3.2.3,59.94334119487734,
8,14,14,999,0.5,0:10,3,Yellow,['space'],0,0,1,28:50,./completed_changuitos/montage_htjas_247.19_283.55.jpg,right,0,0,0,0,,,,,0,5,5,5,,,,,,,,,0,0,0,0,0,9,9,9,,,,,,,,,,,,,,,,,,282.29605179419957,None,None,0,282.29605179419957,None,,,,,,,,,,,,,,,,,,,,,,,,,,,,,,,,,,,,,,,,,,,,,,,,,,,,,,,,,,,,,monicaD,001,d,2019_Oct_12_1252,Experimento,3.2.3,59.94334119487734,
8,14,14,999,0.5,0:10,3,Magenta,None,0,0,1,28:50,./completed_changuitos/montage_htjas_247.19_283.55.jpg,right,0,0,0,0,,,,,0,5,5,5,,,,,,,,,0,0,0,0,0,10,10,10,,,,,,,,,,,,,,,,,,282.29605179419957,None,None,1,282.29605179419957,None,,,,,,,,,,,,,,,,,,,,,,,,,,,,,,,,,,,,,,,,,,,,,,,,,,,,,,,,,,,,,monicaD,001,d,2019_Oct_12_1252,Experimento,3.2.3,59.94334119487734,
8,14,14,999,0.5,0:10,3,Red,None,0,0,1,28:50,./completed_changuitos/montage_htjas_247.19_283.55.jpg,right,0,0,0,0,,,,,0,5,5,5,,,,,,,,,0,0,0,0,0,11,11,11,,,,,,,,,,,,,,,,,,282.29605179419957,None,None,1,282.29605179419957,None,,,,,,,,,,,,,,,,,,,,,,,,,,,,,,,,,,,,,,,,,,,,,,,,,,,,,,,,,,,,,monicaD,001,d,2019_Oct_12_1252,Experimento,3.2.3,59.94334119487734,
8,14,14,999,0.5,0:10,3,Magenta,['space'],0,0,1,28:50,./completed_changuitos/montage_htjas_247.19_283.55.jpg,right,0,0,0,0,,,,,0,5,5,5,,,,,,,,,0,0,0,0,0,12,12,12,,,,,,,,,,,,,,,,,,282.29605179419957,None,None,0,282.29605179419957,None,,,,,,,,,,,,,,,,,,,,,,,,,,,,,,,,,,,,,,,,,,,,,,,,,,,,,,,,,,,,,monicaD,001,d,2019_Oct_12_1252,Experimento,3.2.3,59.94334119487734,
8,14,14,999,0.5,0:10,3,Red,['space'],0,0,1,28:50,./completed_changuitos/montage_htjas_247.19_283.55.jpg,right,0,0,0,0,,,,,0,5,5,5,,,,,,,,,0,0,0,0,0,13,13,13,,,,,,,,,,,,,,,,,,282.31268764139963,None,None,0,282.31268764139963,None,,,,,,,,,,,,,,,,,,,,,,,,,,,,,,,,,,,,,,,,,,,,,,,,,,,,,,,,,,,,,monicaD,001,d,2019_Oct_12_1252,Experimento,3.2.3,59.94334119487734,
8,14,14,999,0.5,0:10,3,Yellow,None,0,0,1,28:50,./completed_changuitos/montage_htjas_247.19_283.55.jpg,right,0,0,0,0,,,,,0,5,5,5,,,,,,,,,0,0,0,0,0,14,14,14,,,,,,,,,,,,,,,,,,282.31268764139963,None,None,1,282.31268764139963,None,,,,,,,,,,,,,,,,,,,,,,,,,,,,,,,,,,,,,,,,,,,,,,,,,,,,,,,,,,,,,monicaD,001,d,2019_Oct_12_1252,Experimento,3.2.3,59.94334119487734,
8,14,14,999,0.5,0:10,3,Cyan,None,0,0,1,28:50,./completed_changuitos/montage_htjas_247.19_283.55.jpg,right,0,0,0,0,,,,,0,5,5,5,,,,,,,,,0,0,0,0,0,15,15,15,,,,,,,,,,,,,,,,,,282.31268764139963,None,None,1,282.31268764139963,None,,,,,,,,,,,,,,,,,,,,,,,,,,,,,,,,,,,,,,,,,,,,,,,,,,,,,,,,,,,,,monicaD,001,d,2019_Oct_12_1252,Experimento,3.2.3,59.94334119487734,
8,14,14,999,0.5,0:10,3,Green,None,0,0,1,28:50,./completed_changuitos/montage_htjas_247.19_283.55.jpg,right,0,0,0,0,,,,,0,5,5,5,,,,,,,,,0,0,0,0,0,16,16,16,,,,,,,,,,,,,,,,,,282.31268764139963,None,None,1,282.31268764139963,None,,,,,,,,,,,,,,,,,,,,,,,,,,,,,,,,,,,,,,,,,,,,,,,,,,,,,,,,,,,,,monicaD,001,d,2019_Oct_12_1252,Experimento,3.2.3,59.94334119487734,
8,14,14,999,0.5,0:10,3,White,None,0,0,1,28:50,./completed_changuitos/montage_htjas_247.19_283.55.jpg,right,0,0,0,0,,,,,0,5,5,5,,,,,,,,,0,0,0,0,0,17,17,17,,,,,,,,,,,,,,,,,,282.31268764139963,None,None,1,282.31268764139963,None,,,,,,,,,,,,,,,,,,,,,,,,,,,,,,,,,,,,,,,,,,,,,,,,,,,,,,,,,,,,,monicaD,001,d,2019_Oct_12_1252,Experimento,3.2.3,59.94334119487734,
8,14,14,999,0.5,0:10,3,Green,['space'],0,0,1,28:50,./completed_changuitos/montage_htjas_247.19_283.55.jpg,right,0,0,0,0,,,,,0,5,5,5,,,,,,,,,0,0,0,0,0,18,18,18,,,,,,,,,,,,,,,,,,282.31268764139963,None,None,0,282.31268764139963,None,,,,,,,,,,,,,,,,,,,,,,,,,,,,,,,,,,,,,,,,,,,,,,,,,,,,,,,,,,,,,monicaD,001,d,2019_Oct_12_1252,Experimento,3.2.3,59.94334119487734,
8,14,14,999,0.5,0:10,3,Red,None,0,0,1,28:50,./completed_changuitos/montage_htjas_247.19_283.55.jpg,right,0,0,0,0,,,,,0,5,5,5,,,,,,,,,0,0,0,0,0,19,19,19,,,,,,,,,,,,,,,,,,282.31268764139963,None,None,1,282.31268764139963,None,,,,,,,,,,,,,,,,,,,,,,,,,,,,,,,,,,,,,,,,,,,,,,,,,,,,,,,,,,,,,monicaD,001,d,2019_Oct_12_1252,Experimento,3.2.3,59.94334119487734,
8,14,14,999,0.5,0:10,3,Blue,None,0,0,1,28:50,./completed_changuitos/montage_htjas_247.19_283.55.jpg,right,0,0,0,0,,,,,0,5,5,5,,,,,,,,,0,0,0,0,0,20,20,20,,,,,,,,,,,,,,,,,,282.31268764139963,None,None,1,282.31268764139963,None,,,,,,,,,,,,,,,,,,,,,,,,,,,,,,,,,,,,,,,,,,,,,,,,,,,,,,,,,,,,,monicaD,001,d,2019_Oct_12_1252,Experimento,3.2.3,59.94334119487734,
8,14,14,999,0.5,0:10,3,Green,None,0,0,1,28:50,./completed_changuitos/montage_htjas_247.19_283.55.jpg,right,0,0,0,0,,,,,0,5,5,5,,,,,,,,,0,0,0,0,0,21,21,21,,,,,,,,,,,,,,,,,,282.31268764139963,None,None,1,282.31268764139963,None,,,,,,,,,,,,,,,,,,,,,,,,,,,,,,,,,,,,,,,,,,,,,,,,,,,,,,,,,,,,,monicaD,001,d,2019_Oct_12_1252,Experimento,3.2.3,59.94334119487734,
8,14,14,999,0.5,0:10,3,,,0,0,1,28:50,./completed_changuitos/montage_htjas_247.19_283.55.jpg,right,0,0,0,0,,,,,0,5,5,5,,,,,,,,,0,0,0,0,,,,,,,,,,,,,,,,,,,,,,,,,,,,,282.4134612640046,None,left,0,2.074611700998503,282.4134612640046,None,282.4134612640046,None,,,,,,,,,,,,,,,,,,,,,,,,,,,,,,,,,,,,,,,,,,,,,,,,,,,monicaD,001,d,2019_Oct_12_1252,Experimento,3.2.3,59.94334119487734,
8,14,14,999,0.5,0:10,3,,,0,0,1,28:50,,,0,0,0,0,,,,,0,5,5,5,,,,,,,,,,,,,,,,,,,,,,,,,,,,,,,,,,,,,,,,,,,,,,,,,,,,,,,,,,,,,,,,,,,,,,,,,,,,,,,,,,,,,,,,,,,,,,,,,,,,monicaD,001,d,2019_Oct_12_1252,Experimento,3.2.3,59.94334119487734,
8,14,14,999,0.5,0:10,3,,,0,1,0,19:50,./completed_changuitos/montage_jpitt_245.69_285.72.jpg,right,0,0,0,0,,,,,0,6,6,6,,,,,0,0,0,0,,,,,,,,,,,,,,,,,,,,,,,,,,,,,,,,,,,,,,,,,,284.78133200400043,286.34746457800065,286.34746457800065,294.3621938060023,294.3621938060023,308.36244237800565,left,0,1.804908506994252,308.36244237800565,None,308.36244237800565,None,308.36244237800565,None,,,,,,,,,,,,,,,,,,,,,,,,,,,,,,,,,,,,monicaD,001,d,2019_Oct_12_1252,Experimento,3.2.3,59.94334119487734,
8,14,14,999,0.5,0:10,3,,,0,1,0,19:50,,,0,0,0,0,,,,,0,6,6,6,,,,,,,,,,,,,,,,,,,,,,,,,,,,,,,,,,,,,,,,,,,,,,,,,,,,,,,,,,,,,,,,,,,,,,,,,,,,,,,,,,,,,,,,,,,,,,,,,,,,monicaD,001,d,2019_Oct_12_1252,Experimento,3.2.3,59.94334119487734,
8,14,14,999,0.5,0:10,3,,,0,1,0,19:50,./completed_changuitos/montage_styje_95.25_110.2.jpg,right,0,0,0,0,,,,,0,7,7,7,,,,,0,0,0,0,,,,,,,,,,,,,,,,,,,,,,,,,,,,,,,,,,,,,,,,,,310.4667280760041,315.7330118739992,315.7330118739992,323.74492467600066,323.74492467600066,337.74530974100344,right,1,1.403619222000998,337.74530974100344,None,337.74530974100344,None,337.74530974100344,None,,,,,,,,,,,,,,,,,,,,,,,,,,,,,,,,,,,,monicaD,001,d,2019_Oct_12_1252,Experimento,3.2.3,59.94334119487734,
8,14,14,999,0.5,0:10,3,,,0,1,0,19:50,,,0,0,0,0,,,,,0,7,7,7,,,,,,,,,,,,,,,,,,,,,,,,,,,,,,,,,,,,,,,,,,,,,,,,,,,,,,,,,,,,,,,,,,,,,,,,,,,,,,,,,,,,,,,,,,,,,,,,,,,,monicaD,001,d,2019_Oct_12_1252,Experimento,3.2.3,59.94334119487734,
8,14,14,999,0.5,0:10,3,Yellow,None,0,0,1,15:50,./completed_changuitos/montage_hpsmc_101.65_90.95.jpg,left,0,0,0,0,,,,,0,8,8,8,,,,,,,,,0,0,0,0,0,0,0,0,,,,,,,,,,,,,,339.39566570600437,342.2155689430001,342.2155689430001,None,350.24741294699925,350.7618708209993,None,1,350.24741294699925,None,,,,,,,,,,,,,,,,,,,,,,,,,,,,,,,,,,,,,,,,,,,,,,,,,,,,,,,,,,,,,monicaD,001,d,2019_Oct_12_1252,Experimento,3.2.3,59.94334119487734,
8,14,14,999,0.5,0:10,3,White,['space'],0,0,1,15:50,./completed_changuitos/montage_hpsmc_101.65_90.95.jpg,left,0,0,0,0,,,,,0,8,8,8,,,,,,,,,0,0,0,0,0,1,1,1,,,,,,,,,,,,,,,,,,352.2622611330007,352.761758698005,None,0,352.2622611330007,352.2622611330007,,,,,,,,,,,,,,,,,,,,,,,,,,,,,,,,,,,,,,,,,,,,,,,,,,,,,,,,,,,,,monicaD,001,d,2019_Oct_12_1252,Experimento,3.2.3,59.94334119487734,
8,14,14,999,0.5,0:10,3,Magenta,None,0,0,1,15:50,./completed_changuitos/montage_hpsmc_101.65_90.95.jpg,left,0,0,0,0,,,,,0,8,8,8,,,,,,,,,0,0,0,0,0,2,2,2,,,,,,,,,,,,,,,,,,354.26179873300134,354.76165566599957,None,1,354.26179873300134,354.26179873300134,,,,,,,,,,,,,,,,,,,,,,,,,,,,,,,,,,,,,,,,,,,,,,,,,,,,,,,,,,,,,monicaD,001,d,2019_Oct_12_1252,Experimento,3.2.3,59.94334119487734,
8,14,14,999,0.5,0:10,3,Cyan,None,0,0,1,15:50,./completed_changuitos/montage_hpsmc_101.65_90.95.jpg,left,0,0,0,0,,,,,0,8,8,8,,,,,,,,,0,0,0,0,0,3,3,3,,,,,,,,,,,,,,,,,,356.261477455002,356.7617630550012,None,1,356.261477455002,356.261477455002,,,,,,,,,,,,,,,,,,,,,,,,,,,,,,,,,,,,,,,,,,,,,,,,,,,,,,,,,,,,,monicaD,001,d,2019_Oct_12_1252,Experimento,3.2.3,59.94334119487734,
8,14,14,999,0.5,0:10,3,Blue,None,0,0,1,15:50,./completed_changuitos/montage_hpsmc_101.65_90.95.jpg,left,0,0,0,0,,,,,0,8,8,8,,,,,,,,,0,0,0,0,0,4,4,4,,,,,,,,,,,,,,,,,,358.2617830330055,358.76179184600187,None,1,358.2617830330055,358.2617830330055,,,,,,,,,,,,,,,,,,,,,,,,,,,,,,,,,,,,,,,,,,,,,,,,,,,,,,,,,,,,,monicaD,001,d,2019_Oct_12_1252,Experimento,3.2.3,59.94334119487734,
8,14,14,999,0.5,0:10,3,Magenta,None,0,0,1,15:50,./completed_changuitos/montage_hpsmc_101.65_90.95.jpg,left,0,0,0,0,,,,,0,8,8,8,,,,,,,,,0,0,0,0,0,5,5,5,,,,,,,,,,,,,,,,,,360.2614633580015,360.76163448000443,None,1,360.2614633580015,360.2614633580015,,,,,,,,,,,,,,,,,,,,,,,,,,,,,,,,,,,,,,,,,,,,,,,,,,,,,,,,,,,,,monicaD,001,d,2019_Oct_12_1252,Experimento,3.2.3,59.94334119487734,
8,14,14,999,0.5,0:10,3,Blue,['space'],0,0,1,15:50,./completed_changuitos/montage_hpsmc_101.65_90.95.jpg,left,0,0,0,0,,,,,0,8,8,8,,,,,,,,,0,0,0,0,0,6,6,6,,,,,,,,,,,,,,,,,,362.26177029099927,362.76148520000424,['return'],0,362.26177029099927,362.26177029099927,[0.9577908329956699],,,,,,,,,,,,,,,,,,,,,,,,,,,,,,,,,,,,,,,,,,,,,,,,,,,,,,,,,,,,monicaD,001,d,2019_Oct_12_1252,Experimento,3.2.3,59.94334119487734,
8,14,14,999,0.5,0:10,3,Cyan,None,0,0,1,15:50,./completed_changuitos/montage_hpsmc_101.65_90.95.jpg,left,0,0,0,0,,,,,0,8,8,8,,,,,,,,,0,0,0,0,0,7,7,7,,,,,,,,,,,,,,,,,,364.2449859741995,None,None,1,364.2449859741995,None,,,,,,,,,,,,,,,,,,,,,,,,,,,,,,,,,,,,,,,,,,,,,,,,,,,,,,,,,,,,,monicaD,001,d,2019_Oct_12_1252,Experimento,3.2.3,59.94334119487734,
8,14,14,999,0.5,0:10,3,Yellow,None,0,0,1,15:50,./completed_changuitos/montage_hpsmc_101.65_90.95.jpg,left,0,0,0,0,,,,,0,8,8,8,,,,,,,,,0,0,0,0,0,8,8,8,,,,,,,,,,,,,,,,,,364.2449859741995,None,None,1,364.2449859741995,None,,,,,,,,,,,,,,,,,,,,,,,,,,,,,,,,,,,,,,,,,,,,,,,,,,,,,,,,,,,,,monicaD,001,d,2019_Oct_12_1252,Experimento,3.2.3,59.94334119487734,
8,14,14,999,0.5,0:10,3,Cyan,None,0,0,1,15:50,./completed_changuitos/montage_hpsmc_101.65_90.95.jpg,left,0,0,0,0,,,,,0,8,8,8,,,,,,,,,0,0,0,0,0,9,9,9,,,,,,,,,,,,,,,,,,364.2449859741995,None,None,1,364.2449859741995,None,,,,,,,,,,,,,,,,,,,,,,,,,,,,,,,,,,,,,,,,,,,,,,,,,,,,,,,,,,,,,monicaD,001,d,2019_Oct_12_1252,Experimento,3.2.3,59.94334119487734,
8,14,14,999,0.5,0:10,3,Blue,None,0,0,1,15:50,./completed_changuitos/montage_hpsmc_101.65_90.95.jpg,left,0,0,0,0,,,,,0,8,8,8,,,,,,,,,0,0,0,0,0,10,10,10,,,,,,,,,,,,,,,,,,364.2449859741995,None,None,1,364.2449859741995,None,,,,,,,,,,,,,,,,,,,,,,,,,,,,,,,,,,,,,,,,,,,,,,,,,,,,,,,,,,,,,monicaD,001,d,2019_Oct_12_1252,Experimento,3.2.3,59.94334119487734,
8,14,14,999,0.5,0:10,3,Cyan,['space'],0,0,1,15:50,./completed_changuitos/montage_hpsmc_101.65_90.95.jpg,left,0,0,0,0,,,,,0,8,8,8,,,,,,,,,0,0,0,0,0,11,11,11,,,,,,,,,,,,,,,,,,364.2449859741995,None,None,0,364.2449859741995,None,,,,,,,,,,,,,,,,,,,,,,,,,,,,,,,,,,,,,,,,,,,,,,,,,,,,,,,,,,,,,monicaD,001,d,2019_Oct_12_1252,Experimento,3.2.3,59.94334119487734,
8,14,14,999,0.5,0:10,3,Magenta,None,0,0,1,15:50,./completed_changuitos/montage_hpsmc_101.65_90.95.jpg,left,0,0,0,0,,,,,0,8,8,8,,,,,,,,,0,0,0,0,0,12,12,12,,,,,,,,,,,,,,,,,,364.2449859741995,None,None,1,364.2449859741995,None,,,,,,,,,,,,,,,,,,,,,,,,,,,,,,,,,,,,,,,,,,,,,,,,,,,,,,,,,,,,,monicaD,001,d,2019_Oct_12_1252,Experimento,3.2.3,59.94334119487734,
8,14,14,999,0.5,0:10,3,Red,None,0,0,1,15:50,./completed_changuitos/montage_hpsmc_101.65_90.95.jpg,left,0,0,0,0,,,,,0,8,8,8,,,,,,,,,0,0,0,0,0,13,13,13,,,,,,,,,,,,,,,,,,364.26162182139956,None,None,1,364.26162182139956,None,,,,,,,,,,,,,,,,,,,,,,,,,,,,,,,,,,,,,,,,,,,,,,,,,,,,,,,,,,,,,monicaD,001,d,2019_Oct_12_1252,Experimento,3.2.3,59.94334119487734,
8,14,14,999,0.5,0:10,3,Magenta,['space'],0,0,1,15:50,./completed_changuitos/montage_hpsmc_101.65_90.95.jpg,left,0,0,0,0,,,,,0,8,8,8,,,,,,,,,0,0,0,0,0,14,14,14,,,,,,,,,,,,,,,,,,364.26162182139956,None,None,0,364.26162182139956,None,,,,,,,,,,,,,,,,,,,,,,,,,,,,,,,,,,,,,,,,,,,,,,,,,,,,,,,,,,,,,monicaD,001,d,2019_Oct_12_1252,Experimento,3.2.3,59.94334119487734,
8,14,14,999,0.5,0:10,3,Green,None,0,0,1,15:50,./completed_changuitos/montage_hpsmc_101.65_90.95.jpg,left,0,0,0,0,,,,,0,8,8,8,,,,,,,,,0,0,0,0,0,15,15,15,,,,,,,,,,,,,,,,,,364.26162182139956,None,None,1,364.26162182139956,None,,,,,,,,,,,,,,,,,,,,,,,,,,,,,,,,,,,,,,,,,,,,,,,,,,,,,,,,,,,,,monicaD,001,d,2019_Oct_12_1252,Experimento,3.2.3,59.94334119487734,
8,14,14,999,0.5,0:10,3,Yellow,['space'],0,0,1,15:50,./completed_changuitos/montage_hpsmc_101.65_90.95.jpg,left,0,0,0,0,,,,,0,8,8,8,,,,,,,,,0,0,0,0,0,16,16,16,,,,,,,,,,,,,,,,,,364.26162182139956,None,None,0,364.26162182139956,None,,,,,,,,,,,,,,,,,,,,,,,,,,,,,,,,,,,,,,,,,,,,,,,,,,,,,,,,,,,,,monicaD,001,d,2019_Oct_12_1252,Experimento,3.2.3,59.94334119487734,
8,14,14,999,0.5,0:10,3,Blue,None,0,0,1,15:50,./completed_changuitos/montage_hpsmc_101.65_90.95.jpg,left,0,0,0,0,,,,,0,8,8,8,,,,,,,,,0,0,0,0,0,17,17,17,,,,,,,,,,,,,,,,,,364.26162182139956,None,None,1,364.26162182139956,None,,,,,,,,,,,,,,,,,,,,,,,,,,,,,,,,,,,,,,,,,,,,,,,,,,,,,,,,,,,,,monicaD,001,d,2019_Oct_12_1252,Experimento,3.2.3,59.94334119487734,
8,14,14,999,0.5,0:10,3,Cyan,None,0,0,1,15:50,./completed_changuitos/montage_hpsmc_101.65_90.95.jpg,left,0,0,0,0,,,,,0,8,8,8,,,,,,,,,0,0,0,0,0,18,18,18,,,,,,,,,,,,,,,,,,364.26162182139956,None,None,1,364.26162182139956,None,,,,,,,,,,,,,,,,,,,,,,,,,,,,,,,,,,,,,,,,,,,,,,,,,,,,,,,,,,,,,monicaD,001,d,2019_Oct_12_1252,Experimento,3.2.3,59.94334119487734,
8,14,14,999,0.5,0:10,3,Blue,['space'],0,0,1,15:50,./completed_changuitos/montage_hpsmc_101.65_90.95.jpg,left,0,0,0,0,,,,,0,8,8,8,,,,,,,,,0,0,0,0,0,19,19,19,,,,,,,,,,,,,,,,,,364.26162182139956,None,None,0,364.26162182139956,None,,,,,,,,,,,,,,,,,,,,,,,,,,,,,,,,,,,,,,,,,,,,,,,,,,,,,,,,,,,,,monicaD,001,d,2019_Oct_12_1252,Experimento,3.2.3,59.94334119487734,
8,14,14,999,0.5,0:10,3,Yellow,None,0,0,1,15:50,./completed_changuitos/montage_hpsmc_101.65_90.95.jpg,left,0,0,0,0,,,,,0,8,8,8,,,,,,,,,0,0,0,0,0,20,20,20,,,,,,,,,,,,,,,,,,364.26162182139956,None,None,1,364.26162182139956,None,,,,,,,,,,,,,,,,,,,,,,,,,,,,,,,,,,,,,,,,,,,,,,,,,,,,,,,,,,,,,monicaD,001,d,2019_Oct_12_1252,Experimento,3.2.3,59.94334119487734,
8,14,14,999,0.5,0:10,3,Cyan,None,0,0,1,15:50,./completed_changuitos/montage_hpsmc_101.65_90.95.jpg,left,0,0,0,0,,,,,0,8,8,8,,,,,,,,,0,0,0,0,0,21,21,21,,,,,,,,,,,,,,,,,,364.26162182139956,None,None,1,364.26162182139956,None,,,,,,,,,,,,,,,,,,,,,,,,,,,,,,,,,,,,,,,,,,,,,,,,,,,,,,,,,,,,,monicaD,001,d,2019_Oct_12_1252,Experimento,3.2.3,59.94334119487734,
8,14,14,999,0.5,0:10,3,Yellow,['space'],0,0,1,15:50,./completed_changuitos/montage_hpsmc_101.65_90.95.jpg,left,0,0,0,0,,,,,0,8,8,8,,,,,,,,,0,0,0,0,0,22,22,22,,,,,,,,,,,,,,,,,,364.26162182139956,None,None,0,364.26162182139956,None,,,,,,,,,,,,,,,,,,,,,,,,,,,,,,,,,,,,,,,,,,,,,,,,,,,,,,,,,,,,,monicaD,001,d,2019_Oct_12_1252,Experimento,3.2.3,59.94334119487734,
8,14,14,999,0.5,0:10,3,Magenta,None,0,0,1,15:50,./completed_changuitos/montage_hpsmc_101.65_90.95.jpg,left,0,0,0,0,,,,,0,8,8,8,,,,,,,,,0,0,0,0,0,23,23,23,,,,,,,,,,,,,,,,,,364.26162182139956,None,None,1,364.26162182139956,None,,,,,,,,,,,,,,,,,,,,,,,,,,,,,,,,,,,,,,,,,,,,,,,,,,,,,,,,,,,,,monicaD,001,d,2019_Oct_12_1252,Experimento,3.2.3,59.94334119487734,
8,14,14,999,0.5,0:10,3,Red,None,0,0,1,15:50,./completed_changuitos/montage_hpsmc_101.65_90.95.jpg,left,0,0,0,0,,,,,0,8,8,8,,,,,,,,,0,0,0,0,0,24,24,24,,,,,,,,,,,,,,,,,,364.2782576685997,None,None,1,364.2782576685997,None,,,,,,,,,,,,,,,,,,,,,,,,,,,,,,,,,,,,,,,,,,,,,,,,,,,,,,,,,,,,,monicaD,001,d,2019_Oct_12_1252,Experimento,3.2.3,59.94334119487734,
8,14,14,999,0.5,0:10,3,Magenta,['space'],0,0,1,15:50,./completed_changuitos/montage_hpsmc_101.65_90.95.jpg,left,0,0,0,0,,,,,0,8,8,8,,,,,,,,,0,0,0,0,0,25,25,25,,,,,,,,,,,,,,,,,,364.2782576685997,None,None,0,364.2782576685997,None,,,,,,,,,,,,,,,,,,,,,,,,,,,,,,,,,,,,,,,,,,,,,,,,,,,,,,,,,,,,,monicaD,001,d,2019_Oct_12_1252,Experimento,3.2.3,59.94334119487734,
8,14,14,999,0.5,0:10,3,Red,['space'],0,0,1,15:50,./completed_changuitos/montage_hpsmc_101.65_90.95.jpg,left,0,0,0,0,,,,,0,8,8,8,,,,,,,,,0,0,0,0,0,26,26,26,,,,,,,,,,,,,,,,,,364.2782576685997,None,None,0,364.2782576685997,None,,,,,,,,,,,,,,,,,,,,,,,,,,,,,,,,,,,,,,,,,,,,,,,,,,,,,,,,,,,,,monicaD,001,d,2019_Oct_12_1252,Experimento,3.2.3,59.94334119487734,
8,14,14,999,0.5,0:10,3,Yellow,None,0,0,1,15:50,./completed_changuitos/montage_hpsmc_101.65_90.95.jpg,left,0,0,0,0,,,,,0,8,8,8,,,,,,,,,0,0,0,0,0,27,27,27,,,,,,,,,,,,,,,,,,364.2782576685997,None,None,1,364.2782576685997,None,,,,,,,,,,,,,,,,,,,,,,,,,,,,,,,,,,,,,,,,,,,,,,,,,,,,,,,,,,,,,monicaD,001,d,2019_Oct_12_1252,Experimento,3.2.3,59.94334119487734,
8,14,14,999,0.5,0:10,3,Cyan,None,0,0,1,15:50,./completed_changuitos/montage_hpsmc_101.65_90.95.jpg,left,0,0,0,0,,,,,0,8,8,8,,,,,,,,,0,0,0,0,0,28,28,28,,,,,,,,,,,,,,,,,,364.2782576685997,None,None,1,364.2782576685997,None,,,,,,,,,,,,,,,,,,,,,,,,,,,,,,,,,,,,,,,,,,,,,,,,,,,,,,,,,,,,,monicaD,001,d,2019_Oct_12_1252,Experimento,3.2.3,59.94334119487734,
8,14,14,999,0.5,0:10,3,Green,None,0,0,1,15:50,./completed_changuitos/montage_hpsmc_101.65_90.95.jpg,left,0,0,0,0,,,,,0,8,8,8,,,,,,,,,0,0,0,0,0,29,29,29,,,,,,,,,,,,,,,,,,364.2782576685997,None,None,1,364.2782576685997,None,,,,,,,,,,,,,,,,,,,,,,,,,,,,,,,,,,,,,,,,,,,,,,,,,,,,,,,,,,,,,monicaD,001,d,2019_Oct_12_1252,Experimento,3.2.3,59.94334119487734,
8,14,14,999,0.5,0:10,3,White,None,0,0,1,15:50,./completed_changuitos/montage_hpsmc_101.65_90.95.jpg,left,0,0,0,0,,,,,0,8,8,8,,,,,,,,,0,0,0,0,0,30,30,30,,,,,,,,,,,,,,,,,,364.2782576685997,None,None,1,364.2782576685997,None,,,,,,,,,,,,,,,,,,,,,,,,,,,,,,,,,,,,,,,,,,,,,,,,,,,,,,,,,,,,,monicaD,001,d,2019_Oct_12_1252,Experimento,3.2.3,59.94334119487734,
8,14,14,999,0.5,0:10,3,Green,['space'],0,0,1,15:50,./completed_changuitos/montage_hpsmc_101.65_90.95.jpg,left,0,0,0,0,,,,,0,8,8,8,,,,,,,,,0,0,0,0,0,31,31,31,,,,,,,,,,,,,,,,,,364.2782576685997,None,None,0,364.2782576685997,None,,,,,,,,,,,,,,,,,,,,,,,,,,,,,,,,,,,,,,,,,,,,,,,,,,,,,,,,,,,,,monicaD,001,d,2019_Oct_12_1252,Experimento,3.2.3,59.94334119487734,
8,14,14,999,0.5,0:10,3,Red,None,0,0,1,15:50,./completed_changuitos/montage_hpsmc_101.65_90.95.jpg,left,0,0,0,0,,,,,0,8,8,8,,,,,,,,,0,0,0,0,0,32,32,32,,,,,,,,,,,,,,,,,,364.2782576685997,None,None,1,364.2782576685997,None,,,,,,,,,,,,,,,,,,,,,,,,,,,,,,,,,,,,,,,,,,,,,,,,,,,,,,,,,,,,,monicaD,001,d,2019_Oct_12_1252,Experimento,3.2.3,59.94334119487734,
8,14,14,999,0.5,0:10,3,Blue,None,0,0,1,15:50,./completed_changuitos/montage_hpsmc_101.65_90.95.jpg,left,0,0,0,0,,,,,0,8,8,8,,,,,,,,,0,0,0,0,0,33,33,33,,,,,,,,,,,,,,,,,,364.2782576685997,None,None,1,364.2782576685997,None,,,,,,,,,,,,,,,,,,,,,,,,,,,,,,,,,,,,,,,,,,,,,,,,,,,,,,,,,,,,,monicaD,001,d,2019_Oct_12_1252,Experimento,3.2.3,59.94334119487734,
8,14,14,999,0.5,0:10,3,Green,None,0,0,1,15:50,./completed_changuitos/montage_hpsmc_101.65_90.95.jpg,left,0,0,0,0,,,,,0,8,8,8,,,,,,,,,0,0,0,0,0,34,34,34,,,,,,,,,,,,,,,,,,364.29489351579974,None,None,1,364.29489351579974,None,,,,,,,,,,,,,,,,,,,,,,,,,,,,,,,,,,,,,,,,,,,,,,,,,,,,,,,,,,,,,monicaD,001,d,2019_Oct_12_1252,Experimento,3.2.3,59.94334119487734,
8,14,14,999,0.5,0:10,3,,,0,0,1,15:50,./completed_changuitos/montage_hpsmc_101.65_90.95.jpg,left,0,0,0,0,,,,,0,8,8,8,,,,,,,,,0,0,0,0,,,,,,,,,,,,,,,,,,,,,,,,,,,,,364.39515625200147,None,right,0,2.104474155996286,364.39515625200147,None,364.39515625200147,None,,,,,,,,,,,,,,,,,,,,,,,,,,,,,,,,,,,,,,,,,,,,,,,,,,,monicaD,001,d,2019_Oct_12_1252,Experimento,3.2.3,59.94334119487734,
8,14,14,999,0.5,0:10,3,,,0,0,1,15:50,,,0,0,0,0,,,,,0,8,8,8,,,,,,,,,,,,,,,,,,,,,,,,,,,,,,,,,,,,,,,,,,,,,,,,,,,,,,,,,,,,,,,,,,,,,,,,,,,,,,,,,,,,,,,,,,,,,,,,,,,,monicaD,001,d,2019_Oct_12_1252,Experimento,3.2.3,59.94334119487734,
8,14,14,999,0.5,0:10,3,,,0,1,0,25:50,./completed_changuitos/montage_wildj_90.95_79.19.jpg,left,0,0,0,0,,,,,0,9,9,9,,,,,0,0,0,0,,,,,,,,,,,,,,,,,,,,,,,,,,,,,,,,,,,,,,,,,,366.77968079800485,367.94796532600594,367.94796532600594,375.9609101790047,375.9609101790047,389.9614345910013,left,1,1.7413329179980792,389.9614345910013,None,389.9614345910013,None,389.9614345910013,None,,,,,,,,,,,,,,,,,,,,,,,,,,,,,,,,,,,,monicaD,001,d,2019_Oct_12_1252,Experimento,3.2.3,59.94334119487734,
8,14,14,999,0.5,0:10,3,,,0,1,0,25:50,,,0,0,0,0,,,,,0,9,9,9,,,,,,,,,,,,,,,,,,,,,,,,,,,,,,,,,,,,,,,,,,,,,,,,,,,,,,,,,,,,,,,,,,,,,,,,,,,,,,,,,,,,,,,,,,,,,,,,,,,,monicaD,001,d,2019_Oct_12_1252,Experimento,3.2.3,59.94334119487734,
8,14,14,999,0.5,0:10,3,Magenta,None,0,0,1,20:50,./completed_changuitos/montage_tkvms_86.45_73.5.jpg,left,0,0,0,0,,,,,0,10,10,10,,,,,,,,,0,0,0,0,0,0,0,0,,,,,,,,,,,,,,391.9450140070039,394.07778867800516,394.07778867800516,None,402.0951675280012,402.6110421530029,None,1,402.0951675280012,None,,,,,,,,,,,,,,,,,,,,,,,,,,,,,,,,,,,,,,,,,,,,,,,,,,,,,,,,,,,,,monicaD,001,d,2019_Oct_12_1252,Experimento,3.2.3,59.94334119487734,
8,14,14,999,0.5,0:10,3,Blue,['space'],0,0,1,20:50,./completed_changuitos/montage_tkvms_86.45_73.5.jpg,left,0,0,0,0,,,,,0,10,10,10,,,,,,,,,0,0,0,0,0,1,1,1,,,,,,,,,,,,,,,,,,404.0947652120012,404.59449643800326,None,0,404.0947652120012,404.0947652120012,,,,,,,,,,,,,,,,,,,,,,,,,,,,,,,,,,,,,,,,,,,,,,,,,,,,,,,,,,,,,monicaD,001,d,2019_Oct_12_1252,Experimento,3.2.3,59.94334119487734,
8,14,14,999,0.5,0:10,3,Cyan,None,0,0,1,20:50,./completed_changuitos/montage_tkvms_86.45_73.5.jpg,left,0,0,0,0,,,,,0,10,10,10,,,,,,,,,0,0,0,0,0,2,2,2,,,,,,,,,,,,,,,,,,406.0944810410001,406.5945477560017,None,1,406.0944810410001,406.0944810410001,,,,,,,,,,,,,,,,,,,,,,,,,,,,,,,,,,,,,,,,,,,,,,,,,,,,,,,,,,,,,monicaD,001,d,2019_Oct_12_1252,Experimento,3.2.3,59.94334119487734,
8,14,14,999,0.5,0:10,3,Yellow,None,0,0,1,20:50,./completed_changuitos/montage_tkvms_86.45_73.5.jpg,left,0,0,0,0,,,,,0,10,10,10,,,,,,,,,0,0,0,0,0,3,3,3,,,,,,,,,,,,,,,,,,408.09440562000236,408.5944476440054,None,1,408.09440562000236,408.09440562000236,,,,,,,,,,,,,,,,,,,,,,,,,,,,,,,,,,,,,,,,,,,,,,,,,,,,,,,,,,,,,monicaD,001,d,2019_Oct_12_1252,Experimento,3.2.3,59.94334119487734,
8,14,14,999,0.5,0:10,3,Cyan,None,0,0,1,20:50,./completed_changuitos/montage_tkvms_86.45_73.5.jpg,left,0,0,0,0,,,,,0,10,10,10,,,,,,,,,0,0,0,0,0,4,4,4,,,,,,,,,,,,,,,,,,410.09435918000236,410.5944065110016,['return'],0,410.09435918000236,410.09435918000236,[0.9568755640066229],,,,,,,,,,,,,,,,,,,,,,,,,,,,,,,,,,,,,,,,,,,,,,,,,,,,,,,,,,,,monicaD,001,d,2019_Oct_12_1252,Experimento,3.2.3,59.94334119487734,
8,14,14,999,0.5,0:10,3,Blue,None,0,0,1,20:50,./completed_changuitos/montage_tkvms_86.45_73.5.jpg,left,0,0,0,0,,,,,0,10,10,10,,,,,,,,,0,0,0,0,0,5,5,5,,,,,,,,,,,,,,,,,,412.0942043210016,412.594156363004,None,1,412.0942043210016,412.0942043210016,,,,,,,,,,,,,,,,,,,,,,,,,,,,,,,,,,,,,,,,,,,,,,,,,,,,,,,,,,,,,monicaD,001,d,2019_Oct_12_1252,Experimento,3.2.3,59.94334119487734,
8,14,14,999,0.5,0:10,3,Cyan,['space'],0,0,1,20:50,./completed_changuitos/montage_tkvms_86.45_73.5.jpg,left,0,0,0,0,,,,,0,10,10,10,,,,,,,,,0,0,0,0,0,6,6,6,,,,,,,,,,,,,,,,,,414.09435707100056,414.59413204200246,['return'],0,414.09435707100056,414.09435707100056,[0.7732647459997679],,,,,,,,,,,,,,,,,,,,,,,,,,,,,,,,,,,,,,,,,,,,,,,,,,,,,,,,,,,,monicaD,001,d,2019_Oct_12_1252,Experimento,3.2.3,59.94334119487734,
8,14,14,999,0.5,0:10,3,Magenta,None,0,0,1,20:50,./completed_changuitos/montage_tkvms_86.45_73.5.jpg,left,0,0,0,0,,,,,0,10,10,10,,,,,,,,,0,0,0,0,0,7,7,7,,,,,,,,,,,,,,,,,,416.0781965712034,None,None,1,416.0781965712034,None,,,,,,,,,,,,,,,,,,,,,,,,,,,,,,,,,,,,,,,,,,,,,,,,,,,,,,,,,,,,,monicaD,001,d,2019_Oct_12_1252,Experimento,3.2.3,59.94334119487734,
8,14,14,999,0.5,0:10,3,Red,None,0,0,1,20:50,./completed_changuitos/montage_tkvms_86.45_73.5.jpg,left,0,0,0,0,,,,,0,10,10,10,,,,,,,,,0,0,0,0,0,8,8,8,,,,,,,,,,,,,,,,,,416.0781965712034,None,None,1,416.0781965712034,None,,,,,,,,,,,,,,,,,,,,,,,,,,,,,,,,,,,,,,,,,,,,,,,,,,,,,,,,,,,,,monicaD,001,d,2019_Oct_12_1252,Experimento,3.2.3,59.94334119487734,
8,14,14,999,0.5,0:10,3,Magenta,['space'],0,0,1,20:50,./completed_changuitos/montage_tkvms_86.45_73.5.jpg,left,0,0,0,0,,,,,0,10,10,10,,,,,,,,,0,0,0,0,0,9,9,9,,,,,,,,,,,,,,,,,,416.0781965712034,None,None,0,416.0781965712034,None,,,,,,,,,,,,,,,,,,,,,,,,,,,,,,,,,,,,,,,,,,,,,,,,,,,,,,,,,,,,,monicaD,001,d,2019_Oct_12_1252,Experimento,3.2.3,59.94334119487734,
8,14,14,999,0.5,0:10,3,Green,None,0,0,1,20:50,./completed_changuitos/montage_tkvms_86.45_73.5.jpg,left,0,0,0,0,,,,,0,10,10,10,,,,,,,,,0,0,0,0,0,10,10,10,,,,,,,,,,,,,,,,,,416.0781965712034,None,None,1,416.0781965712034,None,,,,,,,,,,,,,,,,,,,,,,,,,,,,,,,,,,,,,,,,,,,,,,,,,,,,,,,,,,,,,monicaD,001,d,2019_Oct_12_1252,Experimento,3.2.3,59.94334119487734,
8,14,14,999,0.5,0:10,3,Yellow,['space'],0,0,1,20:50,./completed_changuitos/montage_tkvms_86.45_73.5.jpg,left,0,0,0,0,,,,,0,10,10,10,,,,,,,,,0,0,0,0,0,11,11,11,,,,,,,,,,,,,,,,,,416.0781965712034,None,None,0,416.0781965712034,None,,,,,,,,,,,,,,,,,,,,,,,,,,,,,,,,,,,,,,,,,,,,,,,,,,,,,,,,,,,,,monicaD,001,d,2019_Oct_12_1252,Experimento,3.2.3,59.94334119487734,
8,14,14,999,0.5,0:10,3,Blue,None,0,0,1,20:50,./completed_changuitos/montage_tkvms_86.45_73.5.jpg,left,0,0,0,0,,,,,0,10,10,10,,,,,,,,,0,0,0,0,0,12,12,12,,,,,,,,,,,,,,,,,,416.0781965712034,None,None,1,416.0781965712034,None,,,,,,,,,,,,,,,,,,,,,,,,,,,,,,,,,,,,,,,,,,,,,,,,,,,,,,,,,,,,,monicaD,001,d,2019_Oct_12_1252,Experimento,3.2.3,59.94334119487734,
8,14,14,999,0.5,0:10,3,Cyan,None,0,0,1,20:50,./completed_changuitos/montage_tkvms_86.45_73.5.jpg,left,0,0,0,0,,,,,0,10,10,10,,,,,,,,,0,0,0,0,0,13,13,13,,,,,,,,,,,,,,,,,,416.0948324184035,None,None,1,416.0948324184035,None,,,,,,,,,,,,,,,,,,,,,,,,,,,,,,,,,,,,,,,,,,,,,,,,,,,,,,,,,,,,,monicaD,001,d,2019_Oct_12_1252,Experimento,3.2.3,59.94334119487734,
8,14,14,999,0.5,0:10,3,Blue,['space'],0,0,1,20:50,./completed_changuitos/montage_tkvms_86.45_73.5.jpg,left,0,0,0,0,,,,,0,10,10,10,,,,,,,,,0,0,0,0,0,14,14,14,,,,,,,,,,,,,,,,,,416.0948324184035,None,None,0,416.0948324184035,None,,,,,,,,,,,,,,,,,,,,,,,,,,,,,,,,,,,,,,,,,,,,,,,,,,,,,,,,,,,,,monicaD,001,d,2019_Oct_12_1252,Experimento,3.2.3,59.94334119487734,
8,14,14,999,0.5,0:10,3,Yellow,None,0,0,1,20:50,./completed_changuitos/montage_tkvms_86.45_73.5.jpg,left,0,0,0,0,,,,,0,10,10,10,,,,,,,,,0,0,0,0,0,15,15,15,,,,,,,,,,,,,,,,,,416.0948324184035,None,None,1,416.0948324184035,None,,,,,,,,,,,,,,,,,,,,,,,,,,,,,,,,,,,,,,,,,,,,,,,,,,,,,,,,,,,,,monicaD,001,d,2019_Oct_12_1252,Experimento,3.2.3,59.94334119487734,
8,14,14,999,0.5,0:10,3,Cyan,None,0,0,1,20:50,./completed_changuitos/montage_tkvms_86.45_73.5.jpg,left,0,0,0,0,,,,,0,10,10,10,,,,,,,,,0,0,0,0,0,16,16,16,,,,,,,,,,,,,,,,,,416.0948324184035,None,None,1,416.0948324184035,None,,,,,,,,,,,,,,,,,,,,,,,,,,,,,,,,,,,,,,,,,,,,,,,,,,,,,,,,,,,,,monicaD,001,d,2019_Oct_12_1252,Experimento,3.2.3,59.94334119487734,
8,14,14,999,0.5,0:10,3,Yellow,['space'],0,0,1,20:50,./completed_changuitos/montage_tkvms_86.45_73.5.jpg,left,0,0,0,0,,,,,0,10,10,10,,,,,,,,,0,0,0,0,0,17,17,17,,,,,,,,,,,,,,,,,,416.0948324184035,None,None,0,416.0948324184035,None,,,,,,,,,,,,,,,,,,,,,,,,,,,,,,,,,,,,,,,,,,,,,,,,,,,,,,,,,,,,,monicaD,001,d,2019_Oct_12_1252,Experimento,3.2.3,59.94334119487734,
8,14,14,999,0.5,0:10,3,Magenta,None,0,0,1,20:50,./completed_changuitos/montage_tkvms_86.45_73.5.jpg,left,0,0,0,0,,,,,0,10,10,10,,,,,,,,,0,0,0,0,0,18,18,18,,,,,,,,,,,,,,,,,,416.0948324184035,None,None,1,416.0948324184035,None,,,,,,,,,,,,,,,,,,,,,,,,,,,,,,,,,,,,,,,,,,,,,,,,,,,,,,,,,,,,,monicaD,001,d,2019_Oct_12_1252,Experimento,3.2.3,59.94334119487734,
8,14,14,999,0.5,0:10,3,Red,None,0,0,1,20:50,./completed_changuitos/montage_tkvms_86.45_73.5.jpg,left,0,0,0,0,,,,,0,10,10,10,,,,,,,,,0,0,0,0,0,19,19,19,,,,,,,,,,,,,,,,,,416.0948324184035,None,None,1,416.0948324184035,None,,,,,,,,,,,,,,,,,,,,,,,,,,,,,,,,,,,,,,,,,,,,,,,,,,,,,,,,,,,,,monicaD,001,d,2019_Oct_12_1252,Experimento,3.2.3,59.94334119487734,
8,14,14,999,0.5,0:10,3,Magenta,['space'],0,0,1,20:50,./completed_changuitos/montage_tkvms_86.45_73.5.jpg,left,0,0,0,0,,,,,0,10,10,10,,,,,,,,,0,0,0,0,0,20,20,20,,,,,,,,,,,,,,,,,,416.0948324184035,None,None,0,416.0948324184035,None,,,,,,,,,,,,,,,,,,,,,,,,,,,,,,,,,,,,,,,,,,,,,,,,,,,,,,,,,,,,,monicaD,001,d,2019_Oct_12_1252,Experimento,3.2.3,59.94334119487734,
8,14,14,999,0.5,0:10,3,Red,['space'],0,0,1,20:50,./completed_changuitos/montage_tkvms_86.45_73.5.jpg,left,0,0,0,0,,,,,0,10,10,10,,,,,,,,,0,0,0,0,0,21,21,21,,,,,,,,,,,,,,,,,,416.0948324184035,None,None,0,416.0948324184035,None,,,,,,,,,,,,,,,,,,,,,,,,,,,,,,,,,,,,,,,,,,,,,,,,,,,,,,,,,,,,,monicaD,001,d,2019_Oct_12_1252,Experimento,3.2.3,59.94334119487734,
8,14,14,999,0.5,0:10,3,Yellow,None,0,0,1,20:50,./completed_changuitos/montage_tkvms_86.45_73.5.jpg,left,0,0,0,0,,,,,0,10,10,10,,,,,,,,,0,0,0,0,0,22,22,22,,,,,,,,,,,,,,,,,,416.0948324184035,None,None,1,416.0948324184035,None,,,,,,,,,,,,,,,,,,,,,,,,,,,,,,,,,,,,,,,,,,,,,,,,,,,,,,,,,,,,,monicaD,001,d,2019_Oct_12_1252,Experimento,3.2.3,59.94334119487734,
8,14,14,999,0.5,0:10,3,Cyan,None,0,0,1,20:50,./completed_changuitos/montage_tkvms_86.45_73.5.jpg,left,0,0,0,0,,,,,0,10,10,10,,,,,,,,,0,0,0,0,0,23,23,23,,,,,,,,,,,,,,,,,,416.0948324184035,None,None,1,416.0948324184035,None,,,,,,,,,,,,,,,,,,,,,,,,,,,,,,,,,,,,,,,,,,,,,,,,,,,,,,,,,,,,,monicaD,001,d,2019_Oct_12_1252,Experimento,3.2.3,59.94334119487734,
8,14,14,999,0.5,0:10,3,Green,None,0,0,1,20:50,./completed_changuitos/montage_tkvms_86.45_73.5.jpg,left,0,0,0,0,,,,,0,10,10,10,,,,,,,,,0,0,0,0,0,24,24,24,,,,,,,,,,,,,,,,,,416.0948324184035,None,None,1,416.0948324184035,None,,,,,,,,,,,,,,,,,,,,,,,,,,,,,,,,,,,,,,,,,,,,,,,,,,,,,,,,,,,,,monicaD,001,d,2019_Oct_12_1252,Experimento,3.2.3,59.94334119487734,
8,14,14,999,0.5,0:10,3,White,None,0,0,1,20:50,./completed_changuitos/montage_tkvms_86.45_73.5.jpg,left,0,0,0,0,,,,,0,10,10,10,,,,,,,,,0,0,0,0,0,25,25,25,,,,,,,,,,,,,,,,,,416.1114682656036,None,None,1,416.1114682656036,None,,,,,,,,,,,,,,,,,,,,,,,,,,,,,,,,,,,,,,,,,,,,,,,,,,,,,,,,,,,,,monicaD,001,d,2019_Oct_12_1252,Experimento,3.2.3,59.94334119487734,
8,14,14,999,0.5,0:10,3,Green,['space'],0,0,1,20:50,./completed_changuitos/montage_tkvms_86.45_73.5.jpg,left,0,0,0,0,,,,,0,10,10,10,,,,,,,,,0,0,0,0,0,26,26,26,,,,,,,,,,,,,,,,,,416.1114682656036,None,None,0,416.1114682656036,None,,,,,,,,,,,,,,,,,,,,,,,,,,,,,,,,,,,,,,,,,,,,,,,,,,,,,,,,,,,,,monicaD,001,d,2019_Oct_12_1252,Experimento,3.2.3,59.94334119487734,
8,14,14,999,0.5,0:10,3,Red,None,0,0,1,20:50,./completed_changuitos/montage_tkvms_86.45_73.5.jpg,left,0,0,0,0,,,,,0,10,10,10,,,,,,,,,0,0,0,0,0,27,27,27,,,,,,,,,,,,,,,,,,416.1114682656036,None,None,1,416.1114682656036,None,,,,,,,,,,,,,,,,,,,,,,,,,,,,,,,,,,,,,,,,,,,,,,,,,,,,,,,,,,,,,monicaD,001,d,2019_Oct_12_1252,Experimento,3.2.3,59.94334119487734,
8,14,14,999,0.5,0:10,3,Blue,None,0,0,1,20:50,./completed_changuitos/montage_tkvms_86.45_73.5.jpg,left,0,0,0,0,,,,,0,10,10,10,,,,,,,,,0,0,0,0,0,28,28,28,,,,,,,,,,,,,,,,,,416.1114682656036,None,None,1,416.1114682656036,None,,,,,,,,,,,,,,,,,,,,,,,,,,,,,,,,,,,,,,,,,,,,,,,,,,,,,,,,,,,,,monicaD,001,d,2019_Oct_12_1252,Experimento,3.2.3,59.94334119487734,
8,14,14,999,0.5,0:10,3,Green,None,0,0,1,20:50,./completed_changuitos/montage_tkvms_86.45_73.5.jpg,left,0,0,0,0,,,,,0,10,10,10,,,,,,,,,0,0,0,0,0,29,29,29,,,,,,,,,,,,,,,,,,416.1114682656036,None,None,1,416.1114682656036,None,,,,,,,,,,,,,,,,,,,,,,,,,,,,,,,,,,,,,,,,,,,,,,,,,,,,,,,,,,,,,monicaD,001,d,2019_Oct_12_1252,Experimento,3.2.3,59.94334119487734,
8,14,14,999,0.5,0:10,3,,,0,0,1,20:50,./completed_changuitos/montage_tkvms_86.45_73.5.jpg,left,0,0,0,0,,,,,0,10,10,10,,,,,,,,,0,0,0,0,,,,,,,,,,,,,,,,,,,,,,,,,,,,,416.21173258199997,None,right,0,3.5373082789956243,416.21173258199997,None,416.21173258199997,419.21146618200146,,,,,,,,,,,,,,,,,,,,,,,,,,,,,,,,,,,,,,,,,,,,,,,,,,,monicaD,001,d,2019_Oct_12_1252,Experimento,3.2.3,59.94334119487734,
8,14,14,999,0.5,0:10,3,,,0,0,1,20:50,,,0,0,0,0,,,,,0,10,10,10,,,,,,,,,,,,,,,,,,,,,,,,,,,,,,,,,,,,,,,,,,,,,,,,,,,,,,,,,,,,,,,,,,,,,,,,,,,,,,,,,,,,,,,,,,,,,,,,,,,,monicaD,001,d,2019_Oct_12_1252,Experimento,3.2.3,59.94334119487734,
8,14,14,999,0.5,0:10,3,Red,None,0,0,1,28:50,./completed_changuitos/montage_lqsvl_74.89_88.8.jpg,right,0,0,0,0,,,,,0,11,11,11,,,,,,,,,0,0,0,0,0,0,0,0,,,,,,,,,,,,,,419.97909364000225,421.1289129920042,421.1289129920042,None,429.162180283005,429.6773894260041,None,1,429.162180283005,None,,,,,,,,,,,,,,,,,,,,,,,,,,,,,,,,,,,,,,,,,,,,,,,,,,,,,,,,,,,,,monicaD,001,d,2019_Oct_12_1252,Experimento,3.2.3,59.94334119487734,
8,14,14,999,0.5,0:10,3,Magenta,['space'],0,0,1,28:50,./completed_changuitos/montage_lqsvl_74.89_88.8.jpg,right,0,0,0,0,,,,,0,11,11,11,,,,,,,,,0,0,0,0,0,1,1,1,,,,,,,,,,,,,,,,,,431.17739837500267,431.6777252760003,None,0,431.17739837500267,431.17739837500267,,,,,,,,,,,,,,,,,,,,,,,,,,,,,,,,,,,,,,,,,,,,,,,,,,,,,,,,,,,,,monicaD,001,d,2019_Oct_12_1252,Experimento,3.2.3,59.94334119487734,
8,14,14,999,0.5,0:10,3,Green,None,0,0,1,28:50,./completed_changuitos/montage_lqsvl_74.89_88.8.jpg,right,0,0,0,0,,,,,0,11,11,11,,,,,,,,,0,0,0,0,0,2,2,2,,,,,,,,,,,,,,,,,,433.17743461300415,433.6774162380025,None,1,433.17743461300415,433.17743461300415,,,,,,,,,,,,,,,,,,,,,,,,,,,,,,,,,,,,,,,,,,,,,,,,,,,,,,,,,,,,,monicaD,001,d,2019_Oct_12_1252,Experimento,3.2.3,59.94334119487734,
8,14,14,999,0.5,0:10,3,Yellow,['space'],0,0,1,28:50,./completed_changuitos/montage_lqsvl_74.89_88.8.jpg,right,0,0,0,0,,,,,0,11,11,11,,,,,,,,,0,0,0,0,0,3,3,3,,,,,,,,,,,,,,,,,,435.177101789006,435.6776186290008,None,0,435.177101789006,435.177101789006,,,,,,,,,,,,,,,,,,,,,,,,,,,,,,,,,,,,,,,,,,,,,,,,,,,,,,,,,,,,,monicaD,001,d,2019_Oct_12_1252,Experimento,3.2.3,59.94334119487734,
8,14,14,999,0.5,0:10,3,Blue,None,0,0,1,28:50,./completed_changuitos/montage_lqsvl_74.89_88.8.jpg,right,0,0,0,0,,,,,0,11,11,11,,,,,,,,,0,0,0,0,0,4,4,4,,,,,,,,,,,,,,,,,,437.17757618100586,437.67729751900333,None,1,437.17757618100586,437.17757618100586,,,,,,,,,,,,,,,,,,,,,,,,,,,,,,,,,,,,,,,,,,,,,,,,,,,,,,,,,,,,,monicaD,001,d,2019_Oct_12_1252,Experimento,3.2.3,59.94334119487734,
8,14,14,999,0.5,0:10,3,Cyan,None,0,0,1,28:50,./completed_changuitos/montage_lqsvl_74.89_88.8.jpg,right,0,0,0,0,,,,,0,11,11,11,,,,,,,,,0,0,0,0,0,5,5,5,,,,,,,,,,,,,,,,,,439.1770000530014,439.67746947400155,None,1,439.1770000530014,439.1770000530014,,,,,,,,,,,,,,,,,,,,,,,,,,,,,,,,,,,,,,,,,,,,,,,,,,,,,,,,,,,,,monicaD,001,d,2019_Oct_12_1252,Experimento,3.2.3,59.94334119487734,
8,14,14,999,0.5,0:10,3,Blue,['space'],0,0,1,28:50,./completed_changuitos/montage_lqsvl_74.89_88.8.jpg,right,0,0,0,0,,,,,0,11,11,11,,,,,,,,,0,0,0,0,0,6,6,6,,,,,,,,,,,,,,,,,,441.17737949,441.67736046999926,['return'],0,441.17737949,441.17737949,[0.6094619050054462],,,,,,,,,,,,,,,,,,,,,,,,,,,,,,,,,,,,,,,,,,,,,,,,,,,,,,,,,,,,monicaD,001,d,2019_Oct_12_1252,Experimento,3.2.3,59.94334119487734,
8,14,14,999,0.5,0:10,3,Yellow,None,0,0,1,28:50,./completed_changuitos/montage_lqsvl_74.89_88.8.jpg,right,0,0,0,0,,,,,0,11,11,11,,,,,,,,,0,0,0,0,0,7,7,7,,,,,,,,,,,,,,,,,,443.14375451120065,None,None,1,443.14375451120065,None,,,,,,,,,,,,,,,,,,,,,,,,,,,,,,,,,,,,,,,,,,,,,,,,,,,,,,,,,,,,,monicaD,001,d,2019_Oct_12_1252,Experimento,3.2.3,59.94334119487734,
8,14,14,999,0.5,0:10,3,Cyan,None,0,0,1,28:50,./completed_changuitos/montage_lqsvl_74.89_88.8.jpg,right,0,0,0,0,,,,,0,11,11,11,,,,,,,,,0,0,0,0,0,8,8,8,,,,,,,,,,,,,,,,,,443.14375451120065,None,None,1,443.14375451120065,None,,,,,,,,,,,,,,,,,,,,,,,,,,,,,,,,,,,,,,,,,,,,,,,,,,,,,,,,,,,,,monicaD,001,d,2019_Oct_12_1252,Experimento,3.2.3,59.94334119487734,
8,14,14,999,0.5,0:10,3,Yellow,['space'],0,0,1,28:50,./completed_changuitos/montage_lqsvl_74.89_88.8.jpg,right,0,0,0,0,,,,,0,11,11,11,,,,,,,,,0,0,0,0,0,9,9,9,,,,,,,,,,,,,,,,,,443.14375451120065,None,None,0,443.14375451120065,None,,,,,,,,,,,,,,,,,,,,,,,,,,,,,,,,,,,,,,,,,,,,,,,,,,,,,,,,,,,,,monicaD,001,d,2019_Oct_12_1252,Experimento,3.2.3,59.94334119487734,
8,14,14,999,0.5,0:10,3,Magenta,None,0,0,1,28:50,./completed_changuitos/montage_lqsvl_74.89_88.8.jpg,right,0,0,0,0,,,,,0,11,11,11,,,,,,,,,0,0,0,0,0,10,10,10,,,,,,,,,,,,,,,,,,443.14375451120065,None,None,1,443.14375451120065,None,,,,,,,,,,,,,,,,,,,,,,,,,,,,,,,,,,,,,,,,,,,,,,,,,,,,,,,,,,,,,monicaD,001,d,2019_Oct_12_1252,Experimento,3.2.3,59.94334119487734,
8,14,14,999,0.5,0:10,3,Red,None,0,0,1,28:50,./completed_changuitos/montage_lqsvl_74.89_88.8.jpg,right,0,0,0,0,,,,,0,11,11,11,,,,,,,,,0,0,0,0,0,11,11,11,,,,,,,,,,,,,,,,,,443.14375451120065,None,None,1,443.14375451120065,None,,,,,,,,,,,,,,,,,,,,,,,,,,,,,,,,,,,,,,,,,,,,,,,,,,,,,,,,,,,,,monicaD,001,d,2019_Oct_12_1252,Experimento,3.2.3,59.94334119487734,
8,14,14,999,0.5,0:10,3,Magenta,['space'],0,0,1,28:50,./completed_changuitos/montage_lqsvl_74.89_88.8.jpg,right,0,0,0,0,,,,,0,11,11,11,,,,,,,,,0,0,0,0,0,12,12,12,,,,,,,,,,,,,,,,,,443.14375451120065,None,None,0,443.14375451120065,None,,,,,,,,,,,,,,,,,,,,,,,,,,,,,,,,,,,,,,,,,,,,,,,,,,,,,,,,,,,,,monicaD,001,d,2019_Oct_12_1252,Experimento,3.2.3,59.94334119487734,
8,14,14,999,0.5,0:10,3,Red,['space'],0,0,1,28:50,./completed_changuitos/montage_lqsvl_74.89_88.8.jpg,right,0,0,0,0,,,,,0,11,11,11,,,,,,,,,0,0,0,0,0,13,13,13,,,,,,,,,,,,,,,,,,443.14375451120065,None,None,0,443.14375451120065,None,,,,,,,,,,,,,,,,,,,,,,,,,,,,,,,,,,,,,,,,,,,,,,,,,,,,,,,,,,,,,monicaD,001,d,2019_Oct_12_1252,Experimento,3.2.3,59.94334119487734,
8,14,14,999,0.5,0:10,3,Yellow,None,0,0,1,28:50,./completed_changuitos/montage_lqsvl_74.89_88.8.jpg,right,0,0,0,0,,,,,0,11,11,11,,,,,,,,,0,0,0,0,0,14,14,14,,,,,,,,,,,,,,,,,,443.1603903584007,None,None,1,443.1603903584007,None,,,,,,,,,,,,,,,,,,,,,,,,,,,,,,,,,,,,,,,,,,,,,,,,,,,,,,,,,,,,,monicaD,001,d,2019_Oct_12_1252,Experimento,3.2.3,59.94334119487734,
8,14,14,999,0.5,0:10,3,Cyan,None,0,0,1,28:50,./completed_changuitos/montage_lqsvl_74.89_88.8.jpg,right,0,0,0,0,,,,,0,11,11,11,,,,,,,,,0,0,0,0,0,15,15,15,,,,,,,,,,,,,,,,,,443.1603903584007,None,None,1,443.1603903584007,None,,,,,,,,,,,,,,,,,,,,,,,,,,,,,,,,,,,,,,,,,,,,,,,,,,,,,,,,,,,,,monicaD,001,d,2019_Oct_12_1252,Experimento,3.2.3,59.94334119487734,
8,14,14,999,0.5,0:10,3,Green,None,0,0,1,28:50,./completed_changuitos/montage_lqsvl_74.89_88.8.jpg,right,0,0,0,0,,,,,0,11,11,11,,,,,,,,,0,0,0,0,0,16,16,16,,,,,,,,,,,,,,,,,,443.1603903584007,None,None,1,443.1603903584007,None,,,,,,,,,,,,,,,,,,,,,,,,,,,,,,,,,,,,,,,,,,,,,,,,,,,,,,,,,,,,,monicaD,001,d,2019_Oct_12_1252,Experimento,3.2.3,59.94334119487734,
8,14,14,999,0.5,0:10,3,White,None,0,0,1,28:50,./completed_changuitos/montage_lqsvl_74.89_88.8.jpg,right,0,0,0,0,,,,,0,11,11,11,,,,,,,,,0,0,0,0,0,17,17,17,,,,,,,,,,,,,,,,,,443.1603903584007,None,None,1,443.1603903584007,None,,,,,,,,,,,,,,,,,,,,,,,,,,,,,,,,,,,,,,,,,,,,,,,,,,,,,,,,,,,,,monicaD,001,d,2019_Oct_12_1252,Experimento,3.2.3,59.94334119487734,
8,14,14,999,0.5,0:10,3,Green,['space'],0,0,1,28:50,./completed_changuitos/montage_lqsvl_74.89_88.8.jpg,right,0,0,0,0,,,,,0,11,11,11,,,,,,,,,0,0,0,0,0,18,18,18,,,,,,,,,,,,,,,,,,443.1603903584007,None,None,0,443.1603903584007,None,,,,,,,,,,,,,,,,,,,,,,,,,,,,,,,,,,,,,,,,,,,,,,,,,,,,,,,,,,,,,monicaD,001,d,2019_Oct_12_1252,Experimento,3.2.3,59.94334119487734,
8,14,14,999,0.5,0:10,3,Red,None,0,0,1,28:50,./completed_changuitos/montage_lqsvl_74.89_88.8.jpg,right,0,0,0,0,,,,,0,11,11,11,,,,,,,,,0,0,0,0,0,19,19,19,,,,,,,,,,,,,,,,,,443.1603903584007,None,None,1,443.1603903584007,None,,,,,,,,,,,,,,,,,,,,,,,,,,,,,,,,,,,,,,,,,,,,,,,,,,,,,,,,,,,,,monicaD,001,d,2019_Oct_12_1252,Experimento,3.2.3,59.94334119487734,
8,14,14,999,0.5,0:10,3,Blue,None,0,0,1,28:50,./completed_changuitos/montage_lqsvl_74.89_88.8.jpg,right,0,0,0,0,,,,,0,11,11,11,,,,,,,,,0,0,0,0,0,20,20,20,,,,,,,,,,,,,,,,,,443.1603903584007,None,None,1,443.1603903584007,None,,,,,,,,,,,,,,,,,,,,,,,,,,,,,,,,,,,,,,,,,,,,,,,,,,,,,,,,,,,,,monicaD,001,d,2019_Oct_12_1252,Experimento,3.2.3,59.94334119487734,
8,14,14,999,0.5,0:10,3,Green,None,0,0,1,28:50,./completed_changuitos/montage_lqsvl_74.89_88.8.jpg,right,0,0,0,0,,,,,0,11,11,11,,,,,,,,,0,0,0,0,0,21,21,21,,,,,,,,,,,,,,,,,,443.1603903584007,None,None,1,443.1603903584007,None,,,,,,,,,,,,,,,,,,,,,,,,,,,,,,,,,,,,,,,,,,,,,,,,,,,,,,,,,,,,,monicaD,001,d,2019_Oct_12_1252,Experimento,3.2.3,59.94334119487734,
8,14,14,999,0.5,0:10,3,,,0,0,1,28:50,./completed_changuitos/montage_lqsvl_74.89_88.8.jpg,right,0,0,0,0,,,,,0,11,11,11,,,,,,,,,0,0,0,0,,,,,,,,,,,,,,,,,,,,,,,,,,,,,443.2612601360015,None,left,0,3.4081878859942663,443.2612601360015,None,443.2612601360015,446.261218560001,,,,,,,,,,,,,,,,,,,,,,,,,,,,,,,,,,,,,,,,,,,,,,,,,,,monicaD,001,d,2019_Oct_12_1252,Experimento,3.2.3,59.94334119487734,
8,14,14,999,0.5,0:10,3,,,0,0,1,28:50,,,0,0,0,0,,,,,0,11,11,11,,,,,,,,,,,,,,,,,,,,,,,,,,,,,,,,,,,,,,,,,,,,,,,,,,,,,,,,,,,,,,,,,,,,,,,,,,,,,,,,,,,,,,,,,,,,,,,,,,,,monicaD,001,d,2019_Oct_12_1252,Experimento,3.2.3,59.94334119487734,
8,14,14,999,0.5,0:10,3,,,1,0,0,30:50,./completed_changuitos/montage_yegik_66.89_77.06.jpg,right,0,0,0,0,,,,,0,12,12,12,0,0,0,0,,,,,,,,,,,,,,,,,,,,,,,,,,,,,,,,,,,,,,,,,,,,,,,,,,,,,,,,,,,,,447.427334082,448.7164684849995,448.7164684849995,456.72782326000015,right,1,2.144991758999822,456.72782326000015,None,456.72782326000015,None,456.72782326000015,None,,,,,,,,,,,,,,,,,,,,,,,monicaD,001,d,2019_Oct_12_1252,Experimento,3.2.3,59.94334119487734,
8,14,14,999,0.5,0:10,3,,,1,0,0,30:50,,,0,0,0,0,,,,,0,12,12,12,,,,,,,,,,,,,,,,,,,,,,,,,,,,,,,,,,,,,,,,,,,,,,,,,,,,,,,,,,,,,,,,,,,,,,,,,,,,,,,,,,,,,,,,,,,,,,,,,,,,monicaD,001,d,2019_Oct_12_1252,Experimento,3.2.3,59.94334119487734,
8,14,14,999,0.5,0:10,3,,,1,0,0,32:50,./completed_changuitos/montage_hicrg_78.65_69.0.jpg,left,0,0,0,0,,,,,0,13,13,13,0,0,0,0,,,,,,,,,,,,,,,,,,,,,,,,,,,,,,,,,,,,,,,,,,,,,,,,,,,,,,,,,,,,,459.6434315430015,460.89301484099997,460.89301484099997,468.89339871000266,left,1,3.200162391003687,468.89339871000266,None,468.89339871000266,None,468.89339871000266,471.90972528000566,,,,,,,,,,,,,,,,,,,,,,,monicaD,001,d,2019_Oct_12_1252,Experimento,3.2.3,59.94334119487734,
8,14,14,999,0.5,0:10,3,,,1,0,0,32:50,,,0,0,0,0,,,,,0,13,13,13,,,,,,,,,,,,,,,,,,,,,,,,,,,,,,,,,,,,,,,,,,,,,,,,,,,,,,,,,,,,,,,,,,,,,,,,,,,,,,,,,,,,,,,,,,,,,,,,,,,,monicaD,001,d,2019_Oct_12_1252,Experimento,3.2.3,59.94334119487734,
8,14,14,999,0.5,0:10,3,,,1,0,0,34:50,./completed_changuitos/montage_egacw_149.79_171.19.jpg,right,0,0,0,0,,,,,0,14,14,14,0,0,0,0,,,,,,,,,,,,,,,,,,,,,,,,,,,,,,,,,,,,,,,,,,,,,,,,,,,,,,,,,,,,,472.9270519310012,474.76238542700594,474.76238542700594,482.77614055500453,right,1,0.9833798059989931,482.77614055500453,None,482.77614055500453,None,482.77614055500453,None,,,,,,,,,,,,,,,,,,,,,,,monicaD,001,d,2019_Oct_12_1252,Experimento,3.2.3,59.94334119487734,
8,14,14,999,0.5,0:10,3,,,1,0,0,34:50,,,0,0,0,0,,,,,0,14,14,14,,,,,,,,,,,,,,,,,,,,,,,,,,,,,,,,,,,,,,,,,,,,,,,,,,,,,,,,,,,,,,,,,,,,,,,,,,,,,,,,,,,,,,,,,,,,,,,,,,,,monicaD,001,d,2019_Oct_12_1252,Experimento,3.2.3,59.94334119487734,
8,14,14,999,0.5,0:10,3,,,1,0,0,30:50,./completed_changuitos/montage_vwxqi_476.15_555.35.jpg,right,0,0,0,0,,,,,0,15,15,15,0,0,0,0,,,,,,,,,,,,,,,,,,,,,,,,,,,,,,,,,,,,,,,,,,,,,,,,,,,,,,,,,,,,,484.5442938970009,485.9128294980037,485.9128294980037,493.92647404900345,left,0,1.245625215000473,493.92647404900345,None,493.92647404900345,None,493.92647404900345,None,,,,,,,,,,,,,,,,,,,,,,,monicaD,001,d,2019_Oct_12_1252,Experimento,3.2.3,59.94334119487734,
8,14,14,999,0.5,0:10,3,,,1,0,0,30:50,,,0,0,0,0,,,,,0,15,15,15,,,,,,,,,,,,,,,,,,,,,,,,,,,,,,,,,,,,,,,,,,,,,,,,,,,,,,,,,,,,,,,,,,,,,,,,,,,,,,,,,,,,,,,,,,,,,,,,,,,,monicaD,001,d,2019_Oct_12_1252,Experimento,3.2.3,59.94334119487734,
8,14,14,999,0.5,0:10,3,,,1,0,0,32:50,./completed_changuitos/montage_rsouy_407.69_341.35.jpg,left,0,0,0,0,,,,,0,16,16,16,0,0,0,0,,,,,,,,,,,,,,,,,,,,,,,,,,,,,,,,,,,,,,,,,,,,,,,,,,,,,,,,,,,,,495.9599565419994,498.0133011440048,498.0133011440048,506.02568001700274,left,1,1.3178483470037463,506.02568001700274,None,506.02568001700274,None,506.02568001700274,None,,,,,,,,,,,,,,,,,,,,,,,monicaD,001,d,2019_Oct_12_1252,Experimento,3.2.3,59.94334119487734,
8,14,14,999,0.5,0:10,3,,,1,0,0,32:50,,,0,0,0,0,,,,,0,16,16,16,,,,,,,,,,,,,,,,,,,,,,,,,,,,,,,,,,,,,,,,,,,,,,,,,,,,,,,,,,,,,,,,,,,,,,,,,,,,,,,,,,,,,,,,,,,,,,,,,,,,monicaD,001,d,2019_Oct_12_1252,Experimento,3.2.3,59.94334119487734,
8,14,14,999,0.5,0:10,3,,,1,0,0,34:50,./completed_changuitos/montage_qmkpw_199.9_179.75.jpg,left,0,0,0,0,,,,,0,17,17,17,0,0,0,0,,,,,,,,,,,,,,,,,,,,,,,,,,,,,,,,,,,,,,,,,,,,,,,,,,,,,,,,,,,,,508.14299670000037,509.64511415200104,509.64511415200104,517.6592390720034,left,1,1.3746238789972267,517.6592390720034,None,517.6592390720034,None,517.6592390720034,None,,,,,,,,,,,,,,,,,,,,,,,monicaD,001,d,2019_Oct_12_1252,Experimento,3.2.3,59.94334119487734,
8,14,14,999,0.5,0:10,3,,,1,0,0,34:50,,,0,0,0,0,,,,,0,17,17,17,,,,,,,,,,,,,,,,,,,,,,,,,,,,,,,,,,,,,,,,,,,,,,,,,,,,,,,,,,,,,,,,,,,,,,,,,,,,,,,,,,,,,,,,,,,,,,,,,,,,monicaD,001,d,2019_Oct_12_1252,Experimento,3.2.3,59.94334119487734,
8,14,14,999,0.5,0:10,3,,,,,,,,,0,0,0,0,,,,,,,,,,,,,,,,,,,,,,,,,,,,,,,,,,,,,,,,,,,,,,,,,,,,,,,,,,,,,,,,,,,,,,,,,,,,,,,,,,,,,,519.1280736070039,524.2092764640038,3,12.043920191994403,524.2092764640038,None,524.2092764640038,None,c,13.747828038001899,536.2927538050062,None,536.2927538050062,None,536.2927538050062,None,550.0607752020005,None,6,8.572140899996157,550.0607752020005,None,monicaD,001,d,2019_Oct_12_1252,Experimento,3.2.3,59.94334119487734,
