changuito_time_to_show,time_to_think,time_to_play,total_items,nback_stimulus_time,nback_training,time_to_show_tiny_stimulus,colourtest,corresp,inmediato,consciente,inconsciente,nback_slice,imagen,correcta,trials_5.thisRepN,trials_5.thisTrialN,trials_5.thisN,trials_5.thisIndex,nback_train.thisRepN,nback_train.thisTrialN,nback_train.thisN,nback_train.thisIndex,treatment_order.thisRepN,treatment_order.thisTrialN,treatment_order.thisN,treatment_order.thisIndex,trials.thisRepN,trials.thisTrialN,trials.thisN,trials.thisIndex,trials_2.thisRepN,trials_2.thisTrialN,trials_2.thisN,trials_2.thisIndex,trials_3.thisRepN,trials_3.thisTrialN,trials_3.thisN,trials_3.thisIndex,trials_4.thisRepN,trials_4.thisTrialN,trials_4.thisN,trials_4.thisIndex,Presentacion.started,Presentacion.stopped,Juego.started,Juego.stopped,image_6.started,image_6.stopped,polygon.started,polygon.stopped,nback_train_resp.keys,nback_train_resp.corr,nback_train_resp.started,nback_train_resp.stopped,nback_train_resp.rt,hola.started,hola.stopped,image_2.started,image_2.stopped,tiempo_para_pensar.started,tiempo_para_pensar.stopped,respuesta_consciente.keys,respuesta_consciente.corr,respuesta_consciente.rt,respuesta_consciente.started,respuesta_consciente.stopped,cual_es_la_mas_barata.started,cual_es_la_mas_barata.stopped,image_4.started,image_4.stopped,holi.started,holi.stopped,image_3.started,image_3.stopped,polygon_2.started,polygon_2.stopped,nback_train_resp_2.keys,nback_train_resp_2.corr,nback_train_resp_2.started,nback_train_resp_2.stopped,nback_train_resp_2.rt,text_2.started,text_2.stopped,key_resp.keys,key_resp.corr,key_resp.rt,key_resp.started,key_resp.stopped,image_5.started,image_5.stopped,text.started,text.stopped,image.started,image.stopped,respuesta_inmediato.keys,respuesta_inmediato.corr,respuesta_inmediato.rt,respuesta_inmediato.started,respuesta_inmediato.stopped,pregunta_cual_es_el_mas_barato.started,pregunta_cual_es_el_mas_barato.stopped,short_stim1.started,short_stim1.stopped,gracias.started,gracias.stopped,respuesta1.keys,respuesta1.rt,respuesta1.started,respuesta1.stopped,pregunta1.started,pregunta1.stopped,respuesta3bis_3.keys,respuesta3bis_3.rt,respuesta3bis_3.started,respuesta3bis_3.stopped,pregunta3_3.started,pregunta3_3.stopped,productoCon3RANGOSabc_3.started,productoCon3RANGOSabc_3.stopped,text_3.started,text_3.stopped,key_resp_2.keys,key_resp_2.rt,key_resp_2.started,key_resp_2.stopped,participant,session,group,date,expName,psychopyVersion,frameRate,
8,14,14,999,0.5,0:10,3,White,None,,,,,,,0,0,0,0,0,0,0,0,,,,,,,,,,,,,,,,,,,,,10.562944918043286,None,31.03649018310898,None,31.03649018310898,None,47.28020260138237,47.780118711993055,None,1,47.28020260138237,None,,,,,,,,,,,,,,,,,,,,,,,,,,,,,,,,,,,,,,,,,,,,,,,,,,,,,,,,,,,,,,,,,,,,,,,,NicoP,001,c,2019_Nov_08_1524,Experimento,3.2.3,60.00548144870991,
8,14,14,999,0.5,0:10,3,Red,None,,,,,,,0,0,0,0,0,1,1,1,,,,,,,,,,,,,,,,,,,,,,,,,,,49.279721251656156,49.779483717737094,None,1,49.279721251656156,49.279721251656156,,,,,,,,,,,,,,,,,,,,,,,,,,,,,,,,,,,,,,,,,,,,,,,,,,,,,,,,,,,,,,,,,,,,,,,,NicoP,001,c,2019_Nov_08_1524,Experimento,3.2.3,60.00548144870991,
8,14,14,999,0.5,0:10,3,Magenta,None,,,,,,,0,0,0,0,0,2,2,2,,,,,,,,,,,,,,,,,,,,,,,,,,,51.278765619327714,51.7786725688502,None,1,51.278765619327714,51.278765619327714,,,,,,,,,,,,,,,,,,,,,,,,,,,,,,,,,,,,,,,,,,,,,,,,,,,,,,,,,,,,,,,,,,,,,,,,NicoP,001,c,2019_Nov_08_1524,Experimento,3.2.3,60.00548144870991,
8,14,14,999,0.5,0:10,3,Cyan,None,,,,,,,0,0,0,0,0,3,3,3,,,,,,,,,,,,,,,,,,,,,,,,,,,53.27805785986038,53.77788654751839,None,1,53.27805785986038,53.27805785986038,,,,,,,,,,,,,,,,,,,,,,,,,,,,,,,,,,,,,,,,,,,,,,,,,,,,,,,,,,,,,,,,,,,,,,,,NicoP,001,c,2019_Nov_08_1524,Experimento,3.2.3,60.00548144870991,
8,14,14,999,0.5,0:10,3,Magenta,['space'],,,,,,,0,0,0,0,0,4,4,4,,,,,,,,,,,,,,,,,,,,,,,,,,,55.27737993936444,55.77720627131475,['return'],0,55.27737993936444,55.27737993936444,[1.0277528610731679],,,,,,,,,,,,,,,,,,,,,,,,,,,,,,,,,,,,,,,,,,,,,,,,,,,,,,,,,,,,,,,,,,,,,,,NicoP,001,c,2019_Nov_08_1524,Experimento,3.2.3,60.00548144870991,
8,14,14,999,0.5,0:10,3,Green,None,,,,,,,0,0,0,0,0,5,5,5,,,,,,,,,,,,,,,,,,,,,,,,,,,57.27653005216325,57.77647390778202,None,1,57.27653005216325,57.27653005216325,,,,,,,,,,,,,,,,,,,,,,,,,,,,,,,,,,,,,,,,,,,,,,,,,,,,,,,,,,,,,,,,,,,,,,,,NicoP,001,c,2019_Nov_08_1524,Experimento,3.2.3,60.00548144870991,
8,14,14,999,0.5,0:10,3,White,None,,,,,,,0,0,0,0,0,6,6,6,,,,,,,,,,,,,,,,,,,,,,,,,,,59.27582517189512,59.77568369852452,None,1,59.27582517189512,59.27582517189512,,,,,,,,,,,,,,,,,,,,,,,,,,,,,,,,,,,,,,,,,,,,,,,,,,,,,,,,,,,,,,,,,,,,,,,,NicoP,001,c,2019_Nov_08_1524,Experimento,3.2.3,60.00548144870991,
8,14,14,999,0.5,0:10,3,Green,['space'],,,,,,,0,0,0,0,0,7,7,7,,,,,,,,,,,,,,,,,,,,,,,,,,,61.27511374799178,61.7749429591413,['return'],0,61.27511374799178,61.27511374799178,[1.2776956042744132],,,,,,,,,,,,,,,,,,,,,,,,,,,,,,,,,,,,,,,,,,,,,,,,,,,,,,,,,,,,,,,,,,,,,,,NicoP,001,c,2019_Nov_08_1524,Experimento,3.2.3,60.00548144870991,
8,14,14,999,0.5,0:10,3,Blue,None,,,,,,,0,0,0,0,0,8,8,8,,,,,,,,,,,,,,,,,,,,,,,,,,,63.2742625520641,63.774188347253585,None,1,63.2742625520641,63.2742625520641,,,,,,,,,,,,,,,,,,,,,,,,,,,,,,,,,,,,,,,,,,,,,,,,,,,,,,,,,,,,,,,,,,,,,,,,NicoP,001,c,2019_Nov_08_1524,Experimento,3.2.3,60.00548144870991,
8,14,14,999,0.5,0:10,3,Green,['space'],,,,,,,0,0,0,0,0,9,9,9,,,,,,,,,,,,,,,,,,,,,,,,,,,65.27358175236986,65.77336803727849,None,0,65.27358175236986,65.27358175236986,,,,,,,,,,,,,,,,,,,,,,,,,,,,,,,,,,,,,,,,,,,,,,,,,,,,,,,,,,,,,,,,,,,,,,,,NicoP,001,c,2019_Nov_08_1524,Experimento,3.2.3,60.00548144870991,
8,14,14,999,0.5,0:10,3,,,0,1,0,10:50,./completed_changuitos/montage_bhydp_359.99_316.75.jpg,left,0,0,0,0,,,,,0,0,0,0,,,,,0,0,0,0,,,,,,,,,,,,,,,,,,,,,,67.5060016903517,111.63937508817526,111.63937508817526,119.65296516928265,119.65296516928265,133.66433748191048,left,1,3.4447035432731354,133.66433748191048,None,133.66433748191048,None,133.66433748191048,136.67978176718407,,,,,,,,,,,,,,,,,,,,,,,,,,,,,,,,,,,,,,,,,,,,,,,,,,,,,,,,NicoP,001,c,2019_Nov_08_1524,Experimento,3.2.3,60.00548144870991,
8,14,14,999,0.5,0:10,3,,,0,1,0,10:50,,,0,0,0,0,,,,,0,0,0,0,,,,,,,,,,,,,,,,,,,,,,,,,,,,,,,,,,,,,,,,,,,,,,,,,,,,,,,,,,,,,,,,,,,,,,,,,,,,,,,,,,,,,,,,,,,,,,,,,,,,NicoP,001,c,2019_Nov_08_1524,Experimento,3.2.3,60.00548144870991,
8,14,14,999,0.5,0:10,3,Yellow,None,0,0,1,15:50,./completed_changuitos/montage_hteav_178.05_203.09.jpg,right,0,0,0,0,,,,,0,1,1,1,,,,,,,,,0,0,0,0,0,0,0,0,,,,,,,,,,,,,,,,,,,,,,,,,,,,,137.29604002819542,141.76120682412056,141.76120682412056,None,149.80813881508402,150.30799707996903,None,1,149.80813881508402,None,,,,,,,,,,,,,,,,,,,,,,,,,,,,,,,,,,,,,,,,,,,,,,NicoP,001,c,2019_Nov_08_1524,Experimento,3.2.3,60.00548144870991,
8,14,14,999,0.5,0:10,3,White,['space'],0,0,1,15:50,./completed_changuitos/montage_hteav_178.05_203.09.jpg,right,0,0,0,0,,,,,0,1,1,1,,,,,,,,,0,0,0,0,0,1,1,1,,,,,,,,,,,,,,,,,,,,,,,,,,,,,,,,,151.80747476709257,152.3072848708298,None,0,151.80747476709257,151.80747476709257,,,,,,,,,,,,,,,,,,,,,,,,,,,,,,,,,,,,,,,,,,,,,,NicoP,001,c,2019_Nov_08_1524,Experimento,3.2.3,60.00548144870991,
8,14,14,999,0.5,0:10,3,Magenta,None,0,0,1,15:50,./completed_changuitos/montage_hteav_178.05_203.09.jpg,right,0,0,0,0,,,,,0,1,1,1,,,,,,,,,0,0,0,0,0,2,2,2,,,,,,,,,,,,,,,,,,,,,,,,,,,,,,,,,153.8065764569992,154.3064826212858,None,1,153.8065764569992,153.8065764569992,,,,,,,,,,,,,,,,,,,,,,,,,,,,,,,,,,,,,,,,,,,,,,NicoP,001,c,2019_Nov_08_1524,Experimento,3.2.3,60.00548144870991,
8,14,14,999,0.5,0:10,3,Cyan,None,0,0,1,15:50,./completed_changuitos/montage_hteav_178.05_203.09.jpg,right,0,0,0,0,,,,,0,1,1,1,,,,,,,,,0,0,0,0,0,3,3,3,,,,,,,,,,,,,,,,,,,,,,,,,,,,,,,,,155.80589775126737,156.30573324430497,None,1,155.80589775126737,155.80589775126737,,,,,,,,,,,,,,,,,,,,,,,,,,,,,,,,,,,,,,,,,,,,,,NicoP,001,c,2019_Nov_08_1524,Experimento,3.2.3,60.00548144870991,
8,14,14,999,0.5,0:10,3,Blue,None,0,0,1,15:50,./completed_changuitos/montage_hteav_178.05_203.09.jpg,right,0,0,0,0,,,,,0,1,1,1,,,,,,,,,0,0,0,0,0,4,4,4,,,,,,,,,,,,,,,,,,,,,,,,,,,,,,,,,157.80518030722124,158.30502103516665,None,1,157.80518030722124,157.80518030722124,,,,,,,,,,,,,,,,,,,,,,,,,,,,,,,,,,,,,,,,,,,,,,NicoP,001,c,2019_Nov_08_1524,Experimento,3.2.3,60.00548144870991,
8,14,14,999,0.5,0:10,3,Magenta,None,0,0,1,15:50,./completed_changuitos/montage_hteav_178.05_203.09.jpg,right,0,0,0,0,,,,,0,1,1,1,,,,,,,,,0,0,0,0,0,5,5,5,,,,,,,,,,,,,,,,,,,,,,,,,,,,,,,,,159.80432570860376,160.30419522853936,['return'],0,159.80432570860376,159.80432570860376,[0.375482625735458],,,,,,,,,,,,,,,,,,,,,,,,,,,,,,,,,,,,,,,,,,,,,NicoP,001,c,2019_Nov_08_1524,Experimento,3.2.3,60.00548144870991,
8,14,14,999,0.5,0:10,3,Blue,['space'],0,0,1,15:50,./completed_changuitos/montage_hteav_178.05_203.09.jpg,right,0,0,0,0,,,,,0,1,1,1,,,,,,,,,0,0,0,0,0,6,6,6,,,,,,,,,,,,,,,,,,,,,,,,,,,,,,,,,161.80360643233962,162.30339769041166,['return'],0,161.80360643233962,161.80360643233962,[1.2721411058792],,,,,,,,,,,,,,,,,,,,,,,,,,,,,,,,,,,,,,,,,,,,,NicoP,001,c,2019_Nov_08_1524,Experimento,3.2.3,60.00548144870991,
8,14,14,999,0.5,0:10,3,Cyan,None,0,0,1,15:50,./completed_changuitos/montage_hteav_178.05_203.09.jpg,right,0,0,0,0,,,,,0,1,1,1,,,,,,,,,0,0,0,0,0,7,7,7,,,,,,,,,,,,,,,,,,,,,,,,,,,,,,,,,163.78624125017922,None,None,1,163.78624125017922,None,,,,,,,,,,,,,,,,,,,,,,,,,,,,,,,,,,,,,,,,,,,,,,NicoP,001,c,2019_Nov_08_1524,Experimento,3.2.3,60.00548144870991,
8,14,14,999,0.5,0:10,3,Yellow,None,0,0,1,15:50,./completed_changuitos/montage_hteav_178.05_203.09.jpg,right,0,0,0,0,,,,,0,1,1,1,,,,,,,,,0,0,0,0,0,8,8,8,,,,,,,,,,,,,,,,,,,,,,,,,,,,,,,,,163.78624125017922,None,None,1,163.78624125017922,None,,,,,,,,,,,,,,,,,,,,,,,,,,,,,,,,,,,,,,,,,,,,,,NicoP,001,c,2019_Nov_08_1524,Experimento,3.2.3,60.00548144870991,
8,14,14,999,0.5,0:10,3,Cyan,None,0,0,1,15:50,./completed_changuitos/montage_hteav_178.05_203.09.jpg,right,0,0,0,0,,,,,0,1,1,1,,,,,,,,,0,0,0,0,0,9,9,9,,,,,,,,,,,,,,,,,,,,,,,,,,,,,,,,,163.78624125017922,None,None,1,163.78624125017922,None,,,,,,,,,,,,,,,,,,,,,,,,,,,,,,,,,,,,,,,,,,,,,,NicoP,001,c,2019_Nov_08_1524,Experimento,3.2.3,60.00548144870991,
8,14,14,999,0.5,0:10,3,Blue,None,0,0,1,15:50,./completed_changuitos/montage_hteav_178.05_203.09.jpg,right,0,0,0,0,,,,,0,1,1,1,,,,,,,,,0,0,0,0,0,10,10,10,,,,,,,,,,,,,,,,,,,,,,,,,,,,,,,,,163.80291631450962,None,None,1,163.80291631450962,None,,,,,,,,,,,,,,,,,,,,,,,,,,,,,,,,,,,,,,,,,,,,,,NicoP,001,c,2019_Nov_08_1524,Experimento,3.2.3,60.00548144870991,
8,14,14,999,0.5,0:10,3,Cyan,['space'],0,0,1,15:50,./completed_changuitos/montage_hteav_178.05_203.09.jpg,right,0,0,0,0,,,,,0,1,1,1,,,,,,,,,0,0,0,0,0,11,11,11,,,,,,,,,,,,,,,,,,,,,,,,,,,,,,,,,163.80291631450962,None,None,0,163.80291631450962,None,,,,,,,,,,,,,,,,,,,,,,,,,,,,,,,,,,,,,,,,,,,,,,NicoP,001,c,2019_Nov_08_1524,Experimento,3.2.3,60.00548144870991,
8,14,14,999,0.5,0:10,3,Magenta,None,0,0,1,15:50,./completed_changuitos/montage_hteav_178.05_203.09.jpg,right,0,0,0,0,,,,,0,1,1,1,,,,,,,,,0,0,0,0,0,12,12,12,,,,,,,,,,,,,,,,,,,,,,,,,,,,,,,,,163.80291631450962,None,None,1,163.80291631450962,None,,,,,,,,,,,,,,,,,,,,,,,,,,,,,,,,,,,,,,,,,,,,,,NicoP,001,c,2019_Nov_08_1524,Experimento,3.2.3,60.00548144870991,
8,14,14,999,0.5,0:10,3,Red,None,0,0,1,15:50,./completed_changuitos/montage_hteav_178.05_203.09.jpg,right,0,0,0,0,,,,,0,1,1,1,,,,,,,,,0,0,0,0,0,13,13,13,,,,,,,,,,,,,,,,,,,,,,,,,,,,,,,,,163.81959137884004,None,None,1,163.81959137884004,None,,,,,,,,,,,,,,,,,,,,,,,,,,,,,,,,,,,,,,,,,,,,,,NicoP,001,c,2019_Nov_08_1524,Experimento,3.2.3,60.00548144870991,
8,14,14,999,0.5,0:10,3,Magenta,['space'],0,0,1,15:50,./completed_changuitos/montage_hteav_178.05_203.09.jpg,right,0,0,0,0,,,,,0,1,1,1,,,,,,,,,0,0,0,0,0,14,14,14,,,,,,,,,,,,,,,,,,,,,,,,,,,,,,,,,163.81959137884004,None,None,0,163.81959137884004,None,,,,,,,,,,,,,,,,,,,,,,,,,,,,,,,,,,,,,,,,,,,,,,NicoP,001,c,2019_Nov_08_1524,Experimento,3.2.3,60.00548144870991,
8,14,14,999,0.5,0:10,3,Green,None,0,0,1,15:50,./completed_changuitos/montage_hteav_178.05_203.09.jpg,right,0,0,0,0,,,,,0,1,1,1,,,,,,,,,0,0,0,0,0,15,15,15,,,,,,,,,,,,,,,,,,,,,,,,,,,,,,,,,163.81959137884004,None,None,1,163.81959137884004,None,,,,,,,,,,,,,,,,,,,,,,,,,,,,,,,,,,,,,,,,,,,,,,NicoP,001,c,2019_Nov_08_1524,Experimento,3.2.3,60.00548144870991,
8,14,14,999,0.5,0:10,3,Yellow,['space'],0,0,1,15:50,./completed_changuitos/montage_hteav_178.05_203.09.jpg,right,0,0,0,0,,,,,0,1,1,1,,,,,,,,,0,0,0,0,0,16,16,16,,,,,,,,,,,,,,,,,,,,,,,,,,,,,,,,,163.83626644317044,None,None,0,163.83626644317044,None,,,,,,,,,,,,,,,,,,,,,,,,,,,,,,,,,,,,,,,,,,,,,,NicoP,001,c,2019_Nov_08_1524,Experimento,3.2.3,60.00548144870991,
8,14,14,999,0.5,0:10,3,Blue,None,0,0,1,15:50,./completed_changuitos/montage_hteav_178.05_203.09.jpg,right,0,0,0,0,,,,,0,1,1,1,,,,,,,,,0,0,0,0,0,17,17,17,,,,,,,,,,,,,,,,,,,,,,,,,,,,,,,,,163.83626644317044,None,None,1,163.83626644317044,None,,,,,,,,,,,,,,,,,,,,,,,,,,,,,,,,,,,,,,,,,,,,,,NicoP,001,c,2019_Nov_08_1524,Experimento,3.2.3,60.00548144870991,
8,14,14,999,0.5,0:10,3,Cyan,None,0,0,1,15:50,./completed_changuitos/montage_hteav_178.05_203.09.jpg,right,0,0,0,0,,,,,0,1,1,1,,,,,,,,,0,0,0,0,0,18,18,18,,,,,,,,,,,,,,,,,,,,,,,,,,,,,,,,,163.83626644317044,None,None,1,163.83626644317044,None,,,,,,,,,,,,,,,,,,,,,,,,,,,,,,,,,,,,,,,,,,,,,,NicoP,001,c,2019_Nov_08_1524,Experimento,3.2.3,60.00548144870991,
8,14,14,999,0.5,0:10,3,Blue,['space'],0,0,1,15:50,./completed_changuitos/montage_hteav_178.05_203.09.jpg,right,0,0,0,0,,,,,0,1,1,1,,,,,,,,,0,0,0,0,0,19,19,19,,,,,,,,,,,,,,,,,,,,,,,,,,,,,,,,,163.83626644317044,None,None,0,163.83626644317044,None,,,,,,,,,,,,,,,,,,,,,,,,,,,,,,,,,,,,,,,,,,,,,,NicoP,001,c,2019_Nov_08_1524,Experimento,3.2.3,60.00548144870991,
8,14,14,999,0.5,0:10,3,Yellow,None,0,0,1,15:50,./completed_changuitos/montage_hteav_178.05_203.09.jpg,right,0,0,0,0,,,,,0,1,1,1,,,,,,,,,0,0,0,0,0,20,20,20,,,,,,,,,,,,,,,,,,,,,,,,,,,,,,,,,163.85294150750087,None,None,1,163.85294150750087,None,,,,,,,,,,,,,,,,,,,,,,,,,,,,,,,,,,,,,,,,,,,,,,NicoP,001,c,2019_Nov_08_1524,Experimento,3.2.3,60.00548144870991,
8,14,14,999,0.5,0:10,3,Cyan,None,0,0,1,15:50,./completed_changuitos/montage_hteav_178.05_203.09.jpg,right,0,0,0,0,,,,,0,1,1,1,,,,,,,,,0,0,0,0,0,21,21,21,,,,,,,,,,,,,,,,,,,,,,,,,,,,,,,,,163.85294150750087,None,None,1,163.85294150750087,None,,,,,,,,,,,,,,,,,,,,,,,,,,,,,,,,,,,,,,,,,,,,,,NicoP,001,c,2019_Nov_08_1524,Experimento,3.2.3,60.00548144870991,
8,14,14,999,0.5,0:10,3,Yellow,['space'],0,0,1,15:50,./completed_changuitos/montage_hteav_178.05_203.09.jpg,right,0,0,0,0,,,,,0,1,1,1,,,,,,,,,0,0,0,0,0,22,22,22,,,,,,,,,,,,,,,,,,,,,,,,,,,,,,,,,163.85294150750087,None,None,0,163.85294150750087,None,,,,,,,,,,,,,,,,,,,,,,,,,,,,,,,,,,,,,,,,,,,,,,NicoP,001,c,2019_Nov_08_1524,Experimento,3.2.3,60.00548144870991,
8,14,14,999,0.5,0:10,3,Magenta,None,0,0,1,15:50,./completed_changuitos/montage_hteav_178.05_203.09.jpg,right,0,0,0,0,,,,,0,1,1,1,,,,,,,,,0,0,0,0,0,23,23,23,,,,,,,,,,,,,,,,,,,,,,,,,,,,,,,,,163.85294150750087,None,None,1,163.85294150750087,None,,,,,,,,,,,,,,,,,,,,,,,,,,,,,,,,,,,,,,,,,,,,,,NicoP,001,c,2019_Nov_08_1524,Experimento,3.2.3,60.00548144870991,
8,14,14,999,0.5,0:10,3,Red,None,0,0,1,15:50,./completed_changuitos/montage_hteav_178.05_203.09.jpg,right,0,0,0,0,,,,,0,1,1,1,,,,,,,,,0,0,0,0,0,24,24,24,,,,,,,,,,,,,,,,,,,,,,,,,,,,,,,,,163.85294150750087,None,None,1,163.85294150750087,None,,,,,,,,,,,,,,,,,,,,,,,,,,,,,,,,,,,,,,,,,,,,,,NicoP,001,c,2019_Nov_08_1524,Experimento,3.2.3,60.00548144870991,
8,14,14,999,0.5,0:10,3,Magenta,['space'],0,0,1,15:50,./completed_changuitos/montage_hteav_178.05_203.09.jpg,right,0,0,0,0,,,,,0,1,1,1,,,,,,,,,0,0,0,0,0,25,25,25,,,,,,,,,,,,,,,,,,,,,,,,,,,,,,,,,163.86961657183127,None,None,0,163.86961657183127,None,,,,,,,,,,,,,,,,,,,,,,,,,,,,,,,,,,,,,,,,,,,,,,NicoP,001,c,2019_Nov_08_1524,Experimento,3.2.3,60.00548144870991,
8,14,14,999,0.5,0:10,3,Red,['space'],0,0,1,15:50,./completed_changuitos/montage_hteav_178.05_203.09.jpg,right,0,0,0,0,,,,,0,1,1,1,,,,,,,,,0,0,0,0,0,26,26,26,,,,,,,,,,,,,,,,,,,,,,,,,,,,,,,,,163.86961657183127,None,None,0,163.86961657183127,None,,,,,,,,,,,,,,,,,,,,,,,,,,,,,,,,,,,,,,,,,,,,,,NicoP,001,c,2019_Nov_08_1524,Experimento,3.2.3,60.00548144870991,
8,14,14,999,0.5,0:10,3,Yellow,None,0,0,1,15:50,./completed_changuitos/montage_hteav_178.05_203.09.jpg,right,0,0,0,0,,,,,0,1,1,1,,,,,,,,,0,0,0,0,0,27,27,27,,,,,,,,,,,,,,,,,,,,,,,,,,,,,,,,,163.86961657183127,None,None,1,163.86961657183127,None,,,,,,,,,,,,,,,,,,,,,,,,,,,,,,,,,,,,,,,,,,,,,,NicoP,001,c,2019_Nov_08_1524,Experimento,3.2.3,60.00548144870991,
8,14,14,999,0.5,0:10,3,Cyan,None,0,0,1,15:50,./completed_changuitos/montage_hteav_178.05_203.09.jpg,right,0,0,0,0,,,,,0,1,1,1,,,,,,,,,0,0,0,0,0,28,28,28,,,,,,,,,,,,,,,,,,,,,,,,,,,,,,,,,163.86961657183127,None,None,1,163.86961657183127,None,,,,,,,,,,,,,,,,,,,,,,,,,,,,,,,,,,,,,,,,,,,,,,NicoP,001,c,2019_Nov_08_1524,Experimento,3.2.3,60.00548144870991,
8,14,14,999,0.5,0:10,3,Green,None,0,0,1,15:50,./completed_changuitos/montage_hteav_178.05_203.09.jpg,right,0,0,0,0,,,,,0,1,1,1,,,,,,,,,0,0,0,0,0,29,29,29,,,,,,,,,,,,,,,,,,,,,,,,,,,,,,,,,163.86961657183127,None,None,1,163.86961657183127,None,,,,,,,,,,,,,,,,,,,,,,,,,,,,,,,,,,,,,,,,,,,,,,NicoP,001,c,2019_Nov_08_1524,Experimento,3.2.3,60.00548144870991,
8,14,14,999,0.5,0:10,3,White,None,0,0,1,15:50,./completed_changuitos/montage_hteav_178.05_203.09.jpg,right,0,0,0,0,,,,,0,1,1,1,,,,,,,,,0,0,0,0,0,30,30,30,,,,,,,,,,,,,,,,,,,,,,,,,,,,,,,,,163.86961657183127,None,None,1,163.86961657183127,None,,,,,,,,,,,,,,,,,,,,,,,,,,,,,,,,,,,,,,,,,,,,,,NicoP,001,c,2019_Nov_08_1524,Experimento,3.2.3,60.00548144870991,
8,14,14,999,0.5,0:10,3,Green,['space'],0,0,1,15:50,./completed_changuitos/montage_hteav_178.05_203.09.jpg,right,0,0,0,0,,,,,0,1,1,1,,,,,,,,,0,0,0,0,0,31,31,31,,,,,,,,,,,,,,,,,,,,,,,,,,,,,,,,,163.88629163616167,None,None,0,163.88629163616167,None,,,,,,,,,,,,,,,,,,,,,,,,,,,,,,,,,,,,,,,,,,,,,,NicoP,001,c,2019_Nov_08_1524,Experimento,3.2.3,60.00548144870991,
8,14,14,999,0.5,0:10,3,Red,None,0,0,1,15:50,./completed_changuitos/montage_hteav_178.05_203.09.jpg,right,0,0,0,0,,,,,0,1,1,1,,,,,,,,,0,0,0,0,0,32,32,32,,,,,,,,,,,,,,,,,,,,,,,,,,,,,,,,,163.88629163616167,None,None,1,163.88629163616167,None,,,,,,,,,,,,,,,,,,,,,,,,,,,,,,,,,,,,,,,,,,,,,,NicoP,001,c,2019_Nov_08_1524,Experimento,3.2.3,60.00548144870991,
8,14,14,999,0.5,0:10,3,Blue,None,0,0,1,15:50,./completed_changuitos/montage_hteav_178.05_203.09.jpg,right,0,0,0,0,,,,,0,1,1,1,,,,,,,,,0,0,0,0,0,33,33,33,,,,,,,,,,,,,,,,,,,,,,,,,,,,,,,,,163.88629163616167,None,None,1,163.88629163616167,None,,,,,,,,,,,,,,,,,,,,,,,,,,,,,,,,,,,,,,,,,,,,,,NicoP,001,c,2019_Nov_08_1524,Experimento,3.2.3,60.00548144870991,
8,14,14,999,0.5,0:10,3,Green,None,0,0,1,15:50,./completed_changuitos/montage_hteav_178.05_203.09.jpg,right,0,0,0,0,,,,,0,1,1,1,,,,,,,,,0,0,0,0,0,34,34,34,,,,,,,,,,,,,,,,,,,,,,,,,,,,,,,,,163.88629163616167,None,None,1,163.88629163616167,None,,,,,,,,,,,,,,,,,,,,,,,,,,,,,,,,,,,,,,,,,,,,,,NicoP,001,c,2019_Nov_08_1524,Experimento,3.2.3,60.00548144870991,
8,14,14,999,0.5,0:10,3,,,0,0,1,15:50,./completed_changuitos/montage_hteav_178.05_203.09.jpg,right,0,0,0,0,,,,,0,1,1,1,,,,,,,,,0,0,0,0,,,,,,,,,,,,,,,,,,,,,,,,,,,,,,,,,,,,,,,,,,,,163.9571664179648,None,right,1,3.41890016168054,163.9571664179648,None,163.9571664179648,166.9683447772768,,,,,,,,,,,,,,,,,,,,,,,,,,,,,,,,,,,,NicoP,001,c,2019_Nov_08_1524,Experimento,3.2.3,60.00548144870991,
8,14,14,999,0.5,0:10,3,,,0,0,1,15:50,,,0,0,0,0,,,,,0,1,1,1,,,,,,,,,,,,,,,,,,,,,,,,,,,,,,,,,,,,,,,,,,,,,,,,,,,,,,,,,,,,,,,,,,,,,,,,,,,,,,,,,,,,,,,,,,,,,,,,,,,,NicoP,001,c,2019_Nov_08_1524,Experimento,3.2.3,60.00548144870991,
8,14,14,999,0.5,0:10,3,Magenta,None,0,0,1,20:50,./completed_changuitos/montage_eahsy_99.0_85.49.jpg,left,0,0,0,0,,,,,0,2,2,2,,,,,,,,,0,0,0,0,0,0,0,0,,,,,,,,,,,,,,,,,,,,,,,,,,,,,167.71791989911253,175.2152151533819,175.2152151533819,None,183.2620160099168,183.76202111395196,None,1,183.2620160099168,None,,,,,,,,,,,,,,,,,,,,,,,,,,,,,,,,,,,,,,,,,,,,,,NicoP,001,c,2019_Nov_08_1524,Experimento,3.2.3,60.00548144870991,
8,14,14,999,0.5,0:10,3,Blue,['space'],0,0,1,20:50,./completed_changuitos/montage_eahsy_99.0_85.49.jpg,left,0,0,0,0,,,,,0,2,2,2,,,,,,,,,0,0,0,0,0,1,1,1,,,,,,,,,,,,,,,,,,,,,,,,,,,,,,,,,185.26139776736454,185.76123352214745,None,0,185.26139776736454,185.26139776736454,,,,,,,,,,,,,,,,,,,,,,,,,,,,,,,,,,,,,,,,,,,,,,NicoP,001,c,2019_Nov_08_1524,Experimento,3.2.3,60.00548144870991,
8,14,14,999,0.5,0:10,3,Cyan,None,0,0,1,20:50,./completed_changuitos/montage_eahsy_99.0_85.49.jpg,left,0,0,0,0,,,,,0,2,2,2,,,,,,,,,0,0,0,0,0,2,2,2,,,,,,,,,,,,,,,,,,,,,,,,,,,,,,,,,187.26059028291274,187.76042656118716,None,1,187.26059028291274,187.26059028291274,,,,,,,,,,,,,,,,,,,,,,,,,,,,,,,,,,,,,,,,,,,,,,NicoP,001,c,2019_Nov_08_1524,Experimento,3.2.3,60.00548144870991,
8,14,14,999,0.5,0:10,3,Yellow,None,0,0,1,20:50,./completed_changuitos/montage_eahsy_99.0_85.49.jpg,left,0,0,0,0,,,,,0,2,2,2,,,,,,,,,0,0,0,0,0,3,3,3,,,,,,,,,,,,,,,,,,,,,,,,,,,,,,,,,189.25977625482665,189.75969498289123,None,1,189.25977625482665,189.25977625482665,,,,,,,,,,,,,,,,,,,,,,,,,,,,,,,,,,,,,,,,,,,,,,NicoP,001,c,2019_Nov_08_1524,Experimento,3.2.3,60.00548144870991,
8,14,14,999,0.5,0:10,3,Cyan,None,0,0,1,20:50,./completed_changuitos/montage_eahsy_99.0_85.49.jpg,left,0,0,0,0,,,,,0,2,2,2,,,,,,,,,0,0,0,0,0,4,4,4,,,,,,,,,,,,,,,,,,,,,,,,,,,,,,,,,191.2590860322989,191.75889665952764,['return'],0,191.2590860322989,191.2590860322989,[0.3670601833737237],,,,,,,,,,,,,,,,,,,,,,,,,,,,,,,,,,,,,,,,,,,,,NicoP,001,c,2019_Nov_08_1524,Experimento,3.2.3,60.00548144870991,
8,14,14,999,0.5,0:10,3,Blue,None,0,0,1,20:50,./completed_changuitos/montage_eahsy_99.0_85.49.jpg,left,0,0,0,0,,,,,0,2,2,2,,,,,,,,,0,0,0,0,0,5,5,5,,,,,,,,,,,,,,,,,,,,,,,,,,,,,,,,,193.2583316821565,193.7581491147639,None,1,193.2583316821565,193.2583316821565,,,,,,,,,,,,,,,,,,,,,,,,,,,,,,,,,,,,,,,,,,,,,,NicoP,001,c,2019_Nov_08_1524,Experimento,3.2.3,60.00548144870991,
8,14,14,999,0.5,0:10,3,Cyan,['space'],0,0,1,20:50,./completed_changuitos/montage_eahsy_99.0_85.49.jpg,left,0,0,0,0,,,,,0,2,2,2,,,,,,,,,0,0,0,0,0,6,6,6,,,,,,,,,,,,,,,,,,,,,,,,,,,,,,,,,195.2575045668027,195.7574088988713,None,0,195.2575045668027,195.2575045668027,,,,,,,,,,,,,,,,,,,,,,,,,,,,,,,,,,,,,,,,,,,,,,NicoP,001,c,2019_Nov_08_1524,Experimento,3.2.3,60.00548144870991,
8,14,14,999,0.5,0:10,3,Magenta,None,0,0,1,20:50,./completed_changuitos/montage_eahsy_99.0_85.49.jpg,left,0,0,0,0,,,,,0,2,2,2,,,,,,,,,0,0,0,0,0,7,7,7,,,,,,,,,,,,,,,,,,,,,,,,,,,,,,,,,197.24018676055329,None,None,1,197.24018676055329,None,,,,,,,,,,,,,,,,,,,,,,,,,,,,,,,,,,,,,,,,,,,,,,NicoP,001,c,2019_Nov_08_1524,Experimento,3.2.3,60.00548144870991,
8,14,14,999,0.5,0:10,3,Red,None,0,0,1,20:50,./completed_changuitos/montage_eahsy_99.0_85.49.jpg,left,0,0,0,0,,,,,0,2,2,2,,,,,,,,,0,0,0,0,0,8,8,8,,,,,,,,,,,,,,,,,,,,,,,,,,,,,,,,,197.24018676055329,None,None,1,197.24018676055329,None,,,,,,,,,,,,,,,,,,,,,,,,,,,,,,,,,,,,,,,,,,,,,,NicoP,001,c,2019_Nov_08_1524,Experimento,3.2.3,60.00548144870991,
8,14,14,999,0.5,0:10,3,Magenta,['space'],0,0,1,20:50,./completed_changuitos/montage_eahsy_99.0_85.49.jpg,left,0,0,0,0,,,,,0,2,2,2,,,,,,,,,0,0,0,0,0,9,9,9,,,,,,,,,,,,,,,,,,,,,,,,,,,,,,,,,197.24018676055329,None,None,0,197.24018676055329,None,,,,,,,,,,,,,,,,,,,,,,,,,,,,,,,,,,,,,,,,,,,,,,NicoP,001,c,2019_Nov_08_1524,Experimento,3.2.3,60.00548144870991,
8,14,14,999,0.5,0:10,3,Green,None,0,0,1,20:50,./completed_changuitos/montage_eahsy_99.0_85.49.jpg,left,0,0,0,0,,,,,0,2,2,2,,,,,,,,,0,0,0,0,0,10,10,10,,,,,,,,,,,,,,,,,,,,,,,,,,,,,,,,,197.25686182488369,None,None,1,197.25686182488369,None,,,,,,,,,,,,,,,,,,,,,,,,,,,,,,,,,,,,,,,,,,,,,,NicoP,001,c,2019_Nov_08_1524,Experimento,3.2.3,60.00548144870991,
8,14,14,999,0.5,0:10,3,Yellow,['space'],0,0,1,20:50,./completed_changuitos/montage_eahsy_99.0_85.49.jpg,left,0,0,0,0,,,,,0,2,2,2,,,,,,,,,0,0,0,0,0,11,11,11,,,,,,,,,,,,,,,,,,,,,,,,,,,,,,,,,197.25686182488369,None,None,0,197.25686182488369,None,,,,,,,,,,,,,,,,,,,,,,,,,,,,,,,,,,,,,,,,,,,,,,NicoP,001,c,2019_Nov_08_1524,Experimento,3.2.3,60.00548144870991,
8,14,14,999,0.5,0:10,3,Blue,None,0,0,1,20:50,./completed_changuitos/montage_eahsy_99.0_85.49.jpg,left,0,0,0,0,,,,,0,2,2,2,,,,,,,,,0,0,0,0,0,12,12,12,,,,,,,,,,,,,,,,,,,,,,,,,,,,,,,,,197.25686182488369,None,None,1,197.25686182488369,None,,,,,,,,,,,,,,,,,,,,,,,,,,,,,,,,,,,,,,,,,,,,,,NicoP,001,c,2019_Nov_08_1524,Experimento,3.2.3,60.00548144870991,
8,14,14,999,0.5,0:10,3,Cyan,None,0,0,1,20:50,./completed_changuitos/montage_eahsy_99.0_85.49.jpg,left,0,0,0,0,,,,,0,2,2,2,,,,,,,,,0,0,0,0,0,13,13,13,,,,,,,,,,,,,,,,,,,,,,,,,,,,,,,,,197.2735368892141,None,None,1,197.2735368892141,None,,,,,,,,,,,,,,,,,,,,,,,,,,,,,,,,,,,,,,,,,,,,,,NicoP,001,c,2019_Nov_08_1524,Experimento,3.2.3,60.00548144870991,
8,14,14,999,0.5,0:10,3,Blue,['space'],0,0,1,20:50,./completed_changuitos/montage_eahsy_99.0_85.49.jpg,left,0,0,0,0,,,,,0,2,2,2,,,,,,,,,0,0,0,0,0,14,14,14,,,,,,,,,,,,,,,,,,,,,,,,,,,,,,,,,197.2735368892141,None,None,0,197.2735368892141,None,,,,,,,,,,,,,,,,,,,,,,,,,,,,,,,,,,,,,,,,,,,,,,NicoP,001,c,2019_Nov_08_1524,Experimento,3.2.3,60.00548144870991,
8,14,14,999,0.5,0:10,3,Yellow,None,0,0,1,20:50,./completed_changuitos/montage_eahsy_99.0_85.49.jpg,left,0,0,0,0,,,,,0,2,2,2,,,,,,,,,0,0,0,0,0,15,15,15,,,,,,,,,,,,,,,,,,,,,,,,,,,,,,,,,197.2735368892141,None,None,1,197.2735368892141,None,,,,,,,,,,,,,,,,,,,,,,,,,,,,,,,,,,,,,,,,,,,,,,NicoP,001,c,2019_Nov_08_1524,Experimento,3.2.3,60.00548144870991,
8,14,14,999,0.5,0:10,3,Cyan,None,0,0,1,20:50,./completed_changuitos/montage_eahsy_99.0_85.49.jpg,left,0,0,0,0,,,,,0,2,2,2,,,,,,,,,0,0,0,0,0,16,16,16,,,,,,,,,,,,,,,,,,,,,,,,,,,,,,,,,197.2902119535445,None,None,1,197.2902119535445,None,,,,,,,,,,,,,,,,,,,,,,,,,,,,,,,,,,,,,,,,,,,,,,NicoP,001,c,2019_Nov_08_1524,Experimento,3.2.3,60.00548144870991,
8,14,14,999,0.5,0:10,3,Yellow,['space'],0,0,1,20:50,./completed_changuitos/montage_eahsy_99.0_85.49.jpg,left,0,0,0,0,,,,,0,2,2,2,,,,,,,,,0,0,0,0,0,17,17,17,,,,,,,,,,,,,,,,,,,,,,,,,,,,,,,,,197.2902119535445,None,None,0,197.2902119535445,None,,,,,,,,,,,,,,,,,,,,,,,,,,,,,,,,,,,,,,,,,,,,,,NicoP,001,c,2019_Nov_08_1524,Experimento,3.2.3,60.00548144870991,
8,14,14,999,0.5,0:10,3,Magenta,None,0,0,1,20:50,./completed_changuitos/montage_eahsy_99.0_85.49.jpg,left,0,0,0,0,,,,,0,2,2,2,,,,,,,,,0,0,0,0,0,18,18,18,,,,,,,,,,,,,,,,,,,,,,,,,,,,,,,,,197.2902119535445,None,None,1,197.2902119535445,None,,,,,,,,,,,,,,,,,,,,,,,,,,,,,,,,,,,,,,,,,,,,,,NicoP,001,c,2019_Nov_08_1524,Experimento,3.2.3,60.00548144870991,
8,14,14,999,0.5,0:10,3,Red,None,0,0,1,20:50,./completed_changuitos/montage_eahsy_99.0_85.49.jpg,left,0,0,0,0,,,,,0,2,2,2,,,,,,,,,0,0,0,0,0,19,19,19,,,,,,,,,,,,,,,,,,,,,,,,,,,,,,,,,197.2902119535445,None,None,1,197.2902119535445,None,,,,,,,,,,,,,,,,,,,,,,,,,,,,,,,,,,,,,,,,,,,,,,NicoP,001,c,2019_Nov_08_1524,Experimento,3.2.3,60.00548144870991,
8,14,14,999,0.5,0:10,3,Magenta,['space'],0,0,1,20:50,./completed_changuitos/montage_eahsy_99.0_85.49.jpg,left,0,0,0,0,,,,,0,2,2,2,,,,,,,,,0,0,0,0,0,20,20,20,,,,,,,,,,,,,,,,,,,,,,,,,,,,,,,,,197.2902119535445,None,None,0,197.2902119535445,None,,,,,,,,,,,,,,,,,,,,,,,,,,,,,,,,,,,,,,,,,,,,,,NicoP,001,c,2019_Nov_08_1524,Experimento,3.2.3,60.00548144870991,
8,14,14,999,0.5,0:10,3,Red,['space'],0,0,1,20:50,./completed_changuitos/montage_eahsy_99.0_85.49.jpg,left,0,0,0,0,,,,,0,2,2,2,,,,,,,,,0,0,0,0,0,21,21,21,,,,,,,,,,,,,,,,,,,,,,,,,,,,,,,,,197.30688701787494,None,None,0,197.30688701787494,None,,,,,,,,,,,,,,,,,,,,,,,,,,,,,,,,,,,,,,,,,,,,,,NicoP,001,c,2019_Nov_08_1524,Experimento,3.2.3,60.00548144870991,
8,14,14,999,0.5,0:10,3,Yellow,None,0,0,1,20:50,./completed_changuitos/montage_eahsy_99.0_85.49.jpg,left,0,0,0,0,,,,,0,2,2,2,,,,,,,,,0,0,0,0,0,22,22,22,,,,,,,,,,,,,,,,,,,,,,,,,,,,,,,,,197.30688701787494,None,None,1,197.30688701787494,None,,,,,,,,,,,,,,,,,,,,,,,,,,,,,,,,,,,,,,,,,,,,,,NicoP,001,c,2019_Nov_08_1524,Experimento,3.2.3,60.00548144870991,
8,14,14,999,0.5,0:10,3,Cyan,None,0,0,1,20:50,./completed_changuitos/montage_eahsy_99.0_85.49.jpg,left,0,0,0,0,,,,,0,2,2,2,,,,,,,,,0,0,0,0,0,23,23,23,,,,,,,,,,,,,,,,,,,,,,,,,,,,,,,,,197.30688701787494,None,None,1,197.30688701787494,None,,,,,,,,,,,,,,,,,,,,,,,,,,,,,,,,,,,,,,,,,,,,,,NicoP,001,c,2019_Nov_08_1524,Experimento,3.2.3,60.00548144870991,
8,14,14,999,0.5,0:10,3,Green,None,0,0,1,20:50,./completed_changuitos/montage_eahsy_99.0_85.49.jpg,left,0,0,0,0,,,,,0,2,2,2,,,,,,,,,0,0,0,0,0,24,24,24,,,,,,,,,,,,,,,,,,,,,,,,,,,,,,,,,197.30688701787494,None,None,1,197.30688701787494,None,,,,,,,,,,,,,,,,,,,,,,,,,,,,,,,,,,,,,,,,,,,,,,NicoP,001,c,2019_Nov_08_1524,Experimento,3.2.3,60.00548144870991,
8,14,14,999,0.5,0:10,3,White,None,0,0,1,20:50,./completed_changuitos/montage_eahsy_99.0_85.49.jpg,left,0,0,0,0,,,,,0,2,2,2,,,,,,,,,0,0,0,0,0,25,25,25,,,,,,,,,,,,,,,,,,,,,,,,,,,,,,,,,197.30688701787494,None,None,1,197.30688701787494,None,,,,,,,,,,,,,,,,,,,,,,,,,,,,,,,,,,,,,,,,,,,,,,NicoP,001,c,2019_Nov_08_1524,Experimento,3.2.3,60.00548144870991,
8,14,14,999,0.5,0:10,3,Green,['space'],0,0,1,20:50,./completed_changuitos/montage_eahsy_99.0_85.49.jpg,left,0,0,0,0,,,,,0,2,2,2,,,,,,,,,0,0,0,0,0,26,26,26,,,,,,,,,,,,,,,,,,,,,,,,,,,,,,,,,197.32356208220534,None,None,0,197.32356208220534,None,,,,,,,,,,,,,,,,,,,,,,,,,,,,,,,,,,,,,,,,,,,,,,NicoP,001,c,2019_Nov_08_1524,Experimento,3.2.3,60.00548144870991,
8,14,14,999,0.5,0:10,3,Red,None,0,0,1,20:50,./completed_changuitos/montage_eahsy_99.0_85.49.jpg,left,0,0,0,0,,,,,0,2,2,2,,,,,,,,,0,0,0,0,0,27,27,27,,,,,,,,,,,,,,,,,,,,,,,,,,,,,,,,,197.32356208220534,None,None,1,197.32356208220534,None,,,,,,,,,,,,,,,,,,,,,,,,,,,,,,,,,,,,,,,,,,,,,,NicoP,001,c,2019_Nov_08_1524,Experimento,3.2.3,60.00548144870991,
8,14,14,999,0.5,0:10,3,Blue,None,0,0,1,20:50,./completed_changuitos/montage_eahsy_99.0_85.49.jpg,left,0,0,0,0,,,,,0,2,2,2,,,,,,,,,0,0,0,0,0,28,28,28,,,,,,,,,,,,,,,,,,,,,,,,,,,,,,,,,197.32356208220534,None,None,1,197.32356208220534,None,,,,,,,,,,,,,,,,,,,,,,,,,,,,,,,,,,,,,,,,,,,,,,NicoP,001,c,2019_Nov_08_1524,Experimento,3.2.3,60.00548144870991,
8,14,14,999,0.5,0:10,3,Green,None,0,0,1,20:50,./completed_changuitos/montage_eahsy_99.0_85.49.jpg,left,0,0,0,0,,,,,0,2,2,2,,,,,,,,,0,0,0,0,0,29,29,29,,,,,,,,,,,,,,,,,,,,,,,,,,,,,,,,,197.32356208220534,None,None,1,197.32356208220534,None,,,,,,,,,,,,,,,,,,,,,,,,,,,,,,,,,,,,,,,,,,,,,,NicoP,001,c,2019_Nov_08_1524,Experimento,3.2.3,60.00548144870991,
8,14,14,999,0.5,0:10,3,,,0,0,1,20:50,./completed_changuitos/montage_eahsy_99.0_85.49.jpg,left,0,0,0,0,,,,,0,2,2,2,,,,,,,,,0,0,0,0,,,,,,,,,,,,,,,,,,,,,,,,,,,,,,,,,,,,,,,,,,,,197.38994431890842,None,left,1,1.9409007757349173,197.38994431890842,None,197.38994431890842,None,,,,,,,,,,,,,,,,,,,,,,,,,,,,,,,,,,,,NicoP,001,c,2019_Nov_08_1524,Experimento,3.2.3,60.00548144870991,
8,14,14,999,0.5,0:10,3,,,0,0,1,20:50,,,0,0,0,0,,,,,0,2,2,2,,,,,,,,,,,,,,,,,,,,,,,,,,,,,,,,,,,,,,,,,,,,,,,,,,,,,,,,,,,,,,,,,,,,,,,,,,,,,,,,,,,,,,,,,,,,,,,,,,,,NicoP,001,c,2019_Nov_08_1524,Experimento,3.2.3,60.00548144870991,
8,14,14,999,0.5,0:10,3,,,0,1,0,25:50,./completed_changuitos/montage_cfqtz_79.19_69.0.jpg,left,0,0,0,0,,,,,0,3,3,3,,,,,0,0,0,0,,,,,,,,,,,,,,,,,,,,,,199.53908970720386,201.85512943700905,201.85512943700905,209.86869910197765,209.86869910197765,223.8800075487361,left,1,1.6885164717668886,223.8800075487361,None,223.8800075487361,None,223.8800075487361,None,,,,,,,,,,,,,,,,,,,,,,,,,,,,,,,,,,,,,,,,,,,,,,,,,,,,,,,,NicoP,001,c,2019_Nov_08_1524,Experimento,3.2.3,60.00548144870991,
8,14,14,999,0.5,0:10,3,,,0,1,0,25:50,,,0,0,0,0,,,,,0,3,3,3,,,,,,,,,,,,,,,,,,,,,,,,,,,,,,,,,,,,,,,,,,,,,,,,,,,,,,,,,,,,,,,,,,,,,,,,,,,,,,,,,,,,,,,,,,,,,,,,,,,,NicoP,001,c,2019_Nov_08_1524,Experimento,3.2.3,60.00548144870991,
8,14,14,999,0.5,0:10,3,,,0,1,0,10:50,./completed_changuitos/montage_suyfw_38.9_34.25.jpg,left,0,0,0,0,,,,,0,4,4,4,,,,,0,0,0,0,,,,,,,,,,,,,,,,,,,,,,225.79658380419187,226.8456741474365,226.8456741474365,234.85931945681568,234.85931945681568,248.87061089012514,left,1,1.8966357082972536,248.87061089012514,None,248.87061089012514,None,248.87061089012514,None,,,,,,,,,,,,,,,,,,,,,,,,,,,,,,,,,,,,,,,,,,,,,,,,,,,,,,,,NicoP,001,c,2019_Nov_08_1524,Experimento,3.2.3,60.00548144870991,
8,14,14,999,0.5,0:10,3,,,0,1,0,10:50,,,0,0,0,0,,,,,0,4,4,4,,,,,,,,,,,,,,,,,,,,,,,,,,,,,,,,,,,,,,,,,,,,,,,,,,,,,,,,,,,,,,,,,,,,,,,,,,,,,,,,,,,,,,,,,,,,,,,,,,,,NicoP,001,c,2019_Nov_08_1524,Experimento,3.2.3,60.00548144870991,
8,14,14,999,0.5,0:10,3,,,0,1,0,19:50,./completed_changuitos/montage_jpcqt_331.69_390.0.jpg,right,0,0,0,0,,,,,0,5,5,5,,,,,0,0,0,0,,,,,,,,,,,,,,,,,,,,,,250.98623847567887,251.88617714874,251.88617714874,259.89979811579997,259.89979811579997,273.9111091800123,left,0,0.918797950114822,273.9111091800123,None,273.9111091800123,None,273.9111091800123,None,,,,,,,,,,,,,,,,,,,,,,,,,,,,,,,,,,,,,,,,,,,,,,,,,,,,,,,,NicoP,001,c,2019_Nov_08_1524,Experimento,3.2.3,60.00548144870991,
8,14,14,999,0.5,0:10,3,,,0,1,0,19:50,,,0,0,0,0,,,,,0,5,5,5,,,,,,,,,,,,,,,,,,,,,,,,,,,,,,,,,,,,,,,,,,,,,,,,,,,,,,,,,,,,,,,,,,,,,,,,,,,,,,,,,,,,,,,,,,,,,,,,,,,,NicoP,001,c,2019_Nov_08_1524,Experimento,3.2.3,60.00548144870991,
8,14,14,999,0.5,0:10,3,Red,None,0,0,1,28:50,./completed_changuitos/montage_icydb_98.35_85.59.jpg,left,0,0,0,0,,,,,0,6,6,6,,,,,,,,,0,0,0,0,0,0,0,0,,,,,,,,,,,,,,,,,,,,,,,,,,,,,275.02726732342035,276.31029337205746,276.31029337205746,None,284.3570693627835,284.8569378357379,None,1,284.3570693627835,None,,,,,,,,,,,,,,,,,,,,,,,,,,,,,,,,,,,,,,,,,,,,,,NicoP,001,c,2019_Nov_08_1524,Experimento,3.2.3,60.00548144870991,
8,14,14,999,0.5,0:10,3,Magenta,['space'],0,0,1,28:50,./completed_changuitos/montage_icydb_98.35_85.59.jpg,left,0,0,0,0,,,,,0,6,6,6,,,,,,,,,0,0,0,0,0,1,1,1,,,,,,,,,,,,,,,,,,,,,,,,,,,,,,,,,286.356437509472,286.85621149234885,None,0,286.356437509472,286.356437509472,,,,,,,,,,,,,,,,,,,,,,,,,,,,,,,,,,,,,,,,,,,,,,NicoP,001,c,2019_Nov_08_1524,Experimento,3.2.3,60.00548144870991,
8,14,14,999,0.5,0:10,3,Green,None,0,0,1,28:50,./completed_changuitos/montage_icydb_98.35_85.59.jpg,left,0,0,0,0,,,,,0,6,6,6,,,,,,,,,0,0,0,0,0,2,2,2,,,,,,,,,,,,,,,,,,,,,,,,,,,,,,,,,288.3556229578953,288.85538777968486,None,1,288.3556229578953,288.3556229578953,,,,,,,,,,,,,,,,,,,,,,,,,,,,,,,,,,,,,,,,,,,,,,NicoP,001,c,2019_Nov_08_1524,Experimento,3.2.3,60.00548144870991,
8,14,14,999,0.5,0:10,3,Yellow,['space'],0,0,1,28:50,./completed_changuitos/montage_icydb_98.35_85.59.jpg,left,0,0,0,0,,,,,0,6,6,6,,,,,,,,,0,0,0,0,0,3,3,3,,,,,,,,,,,,,,,,,,,,,,,,,,,,,,,,,290.35479034588843,290.85460961071385,None,0,290.35479034588843,290.35479034588843,,,,,,,,,,,,,,,,,,,,,,,,,,,,,,,,,,,,,,,,,,,,,,NicoP,001,c,2019_Nov_08_1524,Experimento,3.2.3,60.00548144870991,
8,14,14,999,0.5,0:10,3,Blue,None,0,0,1,28:50,./completed_changuitos/montage_icydb_98.35_85.59.jpg,left,0,0,0,0,,,,,0,6,6,6,,,,,,,,,0,0,0,0,0,4,4,4,,,,,,,,,,,,,,,,,,,,,,,,,,,,,,,,,292.35418571409537,292.8539070861534,None,1,292.35418571409537,292.35418571409537,,,,,,,,,,,,,,,,,,,,,,,,,,,,,,,,,,,,,,,,,,,,,,NicoP,001,c,2019_Nov_08_1524,Experimento,3.2.3,60.00548144870991,
8,14,14,999,0.5,0:10,3,Cyan,None,0,0,1,28:50,./completed_changuitos/montage_icydb_98.35_85.59.jpg,left,0,0,0,0,,,,,0,6,6,6,,,,,,,,,0,0,0,0,0,5,5,5,,,,,,,,,,,,,,,,,,,,,,,,,,,,,,,,,294.35340414243456,294.8531802192747,None,1,294.35340414243456,294.35340414243456,,,,,,,,,,,,,,,,,,,,,,,,,,,,,,,,,,,,,,,,,,,,,,NicoP,001,c,2019_Nov_08_1524,Experimento,3.2.3,60.00548144870991,
8,14,14,999,0.5,0:10,3,Blue,['space'],0,0,1,28:50,./completed_changuitos/montage_icydb_98.35_85.59.jpg,left,0,0,0,0,,,,,0,6,6,6,,,,,,,,,0,0,0,0,0,6,6,6,,,,,,,,,,,,,,,,,,,,,,,,,,,,,,,,,296.35260843652395,296.8523308555641,['return'],0,296.35260843652395,296.35260843652395,[0.46824832411039097],,,,,,,,,,,,,,,,,,,,,,,,,,,,,,,,,,,,,,,,,,,,,NicoP,001,c,2019_Nov_08_1524,Experimento,3.2.3,60.00548144870991,
8,14,14,999,0.5,0:10,3,Yellow,None,0,0,1,28:50,./completed_changuitos/montage_icydb_98.35_85.59.jpg,left,0,0,0,0,,,,,0,6,6,6,,,,,,,,,0,0,0,0,0,7,7,7,,,,,,,,,,,,,,,,,,,,,,,,,,,,,,,,,298.33524194563705,None,None,1,298.33524194563705,None,,,,,,,,,,,,,,,,,,,,,,,,,,,,,,,,,,,,,,,,,,,,,,NicoP,001,c,2019_Nov_08_1524,Experimento,3.2.3,60.00548144870991,
8,14,14,999,0.5,0:10,3,Cyan,None,0,0,1,28:50,./completed_changuitos/montage_icydb_98.35_85.59.jpg,left,0,0,0,0,,,,,0,6,6,6,,,,,,,,,0,0,0,0,0,8,8,8,,,,,,,,,,,,,,,,,,,,,,,,,,,,,,,,,298.33524194563705,None,None,1,298.33524194563705,None,,,,,,,,,,,,,,,,,,,,,,,,,,,,,,,,,,,,,,,,,,,,,,NicoP,001,c,2019_Nov_08_1524,Experimento,3.2.3,60.00548144870991,
8,14,14,999,0.5,0:10,3,Yellow,['space'],0,0,1,28:50,./completed_changuitos/montage_icydb_98.35_85.59.jpg,left,0,0,0,0,,,,,0,6,6,6,,,,,,,,,0,0,0,0,0,9,9,9,,,,,,,,,,,,,,,,,,,,,,,,,,,,,,,,,298.35191700996745,None,None,0,298.35191700996745,None,,,,,,,,,,,,,,,,,,,,,,,,,,,,,,,,,,,,,,,,,,,,,,NicoP,001,c,2019_Nov_08_1524,Experimento,3.2.3,60.00548144870991,
8,14,14,999,0.5,0:10,3,Magenta,None,0,0,1,28:50,./completed_changuitos/montage_icydb_98.35_85.59.jpg,left,0,0,0,0,,,,,0,6,6,6,,,,,,,,,0,0,0,0,0,10,10,10,,,,,,,,,,,,,,,,,,,,,,,,,,,,,,,,,298.35191700996745,None,None,1,298.35191700996745,None,,,,,,,,,,,,,,,,,,,,,,,,,,,,,,,,,,,,,,,,,,,,,,NicoP,001,c,2019_Nov_08_1524,Experimento,3.2.3,60.00548144870991,
8,14,14,999,0.5,0:10,3,Red,None,0,0,1,28:50,./completed_changuitos/montage_icydb_98.35_85.59.jpg,left,0,0,0,0,,,,,0,6,6,6,,,,,,,,,0,0,0,0,0,11,11,11,,,,,,,,,,,,,,,,,,,,,,,,,,,,,,,,,298.35191700996745,None,None,1,298.35191700996745,None,,,,,,,,,,,,,,,,,,,,,,,,,,,,,,,,,,,,,,,,,,,,,,NicoP,001,c,2019_Nov_08_1524,Experimento,3.2.3,60.00548144870991,
8,14,14,999,0.5,0:10,3,Magenta,['space'],0,0,1,28:50,./completed_changuitos/montage_icydb_98.35_85.59.jpg,left,0,0,0,0,,,,,0,6,6,6,,,,,,,,,0,0,0,0,0,12,12,12,,,,,,,,,,,,,,,,,,,,,,,,,,,,,,,,,298.35191700996745,None,None,0,298.35191700996745,None,,,,,,,,,,,,,,,,,,,,,,,,,,,,,,,,,,,,,,,,,,,,,,NicoP,001,c,2019_Nov_08_1524,Experimento,3.2.3,60.00548144870991,
8,14,14,999,0.5,0:10,3,Red,['space'],0,0,1,28:50,./completed_changuitos/montage_icydb_98.35_85.59.jpg,left,0,0,0,0,,,,,0,6,6,6,,,,,,,,,0,0,0,0,0,13,13,13,,,,,,,,,,,,,,,,,,,,,,,,,,,,,,,,,298.36859207429785,None,None,0,298.36859207429785,None,,,,,,,,,,,,,,,,,,,,,,,,,,,,,,,,,,,,,,,,,,,,,,NicoP,001,c,2019_Nov_08_1524,Experimento,3.2.3,60.00548144870991,
8,14,14,999,0.5,0:10,3,Yellow,None,0,0,1,28:50,./completed_changuitos/montage_icydb_98.35_85.59.jpg,left,0,0,0,0,,,,,0,6,6,6,,,,,,,,,0,0,0,0,0,14,14,14,,,,,,,,,,,,,,,,,,,,,,,,,,,,,,,,,298.36859207429785,None,None,1,298.36859207429785,None,,,,,,,,,,,,,,,,,,,,,,,,,,,,,,,,,,,,,,,,,,,,,,NicoP,001,c,2019_Nov_08_1524,Experimento,3.2.3,60.00548144870991,
8,14,14,999,0.5,0:10,3,Cyan,None,0,0,1,28:50,./completed_changuitos/montage_icydb_98.35_85.59.jpg,left,0,0,0,0,,,,,0,6,6,6,,,,,,,,,0,0,0,0,0,15,15,15,,,,,,,,,,,,,,,,,,,,,,,,,,,,,,,,,298.36859207429785,None,None,1,298.36859207429785,None,,,,,,,,,,,,,,,,,,,,,,,,,,,,,,,,,,,,,,,,,,,,,,NicoP,001,c,2019_Nov_08_1524,Experimento,3.2.3,60.00548144870991,
8,14,14,999,0.5,0:10,3,Green,None,0,0,1,28:50,./completed_changuitos/montage_icydb_98.35_85.59.jpg,left,0,0,0,0,,,,,0,6,6,6,,,,,,,,,0,0,0,0,0,16,16,16,,,,,,,,,,,,,,,,,,,,,,,,,,,,,,,,,298.36859207429785,None,None,1,298.36859207429785,None,,,,,,,,,,,,,,,,,,,,,,,,,,,,,,,,,,,,,,,,,,,,,,NicoP,001,c,2019_Nov_08_1524,Experimento,3.2.3,60.00548144870991,
8,14,14,999,0.5,0:10,3,White,None,0,0,1,28:50,./completed_changuitos/montage_icydb_98.35_85.59.jpg,left,0,0,0,0,,,,,0,6,6,6,,,,,,,,,0,0,0,0,0,17,17,17,,,,,,,,,,,,,,,,,,,,,,,,,,,,,,,,,298.36859207429785,None,None,1,298.36859207429785,None,,,,,,,,,,,,,,,,,,,,,,,,,,,,,,,,,,,,,,,,,,,,,,NicoP,001,c,2019_Nov_08_1524,Experimento,3.2.3,60.00548144870991,
8,14,14,999,0.5,0:10,3,Green,['space'],0,0,1,28:50,./completed_changuitos/montage_icydb_98.35_85.59.jpg,left,0,0,0,0,,,,,0,6,6,6,,,,,,,,,0,0,0,0,0,18,18,18,,,,,,,,,,,,,,,,,,,,,,,,,,,,,,,,,298.36859207429785,None,None,0,298.36859207429785,None,,,,,,,,,,,,,,,,,,,,,,,,,,,,,,,,,,,,,,,,,,,,,,NicoP,001,c,2019_Nov_08_1524,Experimento,3.2.3,60.00548144870991,
8,14,14,999,0.5,0:10,3,Red,None,0,0,1,28:50,./completed_changuitos/montage_icydb_98.35_85.59.jpg,left,0,0,0,0,,,,,0,6,6,6,,,,,,,,,0,0,0,0,0,19,19,19,,,,,,,,,,,,,,,,,,,,,,,,,,,,,,,,,298.3852671386283,None,None,1,298.3852671386283,None,,,,,,,,,,,,,,,,,,,,,,,,,,,,,,,,,,,,,,,,,,,,,,NicoP,001,c,2019_Nov_08_1524,Experimento,3.2.3,60.00548144870991,
8,14,14,999,0.5,0:10,3,Blue,None,0,0,1,28:50,./completed_changuitos/montage_icydb_98.35_85.59.jpg,left,0,0,0,0,,,,,0,6,6,6,,,,,,,,,0,0,0,0,0,20,20,20,,,,,,,,,,,,,,,,,,,,,,,,,,,,,,,,,298.3852671386283,None,None,1,298.3852671386283,None,,,,,,,,,,,,,,,,,,,,,,,,,,,,,,,,,,,,,,,,,,,,,,NicoP,001,c,2019_Nov_08_1524,Experimento,3.2.3,60.00548144870991,
8,14,14,999,0.5,0:10,3,Green,None,0,0,1,28:50,./completed_changuitos/montage_icydb_98.35_85.59.jpg,left,0,0,0,0,,,,,0,6,6,6,,,,,,,,,0,0,0,0,0,21,21,21,,,,,,,,,,,,,,,,,,,,,,,,,,,,,,,,,298.3852671386283,None,None,1,298.3852671386283,None,,,,,,,,,,,,,,,,,,,,,,,,,,,,,,,,,,,,,,,,,,,,,,NicoP,001,c,2019_Nov_08_1524,Experimento,3.2.3,60.00548144870991,
8,14,14,999,0.5,0:10,3,,,0,0,1,28:50,./completed_changuitos/montage_icydb_98.35_85.59.jpg,left,0,0,0,0,,,,,0,6,6,6,,,,,,,,,0,0,0,0,,,,,,,,,,,,,,,,,,,,,,,,,,,,,,,,,,,,,,,,,,,,298.46839647198703,None,left,1,1.2741128337156624,298.46839647198703,None,298.46839647198703,None,,,,,,,,,,,,,,,,,,,,,,,,,,,,,,,,,,,,NicoP,001,c,2019_Nov_08_1524,Experimento,3.2.3,60.00548144870991,
8,14,14,999,0.5,0:10,3,,,0,0,1,28:50,,,0,0,0,0,,,,,0,6,6,6,,,,,,,,,,,,,,,,,,,,,,,,,,,,,,,,,,,,,,,,,,,,,,,,,,,,,,,,,,,,,,,,,,,,,,,,,,,,,,,,,,,,,,,,,,,,,,,,,,,,NicoP,001,c,2019_Nov_08_1524,Experimento,3.2.3,60.00548144870991,
8,14,14,999,0.5,0:10,3,,,0,1,0,19:50,./completed_changuitos/montage_bnlcn_41.75_36.8.jpg,left,0,0,0,0,,,,,0,7,7,7,,,,,0,0,0,0,,,,,,,,,,,,,,,,,,,,,,299.9678328033424,300.93412235601227,300.93412235601227,308.94777656473343,308.94777656473343,322.95912715249597,right,0,1.7804388265749367,322.95912715249597,None,322.95912715249597,None,322.95912715249597,None,,,,,,,,,,,,,,,,,,,,,,,,,,,,,,,,,,,,,,,,,,,,,,,,,,,,,,,,NicoP,001,c,2019_Nov_08_1524,Experimento,3.2.3,60.00548144870991,
8,14,14,999,0.5,0:10,3,,,0,1,0,19:50,,,0,0,0,0,,,,,0,7,7,7,,,,,,,,,,,,,,,,,,,,,,,,,,,,,,,,,,,,,,,,,,,,,,,,,,,,,,,,,,,,,,,,,,,,,,,,,,,,,,,,,,,,,,,,,,,,,,,,,,,,NicoP,001,c,2019_Nov_08_1524,Experimento,3.2.3,60.00548144870991,
8,14,14,999,0.5,0:10,3,Magenta,None,0,0,1,20:50,./completed_changuitos/montage_xbrqh_90.95_78.65.jpg,left,0,0,0,0,,,,,0,8,8,8,,,,,,,,,0,0,0,0,0,0,0,0,,,,,,,,,,,,,,,,,,,,,,,,,,,,,324.90831949790936,325.9080012155455,325.9080012155455,None,333.9549952401603,334.4548401560314,None,1,333.9549952401603,None,,,,,,,,,,,,,,,,,,,,,,,,,,,,,,,,,,,,,,,,,,,,,,NicoP,001,c,2019_Nov_08_1524,Experimento,3.2.3,60.00548144870991,
8,14,14,999,0.5,0:10,3,Blue,['space'],0,0,1,20:50,./completed_changuitos/montage_xbrqh_90.95_78.65.jpg,left,0,0,0,0,,,,,0,8,8,8,,,,,,,,,0,0,0,0,0,1,1,1,,,,,,,,,,,,,,,,,,,,,,,,,,,,,,,,,335.9542482188881,336.4541284703837,None,0,335.9542482188881,335.9542482188881,,,,,,,,,,,,,,,,,,,,,,,,,,,,,,,,,,,,,,,,,,,,,,NicoP,001,c,2019_Nov_08_1524,Experimento,3.2.3,60.00548144870991,
8,14,14,999,0.5,0:10,3,Cyan,None,0,0,1,20:50,./completed_changuitos/montage_xbrqh_90.95_78.65.jpg,left,0,0,0,0,,,,,0,8,8,8,,,,,,,,,0,0,0,0,0,2,2,2,,,,,,,,,,,,,,,,,,,,,,,,,,,,,,,,,337.9535056472869,338.45323330123483,None,1,337.9535056472869,337.9535056472869,,,,,,,,,,,,,,,,,,,,,,,,,,,,,,,,,,,,,,,,,,,,,,NicoP,001,c,2019_Nov_08_1524,Experimento,3.2.3,60.00548144870991,
8,14,14,999,0.5,0:10,3,Yellow,None,0,0,1,20:50,./completed_changuitos/montage_xbrqh_90.95_78.65.jpg,left,0,0,0,0,,,,,0,8,8,8,,,,,,,,,0,0,0,0,0,3,3,3,,,,,,,,,,,,,,,,,,,,,,,,,,,,,,,,,339.9527217199184,340.4525388907805,None,1,339.9527217199184,339.9527217199184,,,,,,,,,,,,,,,,,,,,,,,,,,,,,,,,,,,,,,,,,,,,,,NicoP,001,c,2019_Nov_08_1524,Experimento,3.2.3,60.00548144870991,
8,14,14,999,0.5,0:10,3,Cyan,None,0,0,1,20:50,./completed_changuitos/montage_xbrqh_90.95_78.65.jpg,left,0,0,0,0,,,,,0,8,8,8,,,,,,,,,0,0,0,0,0,4,4,4,,,,,,,,,,,,,,,,,,,,,,,,,,,,,,,,,341.9520846316991,342.4520263933555,['return'],0,341.9520846316991,341.9520846316991,[0.3864204410565435],,,,,,,,,,,,,,,,,,,,,,,,,,,,,,,,,,,,,,,,,,,,,NicoP,001,c,2019_Nov_08_1524,Experimento,3.2.3,60.00548144870991,
8,14,14,999,0.5,0:10,3,Blue,None,0,0,1,20:50,./completed_changuitos/montage_xbrqh_90.95_78.65.jpg,left,0,0,0,0,,,,,0,8,8,8,,,,,,,,,0,0,0,0,0,5,5,5,,,,,,,,,,,,,,,,,,,,,,,,,,,,,,,,,343.95121328137884,344.4509817676035,None,1,343.95121328137884,343.95121328137884,,,,,,,,,,,,,,,,,,,,,,,,,,,,,,,,,,,,,,,,,,,,,,NicoP,001,c,2019_Nov_08_1524,Experimento,3.2.3,60.00548144870991,
8,14,14,999,0.5,0:10,3,Cyan,['space'],0,0,1,20:50,./completed_changuitos/montage_xbrqh_90.95_78.65.jpg,left,0,0,0,0,,,,,0,8,8,8,,,,,,,,,0,0,0,0,0,6,6,6,,,,,,,,,,,,,,,,,,,,,,,,,,,,,,,,,345.95044165604213,346.450373994865,None,0,345.95044165604213,345.95044165604213,,,,,,,,,,,,,,,,,,,,,,,,,,,,,,,,,,,,,,,,,,,,,,NicoP,001,c,2019_Nov_08_1524,Experimento,3.2.3,60.00548144870991,
8,14,14,999,0.5,0:10,3,Magenta,None,0,0,1,20:50,./completed_changuitos/montage_xbrqh_90.95_78.65.jpg,left,0,0,0,0,,,,,0,8,8,8,,,,,,,,,0,0,0,0,0,7,7,7,,,,,,,,,,,,,,,,,,,,,,,,,,,,,,,,,347.9331230645568,None,None,1,347.9331230645568,None,,,,,,,,,,,,,,,,,,,,,,,,,,,,,,,,,,,,,,,,,,,,,,NicoP,001,c,2019_Nov_08_1524,Experimento,3.2.3,60.00548144870991,
8,14,14,999,0.5,0:10,3,Red,None,0,0,1,20:50,./completed_changuitos/montage_xbrqh_90.95_78.65.jpg,left,0,0,0,0,,,,,0,8,8,8,,,,,,,,,0,0,0,0,0,8,8,8,,,,,,,,,,,,,,,,,,,,,,,,,,,,,,,,,347.9331230645568,None,None,1,347.9331230645568,None,,,,,,,,,,,,,,,,,,,,,,,,,,,,,,,,,,,,,,,,,,,,,,NicoP,001,c,2019_Nov_08_1524,Experimento,3.2.3,60.00548144870991,
8,14,14,999,0.5,0:10,3,Magenta,['space'],0,0,1,20:50,./completed_changuitos/montage_xbrqh_90.95_78.65.jpg,left,0,0,0,0,,,,,0,8,8,8,,,,,,,,,0,0,0,0,0,9,9,9,,,,,,,,,,,,,,,,,,,,,,,,,,,,,,,,,347.9331230645568,None,None,0,347.9331230645568,None,,,,,,,,,,,,,,,,,,,,,,,,,,,,,,,,,,,,,,,,,,,,,,NicoP,001,c,2019_Nov_08_1524,Experimento,3.2.3,60.00548144870991,
8,14,14,999,0.5,0:10,3,Green,None,0,0,1,20:50,./completed_changuitos/montage_xbrqh_90.95_78.65.jpg,left,0,0,0,0,,,,,0,8,8,8,,,,,,,,,0,0,0,0,0,10,10,10,,,,,,,,,,,,,,,,,,,,,,,,,,,,,,,,,347.9497981288872,None,None,1,347.9497981288872,None,,,,,,,,,,,,,,,,,,,,,,,,,,,,,,,,,,,,,,,,,,,,,,NicoP,001,c,2019_Nov_08_1524,Experimento,3.2.3,60.00548144870991,
8,14,14,999,0.5,0:10,3,Yellow,['space'],0,0,1,20:50,./completed_changuitos/montage_xbrqh_90.95_78.65.jpg,left,0,0,0,0,,,,,0,8,8,8,,,,,,,,,0,0,0,0,0,11,11,11,,,,,,,,,,,,,,,,,,,,,,,,,,,,,,,,,347.9497981288872,None,None,0,347.9497981288872,None,,,,,,,,,,,,,,,,,,,,,,,,,,,,,,,,,,,,,,,,,,,,,,NicoP,001,c,2019_Nov_08_1524,Experimento,3.2.3,60.00548144870991,
8,14,14,999,0.5,0:10,3,Blue,None,0,0,1,20:50,./completed_changuitos/montage_xbrqh_90.95_78.65.jpg,left,0,0,0,0,,,,,0,8,8,8,,,,,,,,,0,0,0,0,0,12,12,12,,,,,,,,,,,,,,,,,,,,,,,,,,,,,,,,,347.9497981288872,None,None,1,347.9497981288872,None,,,,,,,,,,,,,,,,,,,,,,,,,,,,,,,,,,,,,,,,,,,,,,NicoP,001,c,2019_Nov_08_1524,Experimento,3.2.3,60.00548144870991,
8,14,14,999,0.5,0:10,3,Cyan,None,0,0,1,20:50,./completed_changuitos/montage_xbrqh_90.95_78.65.jpg,left,0,0,0,0,,,,,0,8,8,8,,,,,,,,,0,0,0,0,0,13,13,13,,,,,,,,,,,,,,,,,,,,,,,,,,,,,,,,,347.9664731932176,None,None,1,347.9664731932176,None,,,,,,,,,,,,,,,,,,,,,,,,,,,,,,,,,,,,,,,,,,,,,,NicoP,001,c,2019_Nov_08_1524,Experimento,3.2.3,60.00548144870991,
8,14,14,999,0.5,0:10,3,Blue,['space'],0,0,1,20:50,./completed_changuitos/montage_xbrqh_90.95_78.65.jpg,left,0,0,0,0,,,,,0,8,8,8,,,,,,,,,0,0,0,0,0,14,14,14,,,,,,,,,,,,,,,,,,,,,,,,,,,,,,,,,347.9664731932176,None,None,0,347.9664731932176,None,,,,,,,,,,,,,,,,,,,,,,,,,,,,,,,,,,,,,,,,,,,,,,NicoP,001,c,2019_Nov_08_1524,Experimento,3.2.3,60.00548144870991,
8,14,14,999,0.5,0:10,3,Yellow,None,0,0,1,20:50,./completed_changuitos/montage_xbrqh_90.95_78.65.jpg,left,0,0,0,0,,,,,0,8,8,8,,,,,,,,,0,0,0,0,0,15,15,15,,,,,,,,,,,,,,,,,,,,,,,,,,,,,,,,,347.9664731932176,None,None,1,347.9664731932176,None,,,,,,,,,,,,,,,,,,,,,,,,,,,,,,,,,,,,,,,,,,,,,,NicoP,001,c,2019_Nov_08_1524,Experimento,3.2.3,60.00548144870991,
8,14,14,999,0.5,0:10,3,Cyan,None,0,0,1,20:50,./completed_changuitos/montage_xbrqh_90.95_78.65.jpg,left,0,0,0,0,,,,,0,8,8,8,,,,,,,,,0,0,0,0,0,16,16,16,,,,,,,,,,,,,,,,,,,,,,,,,,,,,,,,,347.98314825754807,None,None,1,347.98314825754807,None,,,,,,,,,,,,,,,,,,,,,,,,,,,,,,,,,,,,,,,,,,,,,,NicoP,001,c,2019_Nov_08_1524,Experimento,3.2.3,60.00548144870991,
8,14,14,999,0.5,0:10,3,Yellow,['space'],0,0,1,20:50,./completed_changuitos/montage_xbrqh_90.95_78.65.jpg,left,0,0,0,0,,,,,0,8,8,8,,,,,,,,,0,0,0,0,0,17,17,17,,,,,,,,,,,,,,,,,,,,,,,,,,,,,,,,,347.98314825754807,None,None,0,347.98314825754807,None,,,,,,,,,,,,,,,,,,,,,,,,,,,,,,,,,,,,,,,,,,,,,,NicoP,001,c,2019_Nov_08_1524,Experimento,3.2.3,60.00548144870991,
8,14,14,999,0.5,0:10,3,Magenta,None,0,0,1,20:50,./completed_changuitos/montage_xbrqh_90.95_78.65.jpg,left,0,0,0,0,,,,,0,8,8,8,,,,,,,,,0,0,0,0,0,18,18,18,,,,,,,,,,,,,,,,,,,,,,,,,,,,,,,,,347.98314825754807,None,None,1,347.98314825754807,None,,,,,,,,,,,,,,,,,,,,,,,,,,,,,,,,,,,,,,,,,,,,,,NicoP,001,c,2019_Nov_08_1524,Experimento,3.2.3,60.00548144870991,
8,14,14,999,0.5,0:10,3,Red,None,0,0,1,20:50,./completed_changuitos/montage_xbrqh_90.95_78.65.jpg,left,0,0,0,0,,,,,0,8,8,8,,,,,,,,,0,0,0,0,0,19,19,19,,,,,,,,,,,,,,,,,,,,,,,,,,,,,,,,,347.98314825754807,None,None,1,347.98314825754807,None,,,,,,,,,,,,,,,,,,,,,,,,,,,,,,,,,,,,,,,,,,,,,,NicoP,001,c,2019_Nov_08_1524,Experimento,3.2.3,60.00548144870991,
8,14,14,999,0.5,0:10,3,Magenta,['space'],0,0,1,20:50,./completed_changuitos/montage_xbrqh_90.95_78.65.jpg,left,0,0,0,0,,,,,0,8,8,8,,,,,,,,,0,0,0,0,0,20,20,20,,,,,,,,,,,,,,,,,,,,,,,,,,,,,,,,,347.98314825754807,None,None,0,347.98314825754807,None,,,,,,,,,,,,,,,,,,,,,,,,,,,,,,,,,,,,,,,,,,,,,,NicoP,001,c,2019_Nov_08_1524,Experimento,3.2.3,60.00548144870991,
8,14,14,999,0.5,0:10,3,Red,['space'],0,0,1,20:50,./completed_changuitos/montage_xbrqh_90.95_78.65.jpg,left,0,0,0,0,,,,,0,8,8,8,,,,,,,,,0,0,0,0,0,21,21,21,,,,,,,,,,,,,,,,,,,,,,,,,,,,,,,,,347.98314825754807,None,None,0,347.98314825754807,None,,,,,,,,,,,,,,,,,,,,,,,,,,,,,,,,,,,,,,,,,,,,,,NicoP,001,c,2019_Nov_08_1524,Experimento,3.2.3,60.00548144870991,
8,14,14,999,0.5,0:10,3,Yellow,None,0,0,1,20:50,./completed_changuitos/montage_xbrqh_90.95_78.65.jpg,left,0,0,0,0,,,,,0,8,8,8,,,,,,,,,0,0,0,0,0,22,22,22,,,,,,,,,,,,,,,,,,,,,,,,,,,,,,,,,347.99982332187847,None,None,1,347.99982332187847,None,,,,,,,,,,,,,,,,,,,,,,,,,,,,,,,,,,,,,,,,,,,,,,NicoP,001,c,2019_Nov_08_1524,Experimento,3.2.3,60.00548144870991,
8,14,14,999,0.5,0:10,3,Cyan,None,0,0,1,20:50,./completed_changuitos/montage_xbrqh_90.95_78.65.jpg,left,0,0,0,0,,,,,0,8,8,8,,,,,,,,,0,0,0,0,0,23,23,23,,,,,,,,,,,,,,,,,,,,,,,,,,,,,,,,,347.99982332187847,None,None,1,347.99982332187847,None,,,,,,,,,,,,,,,,,,,,,,,,,,,,,,,,,,,,,,,,,,,,,,NicoP,001,c,2019_Nov_08_1524,Experimento,3.2.3,60.00548144870991,
8,14,14,999,0.5,0:10,3,Green,None,0,0,1,20:50,./completed_changuitos/montage_xbrqh_90.95_78.65.jpg,left,0,0,0,0,,,,,0,8,8,8,,,,,,,,,0,0,0,0,0,24,24,24,,,,,,,,,,,,,,,,,,,,,,,,,,,,,,,,,347.99982332187847,None,None,1,347.99982332187847,None,,,,,,,,,,,,,,,,,,,,,,,,,,,,,,,,,,,,,,,,,,,,,,NicoP,001,c,2019_Nov_08_1524,Experimento,3.2.3,60.00548144870991,
8,14,14,999,0.5,0:10,3,White,None,0,0,1,20:50,./completed_changuitos/montage_xbrqh_90.95_78.65.jpg,left,0,0,0,0,,,,,0,8,8,8,,,,,,,,,0,0,0,0,0,25,25,25,,,,,,,,,,,,,,,,,,,,,,,,,,,,,,,,,347.99982332187847,None,None,1,347.99982332187847,None,,,,,,,,,,,,,,,,,,,,,,,,,,,,,,,,,,,,,,,,,,,,,,NicoP,001,c,2019_Nov_08_1524,Experimento,3.2.3,60.00548144870991,
8,14,14,999,0.5,0:10,3,Green,['space'],0,0,1,20:50,./completed_changuitos/montage_xbrqh_90.95_78.65.jpg,left,0,0,0,0,,,,,0,8,8,8,,,,,,,,,0,0,0,0,0,26,26,26,,,,,,,,,,,,,,,,,,,,,,,,,,,,,,,,,347.99982332187847,None,None,0,347.99982332187847,None,,,,,,,,,,,,,,,,,,,,,,,,,,,,,,,,,,,,,,,,,,,,,,NicoP,001,c,2019_Nov_08_1524,Experimento,3.2.3,60.00548144870991,
8,14,14,999,0.5,0:10,3,Red,None,0,0,1,20:50,./completed_changuitos/montage_xbrqh_90.95_78.65.jpg,left,0,0,0,0,,,,,0,8,8,8,,,,,,,,,0,0,0,0,0,27,27,27,,,,,,,,,,,,,,,,,,,,,,,,,,,,,,,,,348.01649838620887,None,None,1,348.01649838620887,None,,,,,,,,,,,,,,,,,,,,,,,,,,,,,,,,,,,,,,,,,,,,,,NicoP,001,c,2019_Nov_08_1524,Experimento,3.2.3,60.00548144870991,
8,14,14,999,0.5,0:10,3,Blue,None,0,0,1,20:50,./completed_changuitos/montage_xbrqh_90.95_78.65.jpg,left,0,0,0,0,,,,,0,8,8,8,,,,,,,,,0,0,0,0,0,28,28,28,,,,,,,,,,,,,,,,,,,,,,,,,,,,,,,,,348.01649838620887,None,None,1,348.01649838620887,None,,,,,,,,,,,,,,,,,,,,,,,,,,,,,,,,,,,,,,,,,,,,,,NicoP,001,c,2019_Nov_08_1524,Experimento,3.2.3,60.00548144870991,
8,14,14,999,0.5,0:10,3,Green,None,0,0,1,20:50,./completed_changuitos/montage_xbrqh_90.95_78.65.jpg,left,0,0,0,0,,,,,0,8,8,8,,,,,,,,,0,0,0,0,0,29,29,29,,,,,,,,,,,,,,,,,,,,,,,,,,,,,,,,,348.01649838620887,None,None,1,348.01649838620887,None,,,,,,,,,,,,,,,,,,,,,,,,,,,,,,,,,,,,,,,,,,,,,,NicoP,001,c,2019_Nov_08_1524,Experimento,3.2.3,60.00548144870991,
8,14,14,999,0.5,0:10,3,,,0,0,1,20:50,./completed_changuitos/montage_xbrqh_90.95_78.65.jpg,left,0,0,0,0,,,,,0,8,8,8,,,,,,,,,0,0,0,0,,,,,,,,,,,,,,,,,,,,,,,,,,,,,,,,,,,,,,,,,,,,348.0832805698301,None,right,0,1.3841293838750062,348.0832805698301,None,348.0832805698301,None,,,,,,,,,,,,,,,,,,,,,,,,,,,,,,,,,,,,NicoP,001,c,2019_Nov_08_1524,Experimento,3.2.3,60.00548144870991,
8,14,14,999,0.5,0:10,3,,,0,0,1,20:50,,,0,0,0,0,,,,,0,8,8,8,,,,,,,,,,,,,,,,,,,,,,,,,,,,,,,,,,,,,,,,,,,,,,,,,,,,,,,,,,,,,,,,,,,,,,,,,,,,,,,,,,,,,,,,,,,,,,,,,,,,NicoP,001,c,2019_Nov_08_1524,Experimento,3.2.3,60.00548144870991,
8,14,14,999,0.5,0:10,3,Yellow,None,0,0,1,15:50,./completed_changuitos/montage_ewjxh_452.6_523.25.jpg,right,0,0,0,0,,,,,0,9,9,9,,,,,,,,,0,0,0,0,0,0,0,0,,,,,,,,,,,,,,,,,,,,,,,,,,,,,349.65164047598955,350.89853545615824,350.89853545615824,None,358.9455305277543,359.4453251885152,None,1,358.9455305277543,None,,,,,,,,,,,,,,,,,,,,,,,,,,,,,,,,,,,,,,,,,,,,,,NicoP,001,c,2019_Nov_08_1524,Experimento,3.2.3,60.00548144870991,
8,14,14,999,0.5,0:10,3,White,['space'],0,0,1,15:50,./completed_changuitos/montage_ewjxh_452.6_523.25.jpg,right,0,0,0,0,,,,,0,9,9,9,,,,,,,,,0,0,0,0,0,1,1,1,,,,,,,,,,,,,,,,,,,,,,,,,,,,,,,,,360.94481203672694,361.44464281834826,None,0,360.94481203672694,360.94481203672694,,,,,,,,,,,,,,,,,,,,,,,,,,,,,,,,,,,,,,,,,,,,,,NicoP,001,c,2019_Nov_08_1524,Experimento,3.2.3,60.00548144870991,
8,14,14,999,0.5,0:10,3,Magenta,None,0,0,1,15:50,./completed_changuitos/montage_ewjxh_452.6_523.25.jpg,right,0,0,0,0,,,,,0,9,9,9,,,,,,,,,0,0,0,0,0,2,2,2,,,,,,,,,,,,,,,,,,,,,,,,,,,,,,,,,362.9439098004532,363.44389579707604,None,1,362.9439098004532,362.9439098004532,,,,,,,,,,,,,,,,,,,,,,,,,,,,,,,,,,,,,,,,,,,,,,NicoP,001,c,2019_Nov_08_1524,Experimento,3.2.3,60.00548144870991,
8,14,14,999,0.5,0:10,3,Cyan,None,0,0,1,15:50,./completed_changuitos/montage_ewjxh_452.6_523.25.jpg,right,0,0,0,0,,,,,0,9,9,9,,,,,,,,,0,0,0,0,0,3,3,3,,,,,,,,,,,,,,,,,,,,,,,,,,,,,,,,,364.94323423566584,365.44305873539815,None,1,364.94323423566584,364.94323423566584,,,,,,,,,,,,,,,,,,,,,,,,,,,,,,,,,,,,,,,,,,,,,,NicoP,001,c,2019_Nov_08_1524,Experimento,3.2.3,60.00548144870991,
8,14,14,999,0.5,0:10,3,Blue,None,0,0,1,15:50,./completed_changuitos/montage_ewjxh_452.6_523.25.jpg,right,0,0,0,0,,,,,0,9,9,9,,,,,,,,,0,0,0,0,0,4,4,4,,,,,,,,,,,,,,,,,,,,,,,,,,,,,,,,,366.942497422463,367.44232061346884,None,1,366.942497422463,366.942497422463,,,,,,,,,,,,,,,,,,,,,,,,,,,,,,,,,,,,,,,,,,,,,,NicoP,001,c,2019_Nov_08_1524,Experimento,3.2.3,60.00548144870991,
8,14,14,999,0.5,0:10,3,Magenta,None,0,0,1,15:50,./completed_changuitos/montage_ewjxh_452.6_523.25.jpg,right,0,0,0,0,,,,,0,9,9,9,,,,,,,,,0,0,0,0,0,5,5,5,,,,,,,,,,,,,,,,,,,,,,,,,,,,,,,,,368.9417176830193,369.4415749009231,None,1,368.9417176830193,368.9417176830193,,,,,,,,,,,,,,,,,,,,,,,,,,,,,,,,,,,,,,,,,,,,,,NicoP,001,c,2019_Nov_08_1524,Experimento,3.2.3,60.00548144870991,
8,14,14,999,0.5,0:10,3,Blue,['space'],0,0,1,15:50,./completed_changuitos/montage_ewjxh_452.6_523.25.jpg,right,0,0,0,0,,,,,0,9,9,9,,,,,,,,,0,0,0,0,0,6,6,6,,,,,,,,,,,,,,,,,,,,,,,,,,,,,,,,,370.94101777591277,371.4408166246003,['return'],0,370.94101777591277,370.94101777591277,[0.5640913627430564],,,,,,,,,,,,,,,,,,,,,,,,,,,,,,,,,,,,,,,,,,,,,NicoP,001,c,2019_Nov_08_1524,Experimento,3.2.3,60.00548144870991,
8,14,14,999,0.5,0:10,3,Cyan,None,0,0,1,15:50,./completed_changuitos/montage_ewjxh_452.6_523.25.jpg,right,0,0,0,0,,,,,0,9,9,9,,,,,,,,,0,0,0,0,0,7,7,7,,,,,,,,,,,,,,,,,,,,,,,,,,,,,,,,,372.92367719781686,None,None,1,372.92367719781686,None,,,,,,,,,,,,,,,,,,,,,,,,,,,,,,,,,,,,,,,,,,,,,,NicoP,001,c,2019_Nov_08_1524,Experimento,3.2.3,60.00548144870991,
8,14,14,999,0.5,0:10,3,Yellow,None,0,0,1,15:50,./completed_changuitos/montage_ewjxh_452.6_523.25.jpg,right,0,0,0,0,,,,,0,9,9,9,,,,,,,,,0,0,0,0,0,8,8,8,,,,,,,,,,,,,,,,,,,,,,,,,,,,,,,,,372.92367719781686,None,None,1,372.92367719781686,None,,,,,,,,,,,,,,,,,,,,,,,,,,,,,,,,,,,,,,,,,,,,,,NicoP,001,c,2019_Nov_08_1524,Experimento,3.2.3,60.00548144870991,
8,14,14,999,0.5,0:10,3,Cyan,None,0,0,1,15:50,./completed_changuitos/montage_ewjxh_452.6_523.25.jpg,right,0,0,0,0,,,,,0,9,9,9,,,,,,,,,0,0,0,0,0,9,9,9,,,,,,,,,,,,,,,,,,,,,,,,,,,,,,,,,372.94035226214726,None,None,1,372.94035226214726,None,,,,,,,,,,,,,,,,,,,,,,,,,,,,,,,,,,,,,,,,,,,,,,NicoP,001,c,2019_Nov_08_1524,Experimento,3.2.3,60.00548144870991,
8,14,14,999,0.5,0:10,3,Blue,None,0,0,1,15:50,./completed_changuitos/montage_ewjxh_452.6_523.25.jpg,right,0,0,0,0,,,,,0,9,9,9,,,,,,,,,0,0,0,0,0,10,10,10,,,,,,,,,,,,,,,,,,,,,,,,,,,,,,,,,372.94035226214726,None,None,1,372.94035226214726,None,,,,,,,,,,,,,,,,,,,,,,,,,,,,,,,,,,,,,,,,,,,,,,NicoP,001,c,2019_Nov_08_1524,Experimento,3.2.3,60.00548144870991,
8,14,14,999,0.5,0:10,3,Cyan,['space'],0,0,1,15:50,./completed_changuitos/montage_ewjxh_452.6_523.25.jpg,right,0,0,0,0,,,,,0,9,9,9,,,,,,,,,0,0,0,0,0,11,11,11,,,,,,,,,,,,,,,,,,,,,,,,,,,,,,,,,372.94035226214726,None,None,0,372.94035226214726,None,,,,,,,,,,,,,,,,,,,,,,,,,,,,,,,,,,,,,,,,,,,,,,NicoP,001,c,2019_Nov_08_1524,Experimento,3.2.3,60.00548144870991,
8,14,14,999,0.5,0:10,3,Magenta,None,0,0,1,15:50,./completed_changuitos/montage_ewjxh_452.6_523.25.jpg,right,0,0,0,0,,,,,0,9,9,9,,,,,,,,,0,0,0,0,0,12,12,12,,,,,,,,,,,,,,,,,,,,,,,,,,,,,,,,,372.94035226214726,None,None,1,372.94035226214726,None,,,,,,,,,,,,,,,,,,,,,,,,,,,,,,,,,,,,,,,,,,,,,,NicoP,001,c,2019_Nov_08_1524,Experimento,3.2.3,60.00548144870991,
8,14,14,999,0.5,0:10,3,Red,None,0,0,1,15:50,./completed_changuitos/montage_ewjxh_452.6_523.25.jpg,right,0,0,0,0,,,,,0,9,9,9,,,,,,,,,0,0,0,0,0,13,13,13,,,,,,,,,,,,,,,,,,,,,,,,,,,,,,,,,372.95702732647766,None,None,1,372.95702732647766,None,,,,,,,,,,,,,,,,,,,,,,,,,,,,,,,,,,,,,,,,,,,,,,NicoP,001,c,2019_Nov_08_1524,Experimento,3.2.3,60.00548144870991,
8,14,14,999,0.5,0:10,3,Magenta,['space'],0,0,1,15:50,./completed_changuitos/montage_ewjxh_452.6_523.25.jpg,right,0,0,0,0,,,,,0,9,9,9,,,,,,,,,0,0,0,0,0,14,14,14,,,,,,,,,,,,,,,,,,,,,,,,,,,,,,,,,372.95702732647766,None,None,0,372.95702732647766,None,,,,,,,,,,,,,,,,,,,,,,,,,,,,,,,,,,,,,,,,,,,,,,NicoP,001,c,2019_Nov_08_1524,Experimento,3.2.3,60.00548144870991,
8,14,14,999,0.5,0:10,3,Green,None,0,0,1,15:50,./completed_changuitos/montage_ewjxh_452.6_523.25.jpg,right,0,0,0,0,,,,,0,9,9,9,,,,,,,,,0,0,0,0,0,15,15,15,,,,,,,,,,,,,,,,,,,,,,,,,,,,,,,,,372.95702732647766,None,None,1,372.95702732647766,None,,,,,,,,,,,,,,,,,,,,,,,,,,,,,,,,,,,,,,,,,,,,,,NicoP,001,c,2019_Nov_08_1524,Experimento,3.2.3,60.00548144870991,
8,14,14,999,0.5,0:10,3,Yellow,['space'],0,0,1,15:50,./completed_changuitos/montage_ewjxh_452.6_523.25.jpg,right,0,0,0,0,,,,,0,9,9,9,,,,,,,,,0,0,0,0,0,16,16,16,,,,,,,,,,,,,,,,,,,,,,,,,,,,,,,,,372.9737023908081,None,None,0,372.9737023908081,None,,,,,,,,,,,,,,,,,,,,,,,,,,,,,,,,,,,,,,,,,,,,,,NicoP,001,c,2019_Nov_08_1524,Experimento,3.2.3,60.00548144870991,
8,14,14,999,0.5,0:10,3,Blue,None,0,0,1,15:50,./completed_changuitos/montage_ewjxh_452.6_523.25.jpg,right,0,0,0,0,,,,,0,9,9,9,,,,,,,,,0,0,0,0,0,17,17,17,,,,,,,,,,,,,,,,,,,,,,,,,,,,,,,,,372.9737023908081,None,None,1,372.9737023908081,None,,,,,,,,,,,,,,,,,,,,,,,,,,,,,,,,,,,,,,,,,,,,,,NicoP,001,c,2019_Nov_08_1524,Experimento,3.2.3,60.00548144870991,
8,14,14,999,0.5,0:10,3,Cyan,None,0,0,1,15:50,./completed_changuitos/montage_ewjxh_452.6_523.25.jpg,right,0,0,0,0,,,,,0,9,9,9,,,,,,,,,0,0,0,0,0,18,18,18,,,,,,,,,,,,,,,,,,,,,,,,,,,,,,,,,372.9737023908081,None,None,1,372.9737023908081,None,,,,,,,,,,,,,,,,,,,,,,,,,,,,,,,,,,,,,,,,,,,,,,NicoP,001,c,2019_Nov_08_1524,Experimento,3.2.3,60.00548144870991,
8,14,14,999,0.5,0:10,3,Blue,['space'],0,0,1,15:50,./completed_changuitos/montage_ewjxh_452.6_523.25.jpg,right,0,0,0,0,,,,,0,9,9,9,,,,,,,,,0,0,0,0,0,19,19,19,,,,,,,,,,,,,,,,,,,,,,,,,,,,,,,,,372.9737023908081,None,None,0,372.9737023908081,None,,,,,,,,,,,,,,,,,,,,,,,,,,,,,,,,,,,,,,,,,,,,,,NicoP,001,c,2019_Nov_08_1524,Experimento,3.2.3,60.00548144870991,
8,14,14,999,0.5,0:10,3,Yellow,None,0,0,1,15:50,./completed_changuitos/montage_ewjxh_452.6_523.25.jpg,right,0,0,0,0,,,,,0,9,9,9,,,,,,,,,0,0,0,0,0,20,20,20,,,,,,,,,,,,,,,,,,,,,,,,,,,,,,,,,372.9737023908081,None,None,1,372.9737023908081,None,,,,,,,,,,,,,,,,,,,,,,,,,,,,,,,,,,,,,,,,,,,,,,NicoP,001,c,2019_Nov_08_1524,Experimento,3.2.3,60.00548144870991,
8,14,14,999,0.5,0:10,3,Cyan,None,0,0,1,15:50,./completed_changuitos/montage_ewjxh_452.6_523.25.jpg,right,0,0,0,0,,,,,0,9,9,9,,,,,,,,,0,0,0,0,0,21,21,21,,,,,,,,,,,,,,,,,,,,,,,,,,,,,,,,,372.9737023908081,None,None,1,372.9737023908081,None,,,,,,,,,,,,,,,,,,,,,,,,,,,,,,,,,,,,,,,,,,,,,,NicoP,001,c,2019_Nov_08_1524,Experimento,3.2.3,60.00548144870991,
8,14,14,999,0.5,0:10,3,Yellow,['space'],0,0,1,15:50,./completed_changuitos/montage_ewjxh_452.6_523.25.jpg,right,0,0,0,0,,,,,0,9,9,9,,,,,,,,,0,0,0,0,0,22,22,22,,,,,,,,,,,,,,,,,,,,,,,,,,,,,,,,,372.9903774551385,None,None,0,372.9903774551385,None,,,,,,,,,,,,,,,,,,,,,,,,,,,,,,,,,,,,,,,,,,,,,,NicoP,001,c,2019_Nov_08_1524,Experimento,3.2.3,60.00548144870991,
8,14,14,999,0.5,0:10,3,Magenta,None,0,0,1,15:50,./completed_changuitos/montage_ewjxh_452.6_523.25.jpg,right,0,0,0,0,,,,,0,9,9,9,,,,,,,,,0,0,0,0,0,23,23,23,,,,,,,,,,,,,,,,,,,,,,,,,,,,,,,,,372.9903774551385,None,None,1,372.9903774551385,None,,,,,,,,,,,,,,,,,,,,,,,,,,,,,,,,,,,,,,,,,,,,,,NicoP,001,c,2019_Nov_08_1524,Experimento,3.2.3,60.00548144870991,
8,14,14,999,0.5,0:10,3,Red,None,0,0,1,15:50,./completed_changuitos/montage_ewjxh_452.6_523.25.jpg,right,0,0,0,0,,,,,0,9,9,9,,,,,,,,,0,0,0,0,0,24,24,24,,,,,,,,,,,,,,,,,,,,,,,,,,,,,,,,,372.9903774551385,None,None,1,372.9903774551385,None,,,,,,,,,,,,,,,,,,,,,,,,,,,,,,,,,,,,,,,,,,,,,,NicoP,001,c,2019_Nov_08_1524,Experimento,3.2.3,60.00548144870991,
8,14,14,999,0.5,0:10,3,Magenta,['space'],0,0,1,15:50,./completed_changuitos/montage_ewjxh_452.6_523.25.jpg,right,0,0,0,0,,,,,0,9,9,9,,,,,,,,,0,0,0,0,0,25,25,25,,,,,,,,,,,,,,,,,,,,,,,,,,,,,,,,,372.9903774551385,None,None,0,372.9903774551385,None,,,,,,,,,,,,,,,,,,,,,,,,,,,,,,,,,,,,,,,,,,,,,,NicoP,001,c,2019_Nov_08_1524,Experimento,3.2.3,60.00548144870991,
8,14,14,999,0.5,0:10,3,Red,['space'],0,0,1,15:50,./completed_changuitos/montage_ewjxh_452.6_523.25.jpg,right,0,0,0,0,,,,,0,9,9,9,,,,,,,,,0,0,0,0,0,26,26,26,,,,,,,,,,,,,,,,,,,,,,,,,,,,,,,,,372.9903774551385,None,None,0,372.9903774551385,None,,,,,,,,,,,,,,,,,,,,,,,,,,,,,,,,,,,,,,,,,,,,,,NicoP,001,c,2019_Nov_08_1524,Experimento,3.2.3,60.00548144870991,
8,14,14,999,0.5,0:10,3,Yellow,None,0,0,1,15:50,./completed_changuitos/montage_ewjxh_452.6_523.25.jpg,right,0,0,0,0,,,,,0,9,9,9,,,,,,,,,0,0,0,0,0,27,27,27,,,,,,,,,,,,,,,,,,,,,,,,,,,,,,,,,372.9903774551385,None,None,1,372.9903774551385,None,,,,,,,,,,,,,,,,,,,,,,,,,,,,,,,,,,,,,,,,,,,,,,NicoP,001,c,2019_Nov_08_1524,Experimento,3.2.3,60.00548144870991,
8,14,14,999,0.5,0:10,3,Cyan,None,0,0,1,15:50,./completed_changuitos/montage_ewjxh_452.6_523.25.jpg,right,0,0,0,0,,,,,0,9,9,9,,,,,,,,,0,0,0,0,0,28,28,28,,,,,,,,,,,,,,,,,,,,,,,,,,,,,,,,,373.0070525194689,None,None,1,373.0070525194689,None,,,,,,,,,,,,,,,,,,,,,,,,,,,,,,,,,,,,,,,,,,,,,,NicoP,001,c,2019_Nov_08_1524,Experimento,3.2.3,60.00548144870991,
8,14,14,999,0.5,0:10,3,Green,None,0,0,1,15:50,./completed_changuitos/montage_ewjxh_452.6_523.25.jpg,right,0,0,0,0,,,,,0,9,9,9,,,,,,,,,0,0,0,0,0,29,29,29,,,,,,,,,,,,,,,,,,,,,,,,,,,,,,,,,373.0070525194689,None,None,1,373.0070525194689,None,,,,,,,,,,,,,,,,,,,,,,,,,,,,,,,,,,,,,,,,,,,,,,NicoP,001,c,2019_Nov_08_1524,Experimento,3.2.3,60.00548144870991,
8,14,14,999,0.5,0:10,3,White,None,0,0,1,15:50,./completed_changuitos/montage_ewjxh_452.6_523.25.jpg,right,0,0,0,0,,,,,0,9,9,9,,,,,,,,,0,0,0,0,0,30,30,30,,,,,,,,,,,,,,,,,,,,,,,,,,,,,,,,,373.0070525194689,None,None,1,373.0070525194689,None,,,,,,,,,,,,,,,,,,,,,,,,,,,,,,,,,,,,,,,,,,,,,,NicoP,001,c,2019_Nov_08_1524,Experimento,3.2.3,60.00548144870991,
8,14,14,999,0.5,0:10,3,Green,['space'],0,0,1,15:50,./completed_changuitos/montage_ewjxh_452.6_523.25.jpg,right,0,0,0,0,,,,,0,9,9,9,,,,,,,,,0,0,0,0,0,31,31,31,,,,,,,,,,,,,,,,,,,,,,,,,,,,,,,,,373.0070525194689,None,None,0,373.0070525194689,None,,,,,,,,,,,,,,,,,,,,,,,,,,,,,,,,,,,,,,,,,,,,,,NicoP,001,c,2019_Nov_08_1524,Experimento,3.2.3,60.00548144870991,
8,14,14,999,0.5,0:10,3,Red,None,0,0,1,15:50,./completed_changuitos/montage_ewjxh_452.6_523.25.jpg,right,0,0,0,0,,,,,0,9,9,9,,,,,,,,,0,0,0,0,0,32,32,32,,,,,,,,,,,,,,,,,,,,,,,,,,,,,,,,,373.0070525194689,None,None,1,373.0070525194689,None,,,,,,,,,,,,,,,,,,,,,,,,,,,,,,,,,,,,,,,,,,,,,,NicoP,001,c,2019_Nov_08_1524,Experimento,3.2.3,60.00548144870991,
8,14,14,999,0.5,0:10,3,Blue,None,0,0,1,15:50,./completed_changuitos/montage_ewjxh_452.6_523.25.jpg,right,0,0,0,0,,,,,0,9,9,9,,,,,,,,,0,0,0,0,0,33,33,33,,,,,,,,,,,,,,,,,,,,,,,,,,,,,,,,,373.0237275837993,None,None,1,373.0237275837993,None,,,,,,,,,,,,,,,,,,,,,,,,,,,,,,,,,,,,,,,,,,,,,,NicoP,001,c,2019_Nov_08_1524,Experimento,3.2.3,60.00548144870991,
8,14,14,999,0.5,0:10,3,Green,None,0,0,1,15:50,./completed_changuitos/montage_ewjxh_452.6_523.25.jpg,right,0,0,0,0,,,,,0,9,9,9,,,,,,,,,0,0,0,0,0,34,34,34,,,,,,,,,,,,,,,,,,,,,,,,,,,,,,,,,373.0237275837993,None,None,1,373.0237275837993,None,,,,,,,,,,,,,,,,,,,,,,,,,,,,,,,,,,,,,,,,,,,,,,NicoP,001,c,2019_Nov_08_1524,Experimento,3.2.3,60.00548144870991,
8,14,14,999,0.5,0:10,3,,,0,0,1,15:50,./completed_changuitos/montage_ewjxh_452.6_523.25.jpg,right,0,0,0,0,,,,,0,9,9,9,,,,,,,,,0,0,0,0,,,,,,,,,,,,,,,,,,,,,,,,,,,,,,,,,,,,,,,,,,,,373.09011788226053,None,right,1,1.0430900924930029,373.09011788226053,None,373.09011788226053,None,,,,,,,,,,,,,,,,,,,,,,,,,,,,,,,,,,,,NicoP,001,c,2019_Nov_08_1524,Experimento,3.2.3,60.00548144870991,
8,14,14,999,0.5,0:10,3,,,0,0,1,15:50,,,0,0,0,0,,,,,0,9,9,9,,,,,,,,,,,,,,,,,,,,,,,,,,,,,,,,,,,,,,,,,,,,,,,,,,,,,,,,,,,,,,,,,,,,,,,,,,,,,,,,,,,,,,,,,,,,,,,,,,,,NicoP,001,c,2019_Nov_08_1524,Experimento,3.2.3,60.00548144870991,
8,14,14,999,0.5,0:10,3,,,0,1,0,25:50,./completed_changuitos/montage_yzfoz_77.05_64.95.jpg,left,0,0,0,0,,,,,0,10,10,10,,,,,0,0,0,0,,,,,,,,,,,,,,,,,,,,,,374.3943015940031,375.3059934191979,375.3059934191979,383.3197235340758,383.3197235340758,397.33136020952224,right,0,1.1325153965162826,397.33136020952224,None,397.33136020952224,None,397.33136020952224,None,,,,,,,,,,,,,,,,,,,,,,,,,,,,,,,,,,,,,,,,,,,,,,,,,,,,,,,,NicoP,001,c,2019_Nov_08_1524,Experimento,3.2.3,60.00548144870991,
8,14,14,999,0.5,0:10,3,,,0,1,0,25:50,,,0,0,0,0,,,,,0,10,10,10,,,,,,,,,,,,,,,,,,,,,,,,,,,,,,,,,,,,,,,,,,,,,,,,,,,,,,,,,,,,,,,,,,,,,,,,,,,,,,,,,,,,,,,,,,,,,,,,,,,,NicoP,001,c,2019_Nov_08_1524,Experimento,3.2.3,60.00548144870991,
8,14,14,999,0.5,0:10,3,Red,None,0,0,1,28:50,./completed_changuitos/montage_jufnt_699.0_589.0.jpg,left,0,0,0,0,,,,,0,11,11,11,,,,,,,,,0,0,0,0,0,0,0,0,,,,,,,,,,,,,,,,,,,,,,,,,,,,,398.6302616380499,399.8467035919575,399.8467035919575,None,407.8935947506443,408.3935037941301,None,1,407.8935947506443,None,,,,,,,,,,,,,,,,,,,,,,,,,,,,,,,,,,,,,,,,,,,,,,NicoP,001,c,2019_Nov_08_1524,Experimento,3.2.3,60.00548144870991,
8,14,14,999,0.5,0:10,3,Magenta,['space'],0,0,1,28:50,./completed_changuitos/montage_jufnt_699.0_589.0.jpg,left,0,0,0,0,,,,,0,11,11,11,,,,,,,,,0,0,0,0,0,1,1,1,,,,,,,,,,,,,,,,,,,,,,,,,,,,,,,,,409.8928469441362,410.3926552156563,None,0,409.8928469441362,409.8928469441362,,,,,,,,,,,,,,,,,,,,,,,,,,,,,,,,,,,,,,,,,,,,,,NicoP,001,c,2019_Nov_08_1524,Experimento,3.2.3,60.00548144870991,
8,14,14,999,0.5,0:10,3,Green,None,0,0,1,28:50,./completed_changuitos/montage_jufnt_699.0_589.0.jpg,left,0,0,0,0,,,,,0,11,11,11,,,,,,,,,0,0,0,0,0,2,2,2,,,,,,,,,,,,,,,,,,,,,,,,,,,,,,,,,411.89208892955867,412.3919170937261,None,1,411.89208892955867,411.89208892955867,,,,,,,,,,,,,,,,,,,,,,,,,,,,,,,,,,,,,,,,,,,,,,NicoP,001,c,2019_Nov_08_1524,Experimento,3.2.3,60.00548144870991,
8,14,14,999,0.5,0:10,3,Yellow,['space'],0,0,1,28:50,./completed_changuitos/montage_jufnt_699.0_589.0.jpg,left,0,0,0,0,,,,,0,11,11,11,,,,,,,,,0,0,0,0,0,3,3,3,,,,,,,,,,,,,,,,,,,,,,,,,,,,,,,,,413.89130526393456,414.3912703209289,None,0,413.89130526393456,413.89130526393456,,,,,,,,,,,,,,,,,,,,,,,,,,,,,,,,,,,,,,,,,,,,,,NicoP,001,c,2019_Nov_08_1524,Experimento,3.2.3,60.00548144870991,
8,14,14,999,0.5,0:10,3,Blue,None,0,0,1,28:50,./completed_changuitos/montage_jufnt_699.0_589.0.jpg,left,0,0,0,0,,,,,0,11,11,11,,,,,,,,,0,0,0,0,0,4,4,4,,,,,,,,,,,,,,,,,,,,,,,,,,,,,,,,,415.89056557153253,416.39035735309517,None,1,415.89056557153253,415.89056557153253,,,,,,,,,,,,,,,,,,,,,,,,,,,,,,,,,,,,,,,,,,,,,,NicoP,001,c,2019_Nov_08_1524,Experimento,3.2.3,60.00548144870991,
8,14,14,999,0.5,0:10,3,Cyan,None,0,0,1,28:50,./completed_changuitos/montage_jufnt_699.0_589.0.jpg,left,0,0,0,0,,,,,0,11,11,11,,,,,,,,,0,0,0,0,0,5,5,5,,,,,,,,,,,,,,,,,,,,,,,,,,,,,,,,,417.889824570404,418.38988568794684,['return'],0,417.889824570404,417.889824570404,[0.9249248856231134],,,,,,,,,,,,,,,,,,,,,,,,,,,,,,,,,,,,,,,,,,,,,NicoP,001,c,2019_Nov_08_1524,Experimento,3.2.3,60.00548144870991,
8,14,14,999,0.5,0:10,3,Blue,['space'],0,0,1,28:50,./completed_changuitos/montage_jufnt_699.0_589.0.jpg,left,0,0,0,0,,,,,0,11,11,11,,,,,,,,,0,0,0,0,0,6,6,6,,,,,,,,,,,,,,,,,,,,,,,,,,,,,,,,,419.8890173476975,420.3889020488641,None,0,419.8890173476975,419.8890173476975,,,,,,,,,,,,,,,,,,,,,,,,,,,,,,,,,,,,,,,,,,,,,,NicoP,001,c,2019_Nov_08_1524,Experimento,3.2.3,60.00548144870991,
8,14,14,999,0.5,0:10,3,Yellow,None,0,0,1,28:50,./completed_changuitos/montage_jufnt_699.0_589.0.jpg,left,0,0,0,0,,,,,0,11,11,11,,,,,,,,,0,0,0,0,0,7,7,7,,,,,,,,,,,,,,,,,,,,,,,,,,,,,,,,,421.87160531311673,None,None,1,421.87160531311673,None,,,,,,,,,,,,,,,,,,,,,,,,,,,,,,,,,,,,,,,,,,,,,,NicoP,001,c,2019_Nov_08_1524,Experimento,3.2.3,60.00548144870991,
8,14,14,999,0.5,0:10,3,Cyan,None,0,0,1,28:50,./completed_changuitos/montage_jufnt_699.0_589.0.jpg,left,0,0,0,0,,,,,0,11,11,11,,,,,,,,,0,0,0,0,0,8,8,8,,,,,,,,,,,,,,,,,,,,,,,,,,,,,,,,,421.87160531311673,None,None,1,421.87160531311673,None,,,,,,,,,,,,,,,,,,,,,,,,,,,,,,,,,,,,,,,,,,,,,,NicoP,001,c,2019_Nov_08_1524,Experimento,3.2.3,60.00548144870991,
8,14,14,999,0.5,0:10,3,Yellow,['space'],0,0,1,28:50,./completed_changuitos/montage_jufnt_699.0_589.0.jpg,left,0,0,0,0,,,,,0,11,11,11,,,,,,,,,0,0,0,0,0,9,9,9,,,,,,,,,,,,,,,,,,,,,,,,,,,,,,,,,421.87160531311673,None,None,0,421.87160531311673,None,,,,,,,,,,,,,,,,,,,,,,,,,,,,,,,,,,,,,,,,,,,,,,NicoP,001,c,2019_Nov_08_1524,Experimento,3.2.3,60.00548144870991,
8,14,14,999,0.5,0:10,3,Magenta,None,0,0,1,28:50,./completed_changuitos/montage_jufnt_699.0_589.0.jpg,left,0,0,0,0,,,,,0,11,11,11,,,,,,,,,0,0,0,0,0,10,10,10,,,,,,,,,,,,,,,,,,,,,,,,,,,,,,,,,421.88828037744713,None,None,1,421.88828037744713,None,,,,,,,,,,,,,,,,,,,,,,,,,,,,,,,,,,,,,,,,,,,,,,NicoP,001,c,2019_Nov_08_1524,Experimento,3.2.3,60.00548144870991,
8,14,14,999,0.5,0:10,3,Red,None,0,0,1,28:50,./completed_changuitos/montage_jufnt_699.0_589.0.jpg,left,0,0,0,0,,,,,0,11,11,11,,,,,,,,,0,0,0,0,0,11,11,11,,,,,,,,,,,,,,,,,,,,,,,,,,,,,,,,,421.88828037744713,None,None,1,421.88828037744713,None,,,,,,,,,,,,,,,,,,,,,,,,,,,,,,,,,,,,,,,,,,,,,,NicoP,001,c,2019_Nov_08_1524,Experimento,3.2.3,60.00548144870991,
8,14,14,999,0.5,0:10,3,Magenta,['space'],0,0,1,28:50,./completed_changuitos/montage_jufnt_699.0_589.0.jpg,left,0,0,0,0,,,,,0,11,11,11,,,,,,,,,0,0,0,0,0,12,12,12,,,,,,,,,,,,,,,,,,,,,,,,,,,,,,,,,421.88828037744713,None,None,0,421.88828037744713,None,,,,,,,,,,,,,,,,,,,,,,,,,,,,,,,,,,,,,,,,,,,,,,NicoP,001,c,2019_Nov_08_1524,Experimento,3.2.3,60.00548144870991,
8,14,14,999,0.5,0:10,3,Red,['space'],0,0,1,28:50,./completed_changuitos/montage_jufnt_699.0_589.0.jpg,left,0,0,0,0,,,,,0,11,11,11,,,,,,,,,0,0,0,0,0,13,13,13,,,,,,,,,,,,,,,,,,,,,,,,,,,,,,,,,421.90495544177753,None,None,0,421.90495544177753,None,,,,,,,,,,,,,,,,,,,,,,,,,,,,,,,,,,,,,,,,,,,,,,NicoP,001,c,2019_Nov_08_1524,Experimento,3.2.3,60.00548144870991,
8,14,14,999,0.5,0:10,3,Yellow,None,0,0,1,28:50,./completed_changuitos/montage_jufnt_699.0_589.0.jpg,left,0,0,0,0,,,,,0,11,11,11,,,,,,,,,0,0,0,0,0,14,14,14,,,,,,,,,,,,,,,,,,,,,,,,,,,,,,,,,421.90495544177753,None,None,1,421.90495544177753,None,,,,,,,,,,,,,,,,,,,,,,,,,,,,,,,,,,,,,,,,,,,,,,NicoP,001,c,2019_Nov_08_1524,Experimento,3.2.3,60.00548144870991,
8,14,14,999,0.5,0:10,3,Cyan,None,0,0,1,28:50,./completed_changuitos/montage_jufnt_699.0_589.0.jpg,left,0,0,0,0,,,,,0,11,11,11,,,,,,,,,0,0,0,0,0,15,15,15,,,,,,,,,,,,,,,,,,,,,,,,,,,,,,,,,421.90495544177753,None,None,1,421.90495544177753,None,,,,,,,,,,,,,,,,,,,,,,,,,,,,,,,,,,,,,,,,,,,,,,NicoP,001,c,2019_Nov_08_1524,Experimento,3.2.3,60.00548144870991,
8,14,14,999,0.5,0:10,3,Green,None,0,0,1,28:50,./completed_changuitos/montage_jufnt_699.0_589.0.jpg,left,0,0,0,0,,,,,0,11,11,11,,,,,,,,,0,0,0,0,0,16,16,16,,,,,,,,,,,,,,,,,,,,,,,,,,,,,,,,,421.921630506108,None,None,1,421.921630506108,None,,,,,,,,,,,,,,,,,,,,,,,,,,,,,,,,,,,,,,,,,,,,,,NicoP,001,c,2019_Nov_08_1524,Experimento,3.2.3,60.00548144870991,
8,14,14,999,0.5,0:10,3,White,None,0,0,1,28:50,./completed_changuitos/montage_jufnt_699.0_589.0.jpg,left,0,0,0,0,,,,,0,11,11,11,,,,,,,,,0,0,0,0,0,17,17,17,,,,,,,,,,,,,,,,,,,,,,,,,,,,,,,,,421.921630506108,None,None,1,421.921630506108,None,,,,,,,,,,,,,,,,,,,,,,,,,,,,,,,,,,,,,,,,,,,,,,NicoP,001,c,2019_Nov_08_1524,Experimento,3.2.3,60.00548144870991,
8,14,14,999,0.5,0:10,3,Green,['space'],0,0,1,28:50,./completed_changuitos/montage_jufnt_699.0_589.0.jpg,left,0,0,0,0,,,,,0,11,11,11,,,,,,,,,0,0,0,0,0,18,18,18,,,,,,,,,,,,,,,,,,,,,,,,,,,,,,,,,421.921630506108,None,None,0,421.921630506108,None,,,,,,,,,,,,,,,,,,,,,,,,,,,,,,,,,,,,,,,,,,,,,,NicoP,001,c,2019_Nov_08_1524,Experimento,3.2.3,60.00548144870991,
8,14,14,999,0.5,0:10,3,Red,None,0,0,1,28:50,./completed_changuitos/montage_jufnt_699.0_589.0.jpg,left,0,0,0,0,,,,,0,11,11,11,,,,,,,,,0,0,0,0,0,19,19,19,,,,,,,,,,,,,,,,,,,,,,,,,,,,,,,,,421.921630506108,None,None,1,421.921630506108,None,,,,,,,,,,,,,,,,,,,,,,,,,,,,,,,,,,,,,,,,,,,,,,NicoP,001,c,2019_Nov_08_1524,Experimento,3.2.3,60.00548144870991,
8,14,14,999,0.5,0:10,3,Blue,None,0,0,1,28:50,./completed_changuitos/montage_jufnt_699.0_589.0.jpg,left,0,0,0,0,,,,,0,11,11,11,,,,,,,,,0,0,0,0,0,20,20,20,,,,,,,,,,,,,,,,,,,,,,,,,,,,,,,,,421.9383055704384,None,None,1,421.9383055704384,None,,,,,,,,,,,,,,,,,,,,,,,,,,,,,,,,,,,,,,,,,,,,,,NicoP,001,c,2019_Nov_08_1524,Experimento,3.2.3,60.00548144870991,
8,14,14,999,0.5,0:10,3,Green,None,0,0,1,28:50,./completed_changuitos/montage_jufnt_699.0_589.0.jpg,left,0,0,0,0,,,,,0,11,11,11,,,,,,,,,0,0,0,0,0,21,21,21,,,,,,,,,,,,,,,,,,,,,,,,,,,,,,,,,421.9383055704384,None,None,1,421.9383055704384,None,,,,,,,,,,,,,,,,,,,,,,,,,,,,,,,,,,,,,,,,,,,,,,NicoP,001,c,2019_Nov_08_1524,Experimento,3.2.3,60.00548144870991,
8,14,14,999,0.5,0:10,3,,,0,0,1,28:50,./completed_changuitos/montage_jufnt_699.0_589.0.jpg,left,0,0,0,0,,,,,0,11,11,11,,,,,,,,,0,0,0,0,,,,,,,,,,,,,,,,,,,,,,,,,,,,,,,,,,,,,,,,,,,,422.03819519241824,None,right,0,1.1302211983911548,422.03819519241824,None,422.03819519241824,None,,,,,,,,,,,,,,,,,,,,,,,,,,,,,,,,,,,,NicoP,001,c,2019_Nov_08_1524,Experimento,3.2.3,60.00548144870991,
8,14,14,999,0.5,0:10,3,,,0,0,1,28:50,,,0,0,0,0,,,,,0,11,11,11,,,,,,,,,,,,,,,,,,,,,,,,,,,,,,,,,,,,,,,,,,,,,,,,,,,,,,,,,,,,,,,,,,,,,,,,,,,,,,,,,,,,,,,,,,,,,,,,,,,,NicoP,001,c,2019_Nov_08_1524,Experimento,3.2.3,60.00548144870991,
8,14,14,999,0.5,0:10,3,,,1,0,0,30:50,./completed_changuitos/montage_docte_149.69_126.25.jpg,left,0,0,0,0,,,,,0,12,12,12,0,0,0,0,,,,,,,,,,,,,,,,,,,,,,,,,,,,,,,,,,,,,,,,,,,,,,,,,,,,,,,,,,,,,423.87090064224503,424.6538556270152,424.6538556270152,432.66757998349476,right,0,0.9622013518101085,432.66757998349476,None,432.66757998349476,None,432.66757998349476,None,,,,,,,,,,,,,,,,,,,,,,,NicoP,001,c,2019_Nov_08_1524,Experimento,3.2.3,60.00548144870991,
8,14,14,999,0.5,0:10,3,,,1,0,0,30:50,,,0,0,0,0,,,,,0,12,12,12,,,,,,,,,,,,,,,,,,,,,,,,,,,,,,,,,,,,,,,,,,,,,,,,,,,,,,,,,,,,,,,,,,,,,,,,,,,,,,,,,,,,,,,,,,,,,,,,,,,,NicoP,001,c,2019_Nov_08_1524,Experimento,3.2.3,60.00548144870991,
8,14,14,999,0.5,0:10,3,,,1,0,0,32:50,./completed_changuitos/montage_imexa_104.75_119.85.jpg,right,0,0,0,0,,,,,0,13,13,13,0,0,0,0,,,,,,,,,,,,,,,,,,,,,,,,,,,,,,,,,,,,,,,,,,,,,,,,,,,,,,,,,,,,,434.3503527149669,435.26665309080727,435.26665309080727,443.28021228596117,right,1,0.821146251008031,443.28021228596117,None,443.28021228596117,None,443.28021228596117,None,,,,,,,,,,,,,,,,,,,,,,,NicoP,001,c,2019_Nov_08_1524,Experimento,3.2.3,60.00548144870991,
8,14,14,999,0.5,0:10,3,,,1,0,0,32:50,,,0,0,0,0,,,,,0,13,13,13,,,,,,,,,,,,,,,,,,,,,,,,,,,,,,,,,,,,,,,,,,,,,,,,,,,,,,,,,,,,,,,,,,,,,,,,,,,,,,,,,,,,,,,,,,,,,,,,,,,,NicoP,001,c,2019_Nov_08_1524,Experimento,3.2.3,60.00548144870991,
8,14,14,999,0.5,0:10,3,,,1,0,0,34:50,./completed_changuitos/montage_yhzzf_139.09_160.49.jpg,right,0,0,0,0,,,,,0,14,14,14,0,0,0,0,,,,,,,,,,,,,,,,,,,,,,,,,,,,,,,,,,,,,,,,,,,,,,,,,,,,,,,,,,,,,444.8129962855719,445.64606058829395,445.64606058829395,453.6596849580437,left,0,1.161159238813525,453.6596849580437,None,453.6596849580437,None,453.6596849580437,None,,,,,,,,,,,,,,,,,,,,,,,NicoP,001,c,2019_Nov_08_1524,Experimento,3.2.3,60.00548144870991,
8,14,14,999,0.5,0:10,3,,,1,0,0,34:50,,,0,0,0,0,,,,,0,14,14,14,,,,,,,,,,,,,,,,,,,,,,,,,,,,,,,,,,,,,,,,,,,,,,,,,,,,,,,,,,,,,,,,,,,,,,,,,,,,,,,,,,,,,,,,,,,,,,,,,,,,NicoP,001,c,2019_Nov_08_1524,Experimento,3.2.3,60.00548144870991,
8,14,14,999,0.5,0:10,3,,,1,0,0,30:50,./completed_changuitos/montage_cpmfo_390.0_341.35.jpg,left,0,0,0,0,,,,,0,15,15,15,0,0,0,0,,,,,,,,,,,,,,,,,,,,,,,,,,,,,,,,,,,,,,,,,,,,,,,,,,,,,,,,,,,,,455.5089704062839,456.6252144021728,456.6252144021728,464.6387390469381,right,0,0.5735796322314854,464.6387390469381,None,464.6387390469381,None,464.6387390469381,None,,,,,,,,,,,,,,,,,,,,,,,NicoP,001,c,2019_Nov_08_1524,Experimento,3.2.3,60.00548144870991,
8,14,14,999,0.5,0:10,3,,,1,0,0,30:50,,,0,0,0,0,,,,,0,15,15,15,,,,,,,,,,,,,,,,,,,,,,,,,,,,,,,,,,,,,,,,,,,,,,,,,,,,,,,,,,,,,,,,,,,,,,,,,,,,,,,,,,,,,,,,,,,,,,,,,,,,NicoP,001,c,2019_Nov_08_1524,Experimento,3.2.3,60.00548144870991,
8,14,14,999,0.5,0:10,3,,,1,0,0,32:50,./completed_changuitos/montage_tmtke_125.19_109.89.jpg,left,0,0,0,0,,,,,0,16,16,16,0,0,0,0,,,,,,,,,,,,,,,,,,,,,,,,,,,,,,,,,,,,,,,,,,,,,,,,,,,,,,,,,,,,,465.9217561962323,466.6046440956661,466.6046440956661,474.61833808968277,left,1,0.6975362170514927,474.61833808968277,None,474.61833808968277,None,474.61833808968277,None,,,,,,,,,,,,,,,,,,,,,,,NicoP,001,c,2019_Nov_08_1524,Experimento,3.2.3,60.00548144870991,
8,14,14,999,0.5,0:10,3,,,1,0,0,32:50,,,0,0,0,0,,,,,0,16,16,16,,,,,,,,,,,,,,,,,,,,,,,,,,,,,,,,,,,,,,,,,,,,,,,,,,,,,,,,,,,,,,,,,,,,,,,,,,,,,,,,,,,,,,,,,,,,,,,,,,,,NicoP,001,c,2019_Nov_08_1524,Experimento,3.2.3,60.00548144870991,
8,14,14,999,0.5,0:10,3,,,1,0,0,34:50,./completed_changuitos/montage_ztvxj_76.0_66.05.jpg,left,0,0,0,0,,,,,0,17,17,17,0,0,0,0,,,,,,,,,,,,,,,,,,,,,,,,,,,,,,,,,,,,,,,,,,,,,,,,,,,,,,,,,,,,,476.0178259063523,476.90088959397326,476.90088959397326,484.91442941996957,left,1,1.2888990911415021,484.91442941996957,None,484.91442941996957,None,484.91442941996957,None,,,,,,,,,,,,,,,,,,,,,,,NicoP,001,c,2019_Nov_08_1524,Experimento,3.2.3,60.00548144870991,
8,14,14,999,0.5,0:10,3,,,1,0,0,34:50,,,0,0,0,0,,,,,0,17,17,17,,,,,,,,,,,,,,,,,,,,,,,,,,,,,,,,,,,,,,,,,,,,,,,,,,,,,,,,,,,,,,,,,,,,,,,,,,,,,,,,,,,,,,,,,,,,,,,,,,,,NicoP,001,c,2019_Nov_08_1524,Experimento,3.2.3,60.00548144870991,
8,14,14,999,0.5,0:10,3,,,,,,,,,0,0,0,0,,,,,,,,,,,,,,,,,,,,,,,,,,,,,,,,,,,,,,,,,,,,,,,,,,,,,,,,,,,,,,,,,,,,,,,,,,,,,,,,,,,,,,486.3138512768073,488.6296800398486,2,15.28471011831607,488.6296800398486,None,488.6296800398486,None,c,9.573370759430873,503.94050998990497,None,503.94050998990497,None,503.94050998990497,None,513.536968261019,None,5,3.6649583419166447,513.536968261019,None,NicoP,001,c,2019_Nov_08_1524,Experimento,3.2.3,60.00548144870991,
