changuito_time_to_show,time_to_think,time_to_play,total_items,nback_stimulus_time,nback_training,time_to_show_tiny_stimulus,colourtest,corresp,inmediato,consciente,inconsciente,nback_slice,imagen,correcta,trials_5.thisRepN,trials_5.thisTrialN,trials_5.thisN,trials_5.thisIndex,nback_train.thisRepN,nback_train.thisTrialN,nback_train.thisN,nback_train.thisIndex,treatment_order.thisRepN,treatment_order.thisTrialN,treatment_order.thisN,treatment_order.thisIndex,trials.thisRepN,trials.thisTrialN,trials.thisN,trials.thisIndex,trials_2.thisRepN,trials_2.thisTrialN,trials_2.thisN,trials_2.thisIndex,trials_3.thisRepN,trials_3.thisTrialN,trials_3.thisN,trials_3.thisIndex,trials_4.thisRepN,trials_4.thisTrialN,trials_4.thisN,trials_4.thisIndex,Presentacion.started,Presentacion.stopped,Juego.started,Juego.stopped,image_6.started,image_6.stopped,polygon.started,polygon.stopped,nback_train_resp.keys,nback_train_resp.corr,nback_train_resp.started,nback_train_resp.stopped,holi.started,holi.stopped,image_3.started,image_3.stopped,polygon_2.started,polygon_2.stopped,nback_train_resp_2.keys,nback_train_resp_2.corr,nback_train_resp_2.started,nback_train_resp_2.stopped,nback_train_resp_2.rt,text_2.started,text_2.stopped,key_resp.keys,key_resp.corr,key_resp.rt,key_resp.started,key_resp.stopped,image_5.started,image_5.stopped,hola.started,hola.stopped,image_2.started,image_2.stopped,tiempo_para_pensar.started,tiempo_para_pensar.stopped,respuesta_consciente.keys,respuesta_consciente.corr,respuesta_consciente.rt,respuesta_consciente.started,respuesta_consciente.stopped,cual_es_la_mas_barata.started,cual_es_la_mas_barata.stopped,image_4.started,image_4.stopped,text.started,text.stopped,image.started,image.stopped,respuesta_inmediato.keys,respuesta_inmediato.corr,respuesta_inmediato.rt,respuesta_inmediato.started,respuesta_inmediato.stopped,pregunta_cual_es_el_mas_barato.started,pregunta_cual_es_el_mas_barato.stopped,short_stim1.started,short_stim1.stopped,gracias.started,gracias.stopped,respuesta1.keys,respuesta1.rt,respuesta1.started,respuesta1.stopped,pregunta1.started,pregunta1.stopped,respuesta3bis_3.keys,respuesta3bis_3.rt,respuesta3bis_3.started,respuesta3bis_3.stopped,pregunta3_3.started,pregunta3_3.stopped,productoCon3RANGOSabc_3.started,productoCon3RANGOSabc_3.stopped,text_3.started,text_3.stopped,key_resp_2.keys,key_resp_2.rt,key_resp_2.started,key_resp_2.stopped,participant,session,group,date,expName,psychopyVersion,frameRate,
8,14,14,999,0.5,0:10,3,White,None,,,,,,,0,0,0,0,0,0,0,0,,,,,,,,,,,,,,,,,,,,,18.122105663991533,None,28.323976130996016,None,28.323976130996016,None,45.33218361399486,45.8347347730014,None,1,45.33218361399486,None,,,,,,,,,,,,,,,,,,,,,,,,,,,,,,,,,,,,,,,,,,,,,,,,,,,,,,,,,,,,,,,,,,,,,,,rodrigo_l,001,b,2019_Oct_10_1316,Experimento,3.2.3,60.02700519176141,
8,14,14,999,0.5,0:10,3,Red,None,,,,,,,0,0,0,0,0,1,1,1,,,,,,,,,,,,,,,,,,,,,,,,,,,47.33404490799876,47.833853705000365,None,1,47.33404490799876,47.33404490799876,,,,,,,,,,,,,,,,,,,,,,,,,,,,,,,,,,,,,,,,,,,,,,,,,,,,,,,,,,,,,,,,,,,,,,,rodrigo_l,001,b,2019_Oct_10_1316,Experimento,3.2.3,60.02700519176141,
8,14,14,999,0.5,0:10,3,Magenta,None,,,,,,,0,0,0,0,0,2,2,2,,,,,,,,,,,,,,,,,,,,,,,,,,,49.333493183003156,49.833558097991045,None,1,49.333493183003156,49.333493183003156,,,,,,,,,,,,,,,,,,,,,,,,,,,,,,,,,,,,,,,,,,,,,,,,,,,,,,,,,,,,,,,,,,,,,,,rodrigo_l,001,b,2019_Oct_10_1316,Experimento,3.2.3,60.02700519176141,
8,14,14,999,0.5,0:10,3,Cyan,None,,,,,,,0,0,0,0,0,3,3,3,,,,,,,,,,,,,,,,,,,,,,,,,,,51.333005289998255,51.832876475993544,None,1,51.333005289998255,51.333005289998255,,,,,,,,,,,,,,,,,,,,,,,,,,,,,,,,,,,,,,,,,,,,,,,,,,,,,,,,,,,,,,,,,,,,,,,rodrigo_l,001,b,2019_Oct_10_1316,Experimento,3.2.3,60.02700519176141,
8,14,14,999,0.5,0:10,3,Magenta,['space'],,,,,,,0,0,0,0,0,4,4,4,,,,,,,,,,,,,,,,,,,,,,,,,,,53.348849107002025,53.848628976003965,None,0,53.348849107002025,53.348849107002025,,,,,,,,,,,,,,,,,,,,,,,,,,,,,,,,,,,,,,,,,,,,,,,,,,,,,,,,,,,,,,,,,,,,,,,rodrigo_l,001,b,2019_Oct_10_1316,Experimento,3.2.3,60.02700519176141,
8,14,14,999,0.5,0:10,3,Green,None,,,,,,,0,0,0,0,0,5,5,5,,,,,,,,,,,,,,,,,,,,,,,,,,,55.34831311900052,55.84816522500478,None,1,55.34831311900052,55.34831311900052,,,,,,,,,,,,,,,,,,,,,,,,,,,,,,,,,,,,,,,,,,,,,,,,,,,,,,,,,,,,,,,,,,,,,,,rodrigo_l,001,b,2019_Oct_10_1316,Experimento,3.2.3,60.02700519176141,
8,14,14,999,0.5,0:10,3,White,None,,,,,,,0,0,0,0,0,6,6,6,,,,,,,,,,,,,,,,,,,,,,,,,,,57.34761470199737,57.84708742699877,None,1,57.34761470199737,57.34761470199737,,,,,,,,,,,,,,,,,,,,,,,,,,,,,,,,,,,,,,,,,,,,,,,,,,,,,,,,,,,,,,,,,,,,,,,rodrigo_l,001,b,2019_Oct_10_1316,Experimento,3.2.3,60.02700519176141,
8,14,14,999,0.5,0:10,3,Green,['space'],,,,,,,0,0,0,0,0,7,7,7,,,,,,,,,,,,,,,,,,,,,,,,,,,59.346900705000735,59.846837803997914,None,0,59.346900705000735,59.346900705000735,,,,,,,,,,,,,,,,,,,,,,,,,,,,,,,,,,,,,,,,,,,,,,,,,,,,,,,,,,,,,,,,,,,,,,,rodrigo_l,001,b,2019_Oct_10_1316,Experimento,3.2.3,60.02700519176141,
8,14,14,999,0.5,0:10,3,Blue,None,,,,,,,0,0,0,0,0,8,8,8,,,,,,,,,,,,,,,,,,,,,,,,,,,61.34632187499665,61.84583381199627,None,1,61.34632187499665,61.34632187499665,,,,,,,,,,,,,,,,,,,,,,,,,,,,,,,,,,,,,,,,,,,,,,,,,,,,,,,,,,,,,,,,,,,,,,,rodrigo_l,001,b,2019_Oct_10_1316,Experimento,3.2.3,60.02700519176141,
8,14,14,999,0.5,0:10,3,Green,['space'],,,,,,,0,0,0,0,0,9,9,9,,,,,,,,,,,,,,,,,,,,,,,,,,,63.34560164400318,63.84544342599111,None,0,63.34560164400318,63.34560164400318,,,,,,,,,,,,,,,,,,,,,,,,,,,,,,,,,,,,,,,,,,,,,,,,,,,,,,,,,,,,,,,,,,,,,,,rodrigo_l,001,b,2019_Oct_10_1316,Experimento,3.2.3,60.02700519176141,
8,14,14,999,0.5,0:10,3,Yellow,None,0,0,1,15:50,./completed_changuitos/montage_htmhs_213.29_189.6.jpg,left,0,0,0,0,,,,,0,0,0,0,,,,,,,,,0,0,0,0,0,0,0,0,,,,,,,,,,,,,65.44487253099214,79.44012755400036,79.44012755400036,None,87.48229753199848,87.98723804799374,None,1,87.48229753199848,None,,,,,,,,,,,,,,,,,,,,,,,,,,,,,,,,,,,,,,,,,,,,,,,,,,,,,,,,,,,,,rodrigo_l,001,b,2019_Oct_10_1316,Experimento,3.2.3,60.02700519176141,
8,14,14,999,0.5,0:10,3,White,['space'],0,0,1,15:50,./completed_changuitos/montage_htmhs_213.29_189.6.jpg,left,0,0,0,0,,,,,0,0,0,0,,,,,,,,,0,0,0,0,0,1,1,1,,,,,,,,,,,,,,,,,89.48657020699466,89.98651766699913,None,0,89.48657020699466,89.48657020699466,,,,,,,,,,,,,,,,,,,,,,,,,,,,,,,,,,,,,,,,,,,,,,,,,,,,,,,,,,,,,rodrigo_l,001,b,2019_Oct_10_1316,Experimento,3.2.3,60.02700519176141,
8,14,14,999,0.5,0:10,3,Magenta,None,0,0,1,15:50,./completed_changuitos/montage_htmhs_213.29_189.6.jpg,left,0,0,0,0,,,,,0,0,0,0,,,,,,,,,0,0,0,0,0,2,2,2,,,,,,,,,,,,,,,,,91.48589723400073,91.98581323499093,None,1,91.48589723400073,91.48589723400073,,,,,,,,,,,,,,,,,,,,,,,,,,,,,,,,,,,,,,,,,,,,,,,,,,,,,,,,,,,,,rodrigo_l,001,b,2019_Oct_10_1316,Experimento,3.2.3,60.02700519176141,
8,14,14,999,0.5,0:10,3,Cyan,None,0,0,1,15:50,./completed_changuitos/montage_htmhs_213.29_189.6.jpg,left,0,0,0,0,,,,,0,0,0,0,,,,,,,,,0,0,0,0,0,3,3,3,,,,,,,,,,,,,,,,,93.4849971789954,93.98512687999755,None,1,93.4849971789954,93.4849971789954,,,,,,,,,,,,,,,,,,,,,,,,,,,,,,,,,,,,,,,,,,,,,,,,,,,,,,,,,,,,,rodrigo_l,001,b,2019_Oct_10_1316,Experimento,3.2.3,60.02700519176141,
8,14,14,999,0.5,0:10,3,Blue,None,0,0,1,15:50,./completed_changuitos/montage_htmhs_213.29_189.6.jpg,left,0,0,0,0,,,,,0,0,0,0,,,,,,,,,0,0,0,0,0,4,4,4,,,,,,,,,,,,,,,,,95.48424456799694,95.98440316099732,None,1,95.48424456799694,95.48424456799694,,,,,,,,,,,,,,,,,,,,,,,,,,,,,,,,,,,,,,,,,,,,,,,,,,,,,,,,,,,,,rodrigo_l,001,b,2019_Oct_10_1316,Experimento,3.2.3,60.02700519176141,
8,14,14,999,0.5,0:10,3,Magenta,None,0,0,1,15:50,./completed_changuitos/montage_htmhs_213.29_189.6.jpg,left,0,0,0,0,,,,,0,0,0,0,,,,,,,,,0,0,0,0,0,5,5,5,,,,,,,,,,,,,,,,,97.483848984004,97.98340729800111,['return'],0,97.483848984004,97.483848984004,[0.7013618009950733],,,,,,,,,,,,,,,,,,,,,,,,,,,,,,,,,,,,,,,,,,,,,,,,,,,,,,,,,,,,rodrigo_l,001,b,2019_Oct_10_1316,Experimento,3.2.3,60.02700519176141,
8,14,14,999,0.5,0:10,3,Blue,['space'],0,0,1,15:50,./completed_changuitos/montage_htmhs_213.29_189.6.jpg,left,0,0,0,0,,,,,0,0,0,0,,,,,,,,,0,0,0,0,0,6,6,6,,,,,,,,,,,,,,,,,99.48287697399792,99.98272582500067,None,0,99.48287697399792,99.48287697399792,,,,,,,,,,,,,,,,,,,,,,,,,,,,,,,,,,,,,,,,,,,,,,,,,,,,,,,,,,,,,rodrigo_l,001,b,2019_Oct_10_1316,Experimento,3.2.3,60.02700519176141,
8,14,14,999,0.5,0:10,3,Cyan,None,0,0,1,15:50,./completed_changuitos/montage_htmhs_213.29_189.6.jpg,left,0,0,0,0,,,,,0,0,0,0,,,,,,,,,0,0,0,0,0,7,7,7,,,,,,,,,,,,,,,,,101.46573800740444,None,None,1,101.46573800740444,None,,,,,,,,,,,,,,,,,,,,,,,,,,,,,,,,,,,,,,,,,,,,,,,,,,,,,,,,,,,,,rodrigo_l,001,b,2019_Oct_10_1316,Experimento,3.2.3,60.02700519176141,
8,14,14,999,0.5,0:10,3,Yellow,None,0,0,1,15:50,./completed_changuitos/montage_htmhs_213.29_189.6.jpg,left,0,0,0,0,,,,,0,0,0,0,,,,,,,,,0,0,0,0,0,8,8,8,,,,,,,,,,,,,,,,,101.46573800740444,None,None,1,101.46573800740444,None,,,,,,,,,,,,,,,,,,,,,,,,,,,,,,,,,,,,,,,,,,,,,,,,,,,,,,,,,,,,,rodrigo_l,001,b,2019_Oct_10_1316,Experimento,3.2.3,60.02700519176141,
8,14,14,999,0.5,0:10,3,Cyan,None,0,0,1,15:50,./completed_changuitos/montage_htmhs_213.29_189.6.jpg,left,0,0,0,0,,,,,0,0,0,0,,,,,,,,,0,0,0,0,0,9,9,9,,,,,,,,,,,,,,,,,101.46573800740444,None,None,1,101.46573800740444,None,,,,,,,,,,,,,,,,,,,,,,,,,,,,,,,,,,,,,,,,,,,,,,,,,,,,,,,,,,,,,rodrigo_l,001,b,2019_Oct_10_1316,Experimento,3.2.3,60.02700519176141,
8,14,14,999,0.5,0:10,3,Blue,None,0,0,1,15:50,./completed_changuitos/montage_htmhs_213.29_189.6.jpg,left,0,0,0,0,,,,,0,0,0,0,,,,,,,,,0,0,0,0,0,10,10,10,,,,,,,,,,,,,,,,,101.46573800740444,None,None,1,101.46573800740444,None,,,,,,,,,,,,,,,,,,,,,,,,,,,,,,,,,,,,,,,,,,,,,,,,,,,,,,,,,,,,,rodrigo_l,001,b,2019_Oct_10_1316,Experimento,3.2.3,60.02700519176141,
8,14,14,999,0.5,0:10,3,Cyan,['space'],0,0,1,15:50,./completed_changuitos/montage_htmhs_213.29_189.6.jpg,left,0,0,0,0,,,,,0,0,0,0,,,,,,,,,0,0,0,0,0,11,11,11,,,,,,,,,,,,,,,,,101.46573800740444,None,None,0,101.46573800740444,None,,,,,,,,,,,,,,,,,,,,,,,,,,,,,,,,,,,,,,,,,,,,,,,,,,,,,,,,,,,,,rodrigo_l,001,b,2019_Oct_10_1316,Experimento,3.2.3,60.02700519176141,
8,14,14,999,0.5,0:10,3,Magenta,None,0,0,1,15:50,./completed_changuitos/montage_htmhs_213.29_189.6.jpg,left,0,0,0,0,,,,,0,0,0,0,,,,,,,,,0,0,0,0,0,12,12,12,,,,,,,,,,,,,,,,,101.46573800740444,None,None,1,101.46573800740444,None,,,,,,,,,,,,,,,,,,,,,,,,,,,,,,,,,,,,,,,,,,,,,,,,,,,,,,,,,,,,,rodrigo_l,001,b,2019_Oct_10_1316,Experimento,3.2.3,60.02700519176141,
8,14,14,999,0.5,0:10,3,Red,None,0,0,1,15:50,./completed_changuitos/montage_htmhs_213.29_189.6.jpg,left,0,0,0,0,,,,,0,0,0,0,,,,,,,,,0,0,0,0,0,13,13,13,,,,,,,,,,,,,,,,,101.48240381480429,None,None,1,101.48240381480429,None,,,,,,,,,,,,,,,,,,,,,,,,,,,,,,,,,,,,,,,,,,,,,,,,,,,,,,,,,,,,,rodrigo_l,001,b,2019_Oct_10_1316,Experimento,3.2.3,60.02700519176141,
8,14,14,999,0.5,0:10,3,Magenta,['space'],0,0,1,15:50,./completed_changuitos/montage_htmhs_213.29_189.6.jpg,left,0,0,0,0,,,,,0,0,0,0,,,,,,,,,0,0,0,0,0,14,14,14,,,,,,,,,,,,,,,,,101.48240381480429,None,None,0,101.48240381480429,None,,,,,,,,,,,,,,,,,,,,,,,,,,,,,,,,,,,,,,,,,,,,,,,,,,,,,,,,,,,,,rodrigo_l,001,b,2019_Oct_10_1316,Experimento,3.2.3,60.02700519176141,
8,14,14,999,0.5,0:10,3,Green,None,0,0,1,15:50,./completed_changuitos/montage_htmhs_213.29_189.6.jpg,left,0,0,0,0,,,,,0,0,0,0,,,,,,,,,0,0,0,0,0,15,15,15,,,,,,,,,,,,,,,,,101.48240381480429,None,None,1,101.48240381480429,None,,,,,,,,,,,,,,,,,,,,,,,,,,,,,,,,,,,,,,,,,,,,,,,,,,,,,,,,,,,,,rodrigo_l,001,b,2019_Oct_10_1316,Experimento,3.2.3,60.02700519176141,
8,14,14,999,0.5,0:10,3,Yellow,['space'],0,0,1,15:50,./completed_changuitos/montage_htmhs_213.29_189.6.jpg,left,0,0,0,0,,,,,0,0,0,0,,,,,,,,,0,0,0,0,0,16,16,16,,,,,,,,,,,,,,,,,101.48240381480429,None,None,0,101.48240381480429,None,,,,,,,,,,,,,,,,,,,,,,,,,,,,,,,,,,,,,,,,,,,,,,,,,,,,,,,,,,,,,rodrigo_l,001,b,2019_Oct_10_1316,Experimento,3.2.3,60.02700519176141,
8,14,14,999,0.5,0:10,3,Blue,None,0,0,1,15:50,./completed_changuitos/montage_htmhs_213.29_189.6.jpg,left,0,0,0,0,,,,,0,0,0,0,,,,,,,,,0,0,0,0,0,17,17,17,,,,,,,,,,,,,,,,,101.48240381480429,None,None,1,101.48240381480429,None,,,,,,,,,,,,,,,,,,,,,,,,,,,,,,,,,,,,,,,,,,,,,,,,,,,,,,,,,,,,,rodrigo_l,001,b,2019_Oct_10_1316,Experimento,3.2.3,60.02700519176141,
8,14,14,999,0.5,0:10,3,Cyan,None,0,0,1,15:50,./completed_changuitos/montage_htmhs_213.29_189.6.jpg,left,0,0,0,0,,,,,0,0,0,0,,,,,,,,,0,0,0,0,0,18,18,18,,,,,,,,,,,,,,,,,101.48240381480429,None,None,1,101.48240381480429,None,,,,,,,,,,,,,,,,,,,,,,,,,,,,,,,,,,,,,,,,,,,,,,,,,,,,,,,,,,,,,rodrigo_l,001,b,2019_Oct_10_1316,Experimento,3.2.3,60.02700519176141,
8,14,14,999,0.5,0:10,3,Blue,['space'],0,0,1,15:50,./completed_changuitos/montage_htmhs_213.29_189.6.jpg,left,0,0,0,0,,,,,0,0,0,0,,,,,,,,,0,0,0,0,0,19,19,19,,,,,,,,,,,,,,,,,101.48240381480429,None,None,0,101.48240381480429,None,,,,,,,,,,,,,,,,,,,,,,,,,,,,,,,,,,,,,,,,,,,,,,,,,,,,,,,,,,,,,rodrigo_l,001,b,2019_Oct_10_1316,Experimento,3.2.3,60.02700519176141,
8,14,14,999,0.5,0:10,3,Yellow,None,0,0,1,15:50,./completed_changuitos/montage_htmhs_213.29_189.6.jpg,left,0,0,0,0,,,,,0,0,0,0,,,,,,,,,0,0,0,0,0,20,20,20,,,,,,,,,,,,,,,,,101.48240381480429,None,None,1,101.48240381480429,None,,,,,,,,,,,,,,,,,,,,,,,,,,,,,,,,,,,,,,,,,,,,,,,,,,,,,,,,,,,,,rodrigo_l,001,b,2019_Oct_10_1316,Experimento,3.2.3,60.02700519176141,
8,14,14,999,0.5,0:10,3,Cyan,None,0,0,1,15:50,./completed_changuitos/montage_htmhs_213.29_189.6.jpg,left,0,0,0,0,,,,,0,0,0,0,,,,,,,,,0,0,0,0,0,21,21,21,,,,,,,,,,,,,,,,,101.49906962220412,None,None,1,101.49906962220412,None,,,,,,,,,,,,,,,,,,,,,,,,,,,,,,,,,,,,,,,,,,,,,,,,,,,,,,,,,,,,,rodrigo_l,001,b,2019_Oct_10_1316,Experimento,3.2.3,60.02700519176141,
8,14,14,999,0.5,0:10,3,Yellow,['space'],0,0,1,15:50,./completed_changuitos/montage_htmhs_213.29_189.6.jpg,left,0,0,0,0,,,,,0,0,0,0,,,,,,,,,0,0,0,0,0,22,22,22,,,,,,,,,,,,,,,,,101.49906962220412,None,None,0,101.49906962220412,None,,,,,,,,,,,,,,,,,,,,,,,,,,,,,,,,,,,,,,,,,,,,,,,,,,,,,,,,,,,,,rodrigo_l,001,b,2019_Oct_10_1316,Experimento,3.2.3,60.02700519176141,
8,14,14,999,0.5,0:10,3,Magenta,None,0,0,1,15:50,./completed_changuitos/montage_htmhs_213.29_189.6.jpg,left,0,0,0,0,,,,,0,0,0,0,,,,,,,,,0,0,0,0,0,23,23,23,,,,,,,,,,,,,,,,,101.49906962220412,None,None,1,101.49906962220412,None,,,,,,,,,,,,,,,,,,,,,,,,,,,,,,,,,,,,,,,,,,,,,,,,,,,,,,,,,,,,,rodrigo_l,001,b,2019_Oct_10_1316,Experimento,3.2.3,60.02700519176141,
8,14,14,999,0.5,0:10,3,Red,None,0,0,1,15:50,./completed_changuitos/montage_htmhs_213.29_189.6.jpg,left,0,0,0,0,,,,,0,0,0,0,,,,,,,,,0,0,0,0,0,24,24,24,,,,,,,,,,,,,,,,,101.49906962220412,None,None,1,101.49906962220412,None,,,,,,,,,,,,,,,,,,,,,,,,,,,,,,,,,,,,,,,,,,,,,,,,,,,,,,,,,,,,,rodrigo_l,001,b,2019_Oct_10_1316,Experimento,3.2.3,60.02700519176141,
8,14,14,999,0.5,0:10,3,Magenta,['space'],0,0,1,15:50,./completed_changuitos/montage_htmhs_213.29_189.6.jpg,left,0,0,0,0,,,,,0,0,0,0,,,,,,,,,0,0,0,0,0,25,25,25,,,,,,,,,,,,,,,,,101.49906962220412,None,None,0,101.49906962220412,None,,,,,,,,,,,,,,,,,,,,,,,,,,,,,,,,,,,,,,,,,,,,,,,,,,,,,,,,,,,,,rodrigo_l,001,b,2019_Oct_10_1316,Experimento,3.2.3,60.02700519176141,
8,14,14,999,0.5,0:10,3,Red,['space'],0,0,1,15:50,./completed_changuitos/montage_htmhs_213.29_189.6.jpg,left,0,0,0,0,,,,,0,0,0,0,,,,,,,,,0,0,0,0,0,26,26,26,,,,,,,,,,,,,,,,,101.49906962220412,None,None,0,101.49906962220412,None,,,,,,,,,,,,,,,,,,,,,,,,,,,,,,,,,,,,,,,,,,,,,,,,,,,,,,,,,,,,,rodrigo_l,001,b,2019_Oct_10_1316,Experimento,3.2.3,60.02700519176141,
8,14,14,999,0.5,0:10,3,Yellow,None,0,0,1,15:50,./completed_changuitos/montage_htmhs_213.29_189.6.jpg,left,0,0,0,0,,,,,0,0,0,0,,,,,,,,,0,0,0,0,0,27,27,27,,,,,,,,,,,,,,,,,101.49906962220412,None,None,1,101.49906962220412,None,,,,,,,,,,,,,,,,,,,,,,,,,,,,,,,,,,,,,,,,,,,,,,,,,,,,,,,,,,,,,rodrigo_l,001,b,2019_Oct_10_1316,Experimento,3.2.3,60.02700519176141,
8,14,14,999,0.5,0:10,3,Cyan,None,0,0,1,15:50,./completed_changuitos/montage_htmhs_213.29_189.6.jpg,left,0,0,0,0,,,,,0,0,0,0,,,,,,,,,0,0,0,0,0,28,28,28,,,,,,,,,,,,,,,,,101.49906962220412,None,None,1,101.49906962220412,None,,,,,,,,,,,,,,,,,,,,,,,,,,,,,,,,,,,,,,,,,,,,,,,,,,,,,,,,,,,,,rodrigo_l,001,b,2019_Oct_10_1316,Experimento,3.2.3,60.02700519176141,
8,14,14,999,0.5,0:10,3,Green,None,0,0,1,15:50,./completed_changuitos/montage_htmhs_213.29_189.6.jpg,left,0,0,0,0,,,,,0,0,0,0,,,,,,,,,0,0,0,0,0,29,29,29,,,,,,,,,,,,,,,,,101.49906962220412,None,None,1,101.49906962220412,None,,,,,,,,,,,,,,,,,,,,,,,,,,,,,,,,,,,,,,,,,,,,,,,,,,,,,,,,,,,,,rodrigo_l,001,b,2019_Oct_10_1316,Experimento,3.2.3,60.02700519176141,
8,14,14,999,0.5,0:10,3,White,None,0,0,1,15:50,./completed_changuitos/montage_htmhs_213.29_189.6.jpg,left,0,0,0,0,,,,,0,0,0,0,,,,,,,,,0,0,0,0,0,30,30,30,,,,,,,,,,,,,,,,,101.49906962220412,None,None,1,101.49906962220412,None,,,,,,,,,,,,,,,,,,,,,,,,,,,,,,,,,,,,,,,,,,,,,,,,,,,,,,,,,,,,,rodrigo_l,001,b,2019_Oct_10_1316,Experimento,3.2.3,60.02700519176141,
8,14,14,999,0.5,0:10,3,Green,['space'],0,0,1,15:50,./completed_changuitos/montage_htmhs_213.29_189.6.jpg,left,0,0,0,0,,,,,0,0,0,0,,,,,,,,,0,0,0,0,0,31,31,31,,,,,,,,,,,,,,,,,101.49906962220412,None,None,0,101.49906962220412,None,,,,,,,,,,,,,,,,,,,,,,,,,,,,,,,,,,,,,,,,,,,,,,,,,,,,,,,,,,,,,rodrigo_l,001,b,2019_Oct_10_1316,Experimento,3.2.3,60.02700519176141,
8,14,14,999,0.5,0:10,3,Red,None,0,0,1,15:50,./completed_changuitos/montage_htmhs_213.29_189.6.jpg,left,0,0,0,0,,,,,0,0,0,0,,,,,,,,,0,0,0,0,0,32,32,32,,,,,,,,,,,,,,,,,101.49906962220412,None,None,1,101.49906962220412,None,,,,,,,,,,,,,,,,,,,,,,,,,,,,,,,,,,,,,,,,,,,,,,,,,,,,,,,,,,,,,rodrigo_l,001,b,2019_Oct_10_1316,Experimento,3.2.3,60.02700519176141,
8,14,14,999,0.5,0:10,3,Blue,None,0,0,1,15:50,./completed_changuitos/montage_htmhs_213.29_189.6.jpg,left,0,0,0,0,,,,,0,0,0,0,,,,,,,,,0,0,0,0,0,33,33,33,,,,,,,,,,,,,,,,,101.49906962220412,None,None,1,101.49906962220412,None,,,,,,,,,,,,,,,,,,,,,,,,,,,,,,,,,,,,,,,,,,,,,,,,,,,,,,,,,,,,,rodrigo_l,001,b,2019_Oct_10_1316,Experimento,3.2.3,60.02700519176141,
8,14,14,999,0.5,0:10,3,Green,None,0,0,1,15:50,./completed_changuitos/montage_htmhs_213.29_189.6.jpg,left,0,0,0,0,,,,,0,0,0,0,,,,,,,,,0,0,0,0,0,34,34,34,,,,,,,,,,,,,,,,,101.49906962220412,None,None,1,101.49906962220412,None,,,,,,,,,,,,,,,,,,,,,,,,,,,,,,,,,,,,,,,,,,,,,,,,,,,,,,,,,,,,,rodrigo_l,001,b,2019_Oct_10_1316,Experimento,3.2.3,60.02700519176141,
8,14,14,999,0.5,0:10,3,,,0,0,1,15:50,./completed_changuitos/montage_htmhs_213.29_189.6.jpg,left,0,0,0,0,,,,,0,0,0,0,,,,,,,,,0,0,0,0,,,,,,,,,,,,,,,,,,,,,,,,,,,,101.54559305499424,None,left,1,1.8030081220058491,101.54559305499424,None,101.54559305499424,None,,,,,,,,,,,,,,,,,,,,,,,,,,,,,,,,,,,,,,,,,,,,,,,,,,,rodrigo_l,001,b,2019_Oct_10_1316,Experimento,3.2.3,60.02700519176141,
8,14,14,999,0.5,0:10,3,,,0,0,1,15:50,,,0,0,0,0,,,,,0,0,0,0,,,,,,,,,,,,,,,,,,,,,,,,,,,,,,,,,,,,,,,,,,,,,,,,,,,,,,,,,,,,,,,,,,,,,,,,,,,,,,,,,,,,,,,,,,,,,,,,,,,rodrigo_l,001,b,2019_Oct_10_1316,Experimento,3.2.3,60.02700519176141,
8,14,14,999,0.5,0:10,3,,,0,1,0,19:50,./completed_changuitos/montage_grfzp_57.69_66.25.jpg,right,0,0,0,0,,,,,0,1,1,1,,,,,0,0,0,0,,,,,,,,,,,,,,,,,,,,,,,,,,,,,,,,,,,,,,,,,103.50740900199162,109.4128276190022,109.4128276190022,117.42712312799995,117.42712312799995,131.43901436899614,left,0,2.166101908995188,131.43901436899614,None,131.43901436899614,None,131.43901436899614,None,,,,,,,,,,,,,,,,,,,,,,,,,,,,,,,,,,,,rodrigo_l,001,b,2019_Oct_10_1316,Experimento,3.2.3,60.02700519176141,
8,14,14,999,0.5,0:10,3,,,0,1,0,19:50,,,0,0,0,0,,,,,0,1,1,1,,,,,,,,,,,,,,,,,,,,,,,,,,,,,,,,,,,,,,,,,,,,,,,,,,,,,,,,,,,,,,,,,,,,,,,,,,,,,,,,,,,,,,,,,,,,,,,,,,,rodrigo_l,001,b,2019_Oct_10_1316,Experimento,3.2.3,60.02700519176141,
8,14,14,999,0.5,0:10,3,Magenta,None,0,0,1,20:50,./completed_changuitos/montage_iqlqi_109.9_130.85.jpg,right,0,0,0,0,,,,,0,2,2,2,,,,,,,,,0,0,0,0,0,0,0,0,,,,,,,,,,,,,133.7342399749905,135.73731750900333,135.73731750900333,None,143.75554466899484,144.26878879399737,None,1,143.75554466899484,None,,,,,,,,,,,,,,,,,,,,,,,,,,,,,,,,,,,,,,,,,,,,,,,,,,,,,,,,,,,,,rodrigo_l,001,b,2019_Oct_10_1316,Experimento,3.2.3,60.02700519176141,
8,14,14,999,0.5,0:10,3,Blue,['space'],0,0,1,20:50,./completed_changuitos/montage_iqlqi_109.9_130.85.jpg,right,0,0,0,0,,,,,0,2,2,2,,,,,,,,,0,0,0,0,0,1,1,1,,,,,,,,,,,,,,,,,145.7670855729957,146.26726917199267,None,0,145.7670855729957,145.7670855729957,,,,,,,,,,,,,,,,,,,,,,,,,,,,,,,,,,,,,,,,,,,,,,,,,,,,,,,,,,,,,rodrigo_l,001,b,2019_Oct_10_1316,Experimento,3.2.3,60.02700519176141,
8,14,14,999,0.5,0:10,3,Cyan,None,0,0,1,20:50,./completed_changuitos/montage_iqlqi_109.9_130.85.jpg,right,0,0,0,0,,,,,0,2,2,2,,,,,,,,,0,0,0,0,0,2,2,2,,,,,,,,,,,,,,,,,147.76636966699152,148.26615864099585,None,1,147.76636966699152,147.76636966699152,,,,,,,,,,,,,,,,,,,,,,,,,,,,,,,,,,,,,,,,,,,,,,,,,,,,,,,,,,,,,rodrigo_l,001,b,2019_Oct_10_1316,Experimento,3.2.3,60.02700519176141,
8,14,14,999,0.5,0:10,3,Yellow,None,0,0,1,20:50,./completed_changuitos/montage_iqlqi_109.9_130.85.jpg,right,0,0,0,0,,,,,0,2,2,2,,,,,,,,,0,0,0,0,0,3,3,3,,,,,,,,,,,,,,,,,149.76598891099275,150.26582744899497,None,1,149.76598891099275,149.76598891099275,,,,,,,,,,,,,,,,,,,,,,,,,,,,,,,,,,,,,,,,,,,,,,,,,,,,,,,,,,,,,rodrigo_l,001,b,2019_Oct_10_1316,Experimento,3.2.3,60.02700519176141,
8,14,14,999,0.5,0:10,3,Cyan,None,0,0,1,20:50,./completed_changuitos/montage_iqlqi_109.9_130.85.jpg,right,0,0,0,0,,,,,0,2,2,2,,,,,,,,,0,0,0,0,0,4,4,4,,,,,,,,,,,,,,,,,151.76534941799764,152.26518869100255,['return'],0,151.76534941799764,151.76534941799764,[0.5338705519970972],,,,,,,,,,,,,,,,,,,,,,,,,,,,,,,,,,,,,,,,,,,,,,,,,,,,,,,,,,,,rodrigo_l,001,b,2019_Oct_10_1316,Experimento,3.2.3,60.02700519176141,
8,14,14,999,0.5,0:10,3,Blue,None,0,0,1,20:50,./completed_changuitos/montage_iqlqi_109.9_130.85.jpg,right,0,0,0,0,,,,,0,2,2,2,,,,,,,,,0,0,0,0,0,5,5,5,,,,,,,,,,,,,,,,,153.78105104199494,154.28117506099807,None,1,153.78105104199494,153.78105104199494,,,,,,,,,,,,,,,,,,,,,,,,,,,,,,,,,,,,,,,,,,,,,,,,,,,,,,,,,,,,,rodrigo_l,001,b,2019_Oct_10_1316,Experimento,3.2.3,60.02700519176141,
8,14,14,999,0.5,0:10,3,Cyan,['space'],0,0,1,20:50,./completed_changuitos/montage_iqlqi_109.9_130.85.jpg,right,0,0,0,0,,,,,0,2,2,2,,,,,,,,,0,0,0,0,0,6,6,6,,,,,,,,,,,,,,,,,155.78045452499646,156.28049681599077,['return'],0,155.78045452499646,155.78045452499646,[0.7332143750099931],,,,,,,,,,,,,,,,,,,,,,,,,,,,,,,,,,,,,,,,,,,,,,,,,,,,,,,,,,,,rodrigo_l,001,b,2019_Oct_10_1316,Experimento,3.2.3,60.02700519176141,
8,14,14,999,0.5,0:10,3,Magenta,None,0,0,1,20:50,./completed_changuitos/montage_iqlqi_109.9_130.85.jpg,right,0,0,0,0,,,,,0,2,2,2,,,,,,,,,0,0,0,0,0,7,7,7,,,,,,,,,,,,,,,,,157.76337480440125,None,None,1,157.76337480440125,None,,,,,,,,,,,,,,,,,,,,,,,,,,,,,,,,,,,,,,,,,,,,,,,,,,,,,,,,,,,,,rodrigo_l,001,b,2019_Oct_10_1316,Experimento,3.2.3,60.02700519176141,
8,14,14,999,0.5,0:10,3,Red,None,0,0,1,20:50,./completed_changuitos/montage_iqlqi_109.9_130.85.jpg,right,0,0,0,0,,,,,0,2,2,2,,,,,,,,,0,0,0,0,0,8,8,8,,,,,,,,,,,,,,,,,157.76337480440125,None,None,1,157.76337480440125,None,,,,,,,,,,,,,,,,,,,,,,,,,,,,,,,,,,,,,,,,,,,,,,,,,,,,,,,,,,,,,rodrigo_l,001,b,2019_Oct_10_1316,Experimento,3.2.3,60.02700519176141,
8,14,14,999,0.5,0:10,3,Magenta,['space'],0,0,1,20:50,./completed_changuitos/montage_iqlqi_109.9_130.85.jpg,right,0,0,0,0,,,,,0,2,2,2,,,,,,,,,0,0,0,0,0,9,9,9,,,,,,,,,,,,,,,,,157.76337480440125,None,None,0,157.76337480440125,None,,,,,,,,,,,,,,,,,,,,,,,,,,,,,,,,,,,,,,,,,,,,,,,,,,,,,,,,,,,,,rodrigo_l,001,b,2019_Oct_10_1316,Experimento,3.2.3,60.02700519176141,
8,14,14,999,0.5,0:10,3,Green,None,0,0,1,20:50,./completed_changuitos/montage_iqlqi_109.9_130.85.jpg,right,0,0,0,0,,,,,0,2,2,2,,,,,,,,,0,0,0,0,0,10,10,10,,,,,,,,,,,,,,,,,157.76337480440125,None,None,1,157.76337480440125,None,,,,,,,,,,,,,,,,,,,,,,,,,,,,,,,,,,,,,,,,,,,,,,,,,,,,,,,,,,,,,rodrigo_l,001,b,2019_Oct_10_1316,Experimento,3.2.3,60.02700519176141,
8,14,14,999,0.5,0:10,3,Yellow,['space'],0,0,1,20:50,./completed_changuitos/montage_iqlqi_109.9_130.85.jpg,right,0,0,0,0,,,,,0,2,2,2,,,,,,,,,0,0,0,0,0,11,11,11,,,,,,,,,,,,,,,,,157.7800406118011,None,None,0,157.7800406118011,None,,,,,,,,,,,,,,,,,,,,,,,,,,,,,,,,,,,,,,,,,,,,,,,,,,,,,,,,,,,,,rodrigo_l,001,b,2019_Oct_10_1316,Experimento,3.2.3,60.02700519176141,
8,14,14,999,0.5,0:10,3,Blue,None,0,0,1,20:50,./completed_changuitos/montage_iqlqi_109.9_130.85.jpg,right,0,0,0,0,,,,,0,2,2,2,,,,,,,,,0,0,0,0,0,12,12,12,,,,,,,,,,,,,,,,,157.7800406118011,None,None,1,157.7800406118011,None,,,,,,,,,,,,,,,,,,,,,,,,,,,,,,,,,,,,,,,,,,,,,,,,,,,,,,,,,,,,,rodrigo_l,001,b,2019_Oct_10_1316,Experimento,3.2.3,60.02700519176141,
8,14,14,999,0.5,0:10,3,Cyan,None,0,0,1,20:50,./completed_changuitos/montage_iqlqi_109.9_130.85.jpg,right,0,0,0,0,,,,,0,2,2,2,,,,,,,,,0,0,0,0,0,13,13,13,,,,,,,,,,,,,,,,,157.7800406118011,None,None,1,157.7800406118011,None,,,,,,,,,,,,,,,,,,,,,,,,,,,,,,,,,,,,,,,,,,,,,,,,,,,,,,,,,,,,,rodrigo_l,001,b,2019_Oct_10_1316,Experimento,3.2.3,60.02700519176141,
8,14,14,999,0.5,0:10,3,Blue,['space'],0,0,1,20:50,./completed_changuitos/montage_iqlqi_109.9_130.85.jpg,right,0,0,0,0,,,,,0,2,2,2,,,,,,,,,0,0,0,0,0,14,14,14,,,,,,,,,,,,,,,,,157.7800406118011,None,None,0,157.7800406118011,None,,,,,,,,,,,,,,,,,,,,,,,,,,,,,,,,,,,,,,,,,,,,,,,,,,,,,,,,,,,,,rodrigo_l,001,b,2019_Oct_10_1316,Experimento,3.2.3,60.02700519176141,
8,14,14,999,0.5,0:10,3,Yellow,None,0,0,1,20:50,./completed_changuitos/montage_iqlqi_109.9_130.85.jpg,right,0,0,0,0,,,,,0,2,2,2,,,,,,,,,0,0,0,0,0,15,15,15,,,,,,,,,,,,,,,,,157.7800406118011,None,None,1,157.7800406118011,None,,,,,,,,,,,,,,,,,,,,,,,,,,,,,,,,,,,,,,,,,,,,,,,,,,,,,,,,,,,,,rodrigo_l,001,b,2019_Oct_10_1316,Experimento,3.2.3,60.02700519176141,
8,14,14,999,0.5,0:10,3,Cyan,None,0,0,1,20:50,./completed_changuitos/montage_iqlqi_109.9_130.85.jpg,right,0,0,0,0,,,,,0,2,2,2,,,,,,,,,0,0,0,0,0,16,16,16,,,,,,,,,,,,,,,,,157.79670641920094,None,None,1,157.79670641920094,None,,,,,,,,,,,,,,,,,,,,,,,,,,,,,,,,,,,,,,,,,,,,,,,,,,,,,,,,,,,,,rodrigo_l,001,b,2019_Oct_10_1316,Experimento,3.2.3,60.02700519176141,
8,14,14,999,0.5,0:10,3,Yellow,['space'],0,0,1,20:50,./completed_changuitos/montage_iqlqi_109.9_130.85.jpg,right,0,0,0,0,,,,,0,2,2,2,,,,,,,,,0,0,0,0,0,17,17,17,,,,,,,,,,,,,,,,,157.79670641920094,None,None,0,157.79670641920094,None,,,,,,,,,,,,,,,,,,,,,,,,,,,,,,,,,,,,,,,,,,,,,,,,,,,,,,,,,,,,,rodrigo_l,001,b,2019_Oct_10_1316,Experimento,3.2.3,60.02700519176141,
8,14,14,999,0.5,0:10,3,Magenta,None,0,0,1,20:50,./completed_changuitos/montage_iqlqi_109.9_130.85.jpg,right,0,0,0,0,,,,,0,2,2,2,,,,,,,,,0,0,0,0,0,18,18,18,,,,,,,,,,,,,,,,,157.79670641920094,None,None,1,157.79670641920094,None,,,,,,,,,,,,,,,,,,,,,,,,,,,,,,,,,,,,,,,,,,,,,,,,,,,,,,,,,,,,,rodrigo_l,001,b,2019_Oct_10_1316,Experimento,3.2.3,60.02700519176141,
8,14,14,999,0.5,0:10,3,Red,None,0,0,1,20:50,./completed_changuitos/montage_iqlqi_109.9_130.85.jpg,right,0,0,0,0,,,,,0,2,2,2,,,,,,,,,0,0,0,0,0,19,19,19,,,,,,,,,,,,,,,,,157.79670641920094,None,None,1,157.79670641920094,None,,,,,,,,,,,,,,,,,,,,,,,,,,,,,,,,,,,,,,,,,,,,,,,,,,,,,,,,,,,,,rodrigo_l,001,b,2019_Oct_10_1316,Experimento,3.2.3,60.02700519176141,
8,14,14,999,0.5,0:10,3,Magenta,['space'],0,0,1,20:50,./completed_changuitos/montage_iqlqi_109.9_130.85.jpg,right,0,0,0,0,,,,,0,2,2,2,,,,,,,,,0,0,0,0,0,20,20,20,,,,,,,,,,,,,,,,,157.79670641920094,None,None,0,157.79670641920094,None,,,,,,,,,,,,,,,,,,,,,,,,,,,,,,,,,,,,,,,,,,,,,,,,,,,,,,,,,,,,,rodrigo_l,001,b,2019_Oct_10_1316,Experimento,3.2.3,60.02700519176141,
8,14,14,999,0.5,0:10,3,Red,['space'],0,0,1,20:50,./completed_changuitos/montage_iqlqi_109.9_130.85.jpg,right,0,0,0,0,,,,,0,2,2,2,,,,,,,,,0,0,0,0,0,21,21,21,,,,,,,,,,,,,,,,,157.79670641920094,None,None,0,157.79670641920094,None,,,,,,,,,,,,,,,,,,,,,,,,,,,,,,,,,,,,,,,,,,,,,,,,,,,,,,,,,,,,,rodrigo_l,001,b,2019_Oct_10_1316,Experimento,3.2.3,60.02700519176141,
8,14,14,999,0.5,0:10,3,Yellow,None,0,0,1,20:50,./completed_changuitos/montage_iqlqi_109.9_130.85.jpg,right,0,0,0,0,,,,,0,2,2,2,,,,,,,,,0,0,0,0,0,22,22,22,,,,,,,,,,,,,,,,,157.79670641920094,None,None,1,157.79670641920094,None,,,,,,,,,,,,,,,,,,,,,,,,,,,,,,,,,,,,,,,,,,,,,,,,,,,,,,,,,,,,,rodrigo_l,001,b,2019_Oct_10_1316,Experimento,3.2.3,60.02700519176141,
8,14,14,999,0.5,0:10,3,Cyan,None,0,0,1,20:50,./completed_changuitos/montage_iqlqi_109.9_130.85.jpg,right,0,0,0,0,,,,,0,2,2,2,,,,,,,,,0,0,0,0,0,23,23,23,,,,,,,,,,,,,,,,,157.79670641920094,None,None,1,157.79670641920094,None,,,,,,,,,,,,,,,,,,,,,,,,,,,,,,,,,,,,,,,,,,,,,,,,,,,,,,,,,,,,,rodrigo_l,001,b,2019_Oct_10_1316,Experimento,3.2.3,60.02700519176141,
8,14,14,999,0.5,0:10,3,Green,None,0,0,1,20:50,./completed_changuitos/montage_iqlqi_109.9_130.85.jpg,right,0,0,0,0,,,,,0,2,2,2,,,,,,,,,0,0,0,0,0,24,24,24,,,,,,,,,,,,,,,,,157.79670641920094,None,None,1,157.79670641920094,None,,,,,,,,,,,,,,,,,,,,,,,,,,,,,,,,,,,,,,,,,,,,,,,,,,,,,,,,,,,,,rodrigo_l,001,b,2019_Oct_10_1316,Experimento,3.2.3,60.02700519176141,
8,14,14,999,0.5,0:10,3,White,None,0,0,1,20:50,./completed_changuitos/montage_iqlqi_109.9_130.85.jpg,right,0,0,0,0,,,,,0,2,2,2,,,,,,,,,0,0,0,0,0,25,25,25,,,,,,,,,,,,,,,,,157.79670641920094,None,None,1,157.79670641920094,None,,,,,,,,,,,,,,,,,,,,,,,,,,,,,,,,,,,,,,,,,,,,,,,,,,,,,,,,,,,,,rodrigo_l,001,b,2019_Oct_10_1316,Experimento,3.2.3,60.02700519176141,
8,14,14,999,0.5,0:10,3,Green,['space'],0,0,1,20:50,./completed_changuitos/montage_iqlqi_109.9_130.85.jpg,right,0,0,0,0,,,,,0,2,2,2,,,,,,,,,0,0,0,0,0,26,26,26,,,,,,,,,,,,,,,,,157.79670641920094,None,None,0,157.79670641920094,None,,,,,,,,,,,,,,,,,,,,,,,,,,,,,,,,,,,,,,,,,,,,,,,,,,,,,,,,,,,,,rodrigo_l,001,b,2019_Oct_10_1316,Experimento,3.2.3,60.02700519176141,
8,14,14,999,0.5,0:10,3,Red,None,0,0,1,20:50,./completed_changuitos/montage_iqlqi_109.9_130.85.jpg,right,0,0,0,0,,,,,0,2,2,2,,,,,,,,,0,0,0,0,0,27,27,27,,,,,,,,,,,,,,,,,157.81337222660076,None,None,1,157.81337222660076,None,,,,,,,,,,,,,,,,,,,,,,,,,,,,,,,,,,,,,,,,,,,,,,,,,,,,,,,,,,,,,rodrigo_l,001,b,2019_Oct_10_1316,Experimento,3.2.3,60.02700519176141,
8,14,14,999,0.5,0:10,3,Blue,None,0,0,1,20:50,./completed_changuitos/montage_iqlqi_109.9_130.85.jpg,right,0,0,0,0,,,,,0,2,2,2,,,,,,,,,0,0,0,0,0,28,28,28,,,,,,,,,,,,,,,,,157.81337222660076,None,None,1,157.81337222660076,None,,,,,,,,,,,,,,,,,,,,,,,,,,,,,,,,,,,,,,,,,,,,,,,,,,,,,,,,,,,,,rodrigo_l,001,b,2019_Oct_10_1316,Experimento,3.2.3,60.02700519176141,
8,14,14,999,0.5,0:10,3,Green,None,0,0,1,20:50,./completed_changuitos/montage_iqlqi_109.9_130.85.jpg,right,0,0,0,0,,,,,0,2,2,2,,,,,,,,,0,0,0,0,0,29,29,29,,,,,,,,,,,,,,,,,157.81337222660076,None,None,1,157.81337222660076,None,,,,,,,,,,,,,,,,,,,,,,,,,,,,,,,,,,,,,,,,,,,,,,,,,,,,,,,,,,,,,rodrigo_l,001,b,2019_Oct_10_1316,Experimento,3.2.3,60.02700519176141,
8,14,14,999,0.5,0:10,3,,,0,0,1,20:50,./completed_changuitos/montage_iqlqi_109.9_130.85.jpg,right,0,0,0,0,,,,,0,2,2,2,,,,,,,,,0,0,0,0,,,,,,,,,,,,,,,,,,,,,,,,,,,,157.84242853400065,None,right,1,1.38713190999988,157.84242853400065,None,157.84242853400065,None,,,,,,,,,,,,,,,,,,,,,,,,,,,,,,,,,,,,,,,,,,,,,,,,,,,rodrigo_l,001,b,2019_Oct_10_1316,Experimento,3.2.3,60.02700519176141,
8,14,14,999,0.5,0:10,3,,,0,0,1,20:50,,,0,0,0,0,,,,,0,2,2,2,,,,,,,,,,,,,,,,,,,,,,,,,,,,,,,,,,,,,,,,,,,,,,,,,,,,,,,,,,,,,,,,,,,,,,,,,,,,,,,,,,,,,,,,,,,,,,,,,,,rodrigo_l,001,b,2019_Oct_10_1316,Experimento,3.2.3,60.02700519176141,
8,14,14,999,0.5,0:10,3,,,0,1,0,25:50,./completed_changuitos/montage_uuoah_162.35_190.19.jpg,right,0,0,0,0,,,,,0,3,3,3,,,,,0,0,0,0,,,,,,,,,,,,,,,,,,,,,,,,,,,,,,,,,,,,,,,,,159.37161493400345,160.64528471999802,160.64528471999802,168.65923268400365,168.65923268400365,182.6714791330014,right,1,0.9168574810028076,182.6714791330014,None,182.6714791330014,None,182.6714791330014,None,,,,,,,,,,,,,,,,,,,,,,,,,,,,,,,,,,,,rodrigo_l,001,b,2019_Oct_10_1316,Experimento,3.2.3,60.02700519176141,
8,14,14,999,0.5,0:10,3,,,0,1,0,25:50,,,0,0,0,0,,,,,0,3,3,3,,,,,,,,,,,,,,,,,,,,,,,,,,,,,,,,,,,,,,,,,,,,,,,,,,,,,,,,,,,,,,,,,,,,,,,,,,,,,,,,,,,,,,,,,,,,,,,,,,,rodrigo_l,001,b,2019_Oct_10_1316,Experimento,3.2.3,60.02700519176141,
8,14,14,999,0.5,0:10,3,Red,None,0,0,1,28:50,./completed_changuitos/montage_bditw_63.05_72.75.jpg,right,0,0,0,0,,,,,0,4,4,4,,,,,,,,,0,0,0,0,0,0,0,0,,,,,,,,,,,,,183.72919780400116,184.9540203959914,184.9540203959914,None,192.99850652400346,193.50109926100413,None,1,192.99850652400346,None,,,,,,,,,,,,,,,,,,,,,,,,,,,,,,,,,,,,,,,,,,,,,,,,,,,,,,,,,,,,,rodrigo_l,001,b,2019_Oct_10_1316,Experimento,3.2.3,60.02700519176141,
8,14,14,999,0.5,0:10,3,Magenta,['space'],0,0,1,28:50,./completed_changuitos/montage_bditw_63.05_72.75.jpg,right,0,0,0,0,,,,,0,4,4,4,,,,,,,,,0,0,0,0,0,1,1,1,,,,,,,,,,,,,,,,,195.0004676219978,195.50046004999604,None,0,195.0004676219978,195.0004676219978,,,,,,,,,,,,,,,,,,,,,,,,,,,,,,,,,,,,,,,,,,,,,,,,,,,,,,,,,,,,,rodrigo_l,001,b,2019_Oct_10_1316,Experimento,3.2.3,60.02700519176141,
8,14,14,999,0.5,0:10,3,Green,None,0,0,1,28:50,./completed_changuitos/montage_bditw_63.05_72.75.jpg,right,0,0,0,0,,,,,0,4,4,4,,,,,,,,,0,0,0,0,0,2,2,2,,,,,,,,,,,,,,,,,196.99954489899392,197.4997433899989,None,1,196.99954489899392,196.99954489899392,,,,,,,,,,,,,,,,,,,,,,,,,,,,,,,,,,,,,,,,,,,,,,,,,,,,,,,,,,,,,rodrigo_l,001,b,2019_Oct_10_1316,Experimento,3.2.3,60.02700519176141,
8,14,14,999,0.5,0:10,3,Yellow,['space'],0,0,1,28:50,./completed_changuitos/montage_bditw_63.05_72.75.jpg,right,0,0,0,0,,,,,0,4,4,4,,,,,,,,,0,0,0,0,0,3,3,3,,,,,,,,,,,,,,,,,198.9991932289995,199.4990535609977,None,0,198.9991932289995,198.9991932289995,,,,,,,,,,,,,,,,,,,,,,,,,,,,,,,,,,,,,,,,,,,,,,,,,,,,,,,,,,,,,rodrigo_l,001,b,2019_Oct_10_1316,Experimento,3.2.3,60.02700519176141,
8,14,14,999,0.5,0:10,3,Blue,None,0,0,1,28:50,./completed_changuitos/montage_bditw_63.05_72.75.jpg,right,0,0,0,0,,,,,0,4,4,4,,,,,,,,,0,0,0,0,0,4,4,4,,,,,,,,,,,,,,,,,200.99852417700458,201.49852208499215,None,1,200.99852417700458,200.99852417700458,,,,,,,,,,,,,,,,,,,,,,,,,,,,,,,,,,,,,,,,,,,,,,,,,,,,,,,,,,,,,rodrigo_l,001,b,2019_Oct_10_1316,Experimento,3.2.3,60.02700519176141,
8,14,14,999,0.5,0:10,3,Cyan,None,0,0,1,28:50,./completed_changuitos/montage_bditw_63.05_72.75.jpg,right,0,0,0,0,,,,,0,4,4,4,,,,,,,,,0,0,0,0,0,5,5,5,,,,,,,,,,,,,,,,,202.99742019700352,203.49771945799876,None,1,202.99742019700352,202.99742019700352,,,,,,,,,,,,,,,,,,,,,,,,,,,,,,,,,,,,,,,,,,,,,,,,,,,,,,,,,,,,,rodrigo_l,001,b,2019_Oct_10_1316,Experimento,3.2.3,60.02700519176141,
8,14,14,999,0.5,0:10,3,Blue,['space'],0,0,1,28:50,./completed_changuitos/montage_bditw_63.05_72.75.jpg,right,0,0,0,0,,,,,0,4,4,4,,,,,,,,,0,0,0,0,0,6,6,6,,,,,,,,,,,,,,,,,204.9971308910026,205.49702598300064,['return'],0,204.9971308910026,204.9971308910026,[0.700455874990439],,,,,,,,,,,,,,,,,,,,,,,,,,,,,,,,,,,,,,,,,,,,,,,,,,,,,,,,,,,,rodrigo_l,001,b,2019_Oct_10_1316,Experimento,3.2.3,60.02700519176141,
8,14,14,999,0.5,0:10,3,Yellow,None,0,0,1,28:50,./completed_changuitos/montage_bditw_63.05_72.75.jpg,right,0,0,0,0,,,,,0,4,4,4,,,,,,,,,0,0,0,0,0,7,7,7,,,,,,,,,,,,,,,,,206.97983842939576,None,None,1,206.97983842939576,None,,,,,,,,,,,,,,,,,,,,,,,,,,,,,,,,,,,,,,,,,,,,,,,,,,,,,,,,,,,,,rodrigo_l,001,b,2019_Oct_10_1316,Experimento,3.2.3,60.02700519176141,
8,14,14,999,0.5,0:10,3,Cyan,None,0,0,1,28:50,./completed_changuitos/montage_bditw_63.05_72.75.jpg,right,0,0,0,0,,,,,0,4,4,4,,,,,,,,,0,0,0,0,0,8,8,8,,,,,,,,,,,,,,,,,206.97983842939576,None,None,1,206.97983842939576,None,,,,,,,,,,,,,,,,,,,,,,,,,,,,,,,,,,,,,,,,,,,,,,,,,,,,,,,,,,,,,rodrigo_l,001,b,2019_Oct_10_1316,Experimento,3.2.3,60.02700519176141,
8,14,14,999,0.5,0:10,3,Yellow,['space'],0,0,1,28:50,./completed_changuitos/montage_bditw_63.05_72.75.jpg,right,0,0,0,0,,,,,0,4,4,4,,,,,,,,,0,0,0,0,0,9,9,9,,,,,,,,,,,,,,,,,206.97983842939576,None,None,0,206.97983842939576,None,,,,,,,,,,,,,,,,,,,,,,,,,,,,,,,,,,,,,,,,,,,,,,,,,,,,,,,,,,,,,rodrigo_l,001,b,2019_Oct_10_1316,Experimento,3.2.3,60.02700519176141,
8,14,14,999,0.5,0:10,3,Magenta,None,0,0,1,28:50,./completed_changuitos/montage_bditw_63.05_72.75.jpg,right,0,0,0,0,,,,,0,4,4,4,,,,,,,,,0,0,0,0,0,10,10,10,,,,,,,,,,,,,,,,,206.97983842939576,None,None,1,206.97983842939576,None,,,,,,,,,,,,,,,,,,,,,,,,,,,,,,,,,,,,,,,,,,,,,,,,,,,,,,,,,,,,,rodrigo_l,001,b,2019_Oct_10_1316,Experimento,3.2.3,60.02700519176141,
8,14,14,999,0.5,0:10,3,Red,None,0,0,1,28:50,./completed_changuitos/montage_bditw_63.05_72.75.jpg,right,0,0,0,0,,,,,0,4,4,4,,,,,,,,,0,0,0,0,0,11,11,11,,,,,,,,,,,,,,,,,206.9965042367956,None,None,1,206.9965042367956,None,,,,,,,,,,,,,,,,,,,,,,,,,,,,,,,,,,,,,,,,,,,,,,,,,,,,,,,,,,,,,rodrigo_l,001,b,2019_Oct_10_1316,Experimento,3.2.3,60.02700519176141,
8,14,14,999,0.5,0:10,3,Magenta,['space'],0,0,1,28:50,./completed_changuitos/montage_bditw_63.05_72.75.jpg,right,0,0,0,0,,,,,0,4,4,4,,,,,,,,,0,0,0,0,0,12,12,12,,,,,,,,,,,,,,,,,206.9965042367956,None,None,0,206.9965042367956,None,,,,,,,,,,,,,,,,,,,,,,,,,,,,,,,,,,,,,,,,,,,,,,,,,,,,,,,,,,,,,rodrigo_l,001,b,2019_Oct_10_1316,Experimento,3.2.3,60.02700519176141,
8,14,14,999,0.5,0:10,3,Red,['space'],0,0,1,28:50,./completed_changuitos/montage_bditw_63.05_72.75.jpg,right,0,0,0,0,,,,,0,4,4,4,,,,,,,,,0,0,0,0,0,13,13,13,,,,,,,,,,,,,,,,,206.9965042367956,None,None,0,206.9965042367956,None,,,,,,,,,,,,,,,,,,,,,,,,,,,,,,,,,,,,,,,,,,,,,,,,,,,,,,,,,,,,,rodrigo_l,001,b,2019_Oct_10_1316,Experimento,3.2.3,60.02700519176141,
8,14,14,999,0.5,0:10,3,Yellow,None,0,0,1,28:50,./completed_changuitos/montage_bditw_63.05_72.75.jpg,right,0,0,0,0,,,,,0,4,4,4,,,,,,,,,0,0,0,0,0,14,14,14,,,,,,,,,,,,,,,,,206.9965042367956,None,None,1,206.9965042367956,None,,,,,,,,,,,,,,,,,,,,,,,,,,,,,,,,,,,,,,,,,,,,,,,,,,,,,,,,,,,,,rodrigo_l,001,b,2019_Oct_10_1316,Experimento,3.2.3,60.02700519176141,
8,14,14,999,0.5,0:10,3,Cyan,None,0,0,1,28:50,./completed_changuitos/montage_bditw_63.05_72.75.jpg,right,0,0,0,0,,,,,0,4,4,4,,,,,,,,,0,0,0,0,0,15,15,15,,,,,,,,,,,,,,,,,206.9965042367956,None,None,1,206.9965042367956,None,,,,,,,,,,,,,,,,,,,,,,,,,,,,,,,,,,,,,,,,,,,,,,,,,,,,,,,,,,,,,rodrigo_l,001,b,2019_Oct_10_1316,Experimento,3.2.3,60.02700519176141,
8,14,14,999,0.5,0:10,3,Green,None,0,0,1,28:50,./completed_changuitos/montage_bditw_63.05_72.75.jpg,right,0,0,0,0,,,,,0,4,4,4,,,,,,,,,0,0,0,0,0,16,16,16,,,,,,,,,,,,,,,,,207.01317004419545,None,None,1,207.01317004419545,None,,,,,,,,,,,,,,,,,,,,,,,,,,,,,,,,,,,,,,,,,,,,,,,,,,,,,,,,,,,,,rodrigo_l,001,b,2019_Oct_10_1316,Experimento,3.2.3,60.02700519176141,
8,14,14,999,0.5,0:10,3,White,None,0,0,1,28:50,./completed_changuitos/montage_bditw_63.05_72.75.jpg,right,0,0,0,0,,,,,0,4,4,4,,,,,,,,,0,0,0,0,0,17,17,17,,,,,,,,,,,,,,,,,207.01317004419545,None,None,1,207.01317004419545,None,,,,,,,,,,,,,,,,,,,,,,,,,,,,,,,,,,,,,,,,,,,,,,,,,,,,,,,,,,,,,rodrigo_l,001,b,2019_Oct_10_1316,Experimento,3.2.3,60.02700519176141,
8,14,14,999,0.5,0:10,3,Green,['space'],0,0,1,28:50,./completed_changuitos/montage_bditw_63.05_72.75.jpg,right,0,0,0,0,,,,,0,4,4,4,,,,,,,,,0,0,0,0,0,18,18,18,,,,,,,,,,,,,,,,,207.01317004419545,None,None,0,207.01317004419545,None,,,,,,,,,,,,,,,,,,,,,,,,,,,,,,,,,,,,,,,,,,,,,,,,,,,,,,,,,,,,,rodrigo_l,001,b,2019_Oct_10_1316,Experimento,3.2.3,60.02700519176141,
8,14,14,999,0.5,0:10,3,Red,None,0,0,1,28:50,./completed_changuitos/montage_bditw_63.05_72.75.jpg,right,0,0,0,0,,,,,0,4,4,4,,,,,,,,,0,0,0,0,0,19,19,19,,,,,,,,,,,,,,,,,207.01317004419545,None,None,1,207.01317004419545,None,,,,,,,,,,,,,,,,,,,,,,,,,,,,,,,,,,,,,,,,,,,,,,,,,,,,,,,,,,,,,rodrigo_l,001,b,2019_Oct_10_1316,Experimento,3.2.3,60.02700519176141,
8,14,14,999,0.5,0:10,3,Blue,None,0,0,1,28:50,./completed_changuitos/montage_bditw_63.05_72.75.jpg,right,0,0,0,0,,,,,0,4,4,4,,,,,,,,,0,0,0,0,0,20,20,20,,,,,,,,,,,,,,,,,207.01317004419545,None,None,1,207.01317004419545,None,,,,,,,,,,,,,,,,,,,,,,,,,,,,,,,,,,,,,,,,,,,,,,,,,,,,,,,,,,,,,rodrigo_l,001,b,2019_Oct_10_1316,Experimento,3.2.3,60.02700519176141,
8,14,14,999,0.5,0:10,3,Green,None,0,0,1,28:50,./completed_changuitos/montage_bditw_63.05_72.75.jpg,right,0,0,0,0,,,,,0,4,4,4,,,,,,,,,0,0,0,0,0,21,21,21,,,,,,,,,,,,,,,,,207.01317004419545,None,None,1,207.01317004419545,None,,,,,,,,,,,,,,,,,,,,,,,,,,,,,,,,,,,,,,,,,,,,,,,,,,,,,,,,,,,,,rodrigo_l,001,b,2019_Oct_10_1316,Experimento,3.2.3,60.02700519176141,
8,14,14,999,0.5,0:10,3,,,0,0,1,28:50,./completed_changuitos/montage_bditw_63.05_72.75.jpg,right,0,0,0,0,,,,,0,4,4,4,,,,,,,,,0,0,0,0,,,,,,,,,,,,,,,,,,,,,,,,,,,,207.0485705309984,None,right,1,1.7475930219952716,207.0485705309984,None,207.0485705309984,None,,,,,,,,,,,,,,,,,,,,,,,,,,,,,,,,,,,,,,,,,,,,,,,,,,,rodrigo_l,001,b,2019_Oct_10_1316,Experimento,3.2.3,60.02700519176141,
8,14,14,999,0.5,0:10,3,,,0,0,1,28:50,,,0,0,0,0,,,,,0,4,4,4,,,,,,,,,,,,,,,,,,,,,,,,,,,,,,,,,,,,,,,,,,,,,,,,,,,,,,,,,,,,,,,,,,,,,,,,,,,,,,,,,,,,,,,,,,,,,,,,,,,rodrigo_l,001,b,2019_Oct_10_1316,Experimento,3.2.3,60.02700519176141,
8,14,14,999,0.5,0:10,3,,,0,1,0,10:50,./completed_changuitos/montage_amgxf_160.49_138.99.jpg,left,0,0,0,0,,,,,0,5,5,5,,,,,0,0,0,0,,,,,,,,,,,,,,,,,,,,,,,,,,,,,,,,,,,,,,,,,208.95343811900239,210.01218972199422,210.01218972199422,218.02606653999828,218.02606653999828,232.03794922100496,left,1,0.9661415470036445,232.03794922100496,None,232.03794922100496,None,232.03794922100496,None,,,,,,,,,,,,,,,,,,,,,,,,,,,,,,,,,,,,rodrigo_l,001,b,2019_Oct_10_1316,Experimento,3.2.3,60.02700519176141,
8,14,14,999,0.5,0:10,3,,,0,1,0,10:50,,,0,0,0,0,,,,,0,5,5,5,,,,,,,,,,,,,,,,,,,,,,,,,,,,,,,,,,,,,,,,,,,,,,,,,,,,,,,,,,,,,,,,,,,,,,,,,,,,,,,,,,,,,,,,,,,,,,,,,,,rodrigo_l,001,b,2019_Oct_10_1316,Experimento,3.2.3,60.02700519176141,
8,14,14,999,0.5,0:10,3,Yellow,None,0,0,1,15:50,./completed_changuitos/montage_otdaq_121.0_135.89.jpg,right,0,0,0,0,,,,,0,6,6,6,,,,,,,,,0,0,0,0,0,0,0,0,,,,,,,,,,,,,233.13179295600276,234.38675226300256,234.38675226300256,None,242.40753378000227,242.91752609699324,None,1,242.40753378000227,None,,,,,,,,,,,,,,,,,,,,,,,,,,,,,,,,,,,,,,,,,,,,,,,,,,,,,,,,,,,,,rodrigo_l,001,b,2019_Oct_10_1316,Experimento,3.2.3,60.02700519176141,
8,14,14,999,0.5,0:10,3,White,['space'],0,0,1,15:50,./completed_changuitos/montage_otdaq_121.0_135.89.jpg,right,0,0,0,0,,,,,0,6,6,6,,,,,,,,,0,0,0,0,0,1,1,1,,,,,,,,,,,,,,,,,244.4168944050034,244.91680890400312,None,0,244.4168944050034,244.4168944050034,,,,,,,,,,,,,,,,,,,,,,,,,,,,,,,,,,,,,,,,,,,,,,,,,,,,,,,,,,,,,rodrigo_l,001,b,2019_Oct_10_1316,Experimento,3.2.3,60.02700519176141,
8,14,14,999,0.5,0:10,3,Magenta,None,0,0,1,15:50,./completed_changuitos/montage_otdaq_121.0_135.89.jpg,right,0,0,0,0,,,,,0,6,6,6,,,,,,,,,0,0,0,0,0,2,2,2,,,,,,,,,,,,,,,,,246.416348853003,246.91646423000202,None,1,246.416348853003,246.416348853003,,,,,,,,,,,,,,,,,,,,,,,,,,,,,,,,,,,,,,,,,,,,,,,,,,,,,,,,,,,,,rodrigo_l,001,b,2019_Oct_10_1316,Experimento,3.2.3,60.02700519176141,
8,14,14,999,0.5,0:10,3,Cyan,None,0,0,1,15:50,./completed_changuitos/montage_otdaq_121.0_135.89.jpg,right,0,0,0,0,,,,,0,6,6,6,,,,,,,,,0,0,0,0,0,3,3,3,,,,,,,,,,,,,,,,,248.41557970299618,248.915564445997,None,1,248.41557970299618,248.41557970299618,,,,,,,,,,,,,,,,,,,,,,,,,,,,,,,,,,,,,,,,,,,,,,,,,,,,,,,,,,,,,rodrigo_l,001,b,2019_Oct_10_1316,Experimento,3.2.3,60.02700519176141,
8,14,14,999,0.5,0:10,3,Blue,None,0,0,1,15:50,./completed_changuitos/montage_otdaq_121.0_135.89.jpg,right,0,0,0,0,,,,,0,6,6,6,,,,,,,,,0,0,0,0,0,4,4,4,,,,,,,,,,,,,,,,,250.4149252770003,250.91483122299542,None,1,250.4149252770003,250.4149252770003,,,,,,,,,,,,,,,,,,,,,,,,,,,,,,,,,,,,,,,,,,,,,,,,,,,,,,,,,,,,,rodrigo_l,001,b,2019_Oct_10_1316,Experimento,3.2.3,60.02700519176141,
8,14,14,999,0.5,0:10,3,Magenta,None,0,0,1,15:50,./completed_changuitos/montage_otdaq_121.0_135.89.jpg,right,0,0,0,0,,,,,0,6,6,6,,,,,,,,,0,0,0,0,0,5,5,5,,,,,,,,,,,,,,,,,252.41410147299757,252.91408164599852,None,1,252.41410147299757,252.41410147299757,,,,,,,,,,,,,,,,,,,,,,,,,,,,,,,,,,,,,,,,,,,,,,,,,,,,,,,,,,,,,rodrigo_l,001,b,2019_Oct_10_1316,Experimento,3.2.3,60.02700519176141,
8,14,14,999,0.5,0:10,3,Blue,['space'],0,0,1,15:50,./completed_changuitos/montage_otdaq_121.0_135.89.jpg,right,0,0,0,0,,,,,0,6,6,6,,,,,,,,,0,0,0,0,0,6,6,6,,,,,,,,,,,,,,,,,254.41351794399088,254.91348753900093,['return'],0,254.41351794399088,254.41351794399088,[0.33391410499461927],,,,,,,,,,,,,,,,,,,,,,,,,,,,,,,,,,,,,,,,,,,,,,,,,,,,,,,,,,,,rodrigo_l,001,b,2019_Oct_10_1316,Experimento,3.2.3,60.02700519176141,
8,14,14,999,0.5,0:10,3,Cyan,None,0,0,1,15:50,./completed_changuitos/montage_otdaq_121.0_135.89.jpg,right,0,0,0,0,,,,,0,6,6,6,,,,,,,,,0,0,0,0,0,7,7,7,,,,,,,,,,,,,,,,,256.412918966393,None,None,1,256.412918966393,None,,,,,,,,,,,,,,,,,,,,,,,,,,,,,,,,,,,,,,,,,,,,,,,,,,,,,,,,,,,,,rodrigo_l,001,b,2019_Oct_10_1316,Experimento,3.2.3,60.02700519176141,
8,14,14,999,0.5,0:10,3,Yellow,None,0,0,1,15:50,./completed_changuitos/montage_otdaq_121.0_135.89.jpg,right,0,0,0,0,,,,,0,6,6,6,,,,,,,,,0,0,0,0,0,8,8,8,,,,,,,,,,,,,,,,,256.412918966393,None,None,1,256.412918966393,None,,,,,,,,,,,,,,,,,,,,,,,,,,,,,,,,,,,,,,,,,,,,,,,,,,,,,,,,,,,,,rodrigo_l,001,b,2019_Oct_10_1316,Experimento,3.2.3,60.02700519176141,
8,14,14,999,0.5,0:10,3,Cyan,None,0,0,1,15:50,./completed_changuitos/montage_otdaq_121.0_135.89.jpg,right,0,0,0,0,,,,,0,6,6,6,,,,,,,,,0,0,0,0,0,9,9,9,,,,,,,,,,,,,,,,,256.412918966393,None,None,1,256.412918966393,None,,,,,,,,,,,,,,,,,,,,,,,,,,,,,,,,,,,,,,,,,,,,,,,,,,,,,,,,,,,,,rodrigo_l,001,b,2019_Oct_10_1316,Experimento,3.2.3,60.02700519176141,
8,14,14,999,0.5,0:10,3,Blue,None,0,0,1,15:50,./completed_changuitos/montage_otdaq_121.0_135.89.jpg,right,0,0,0,0,,,,,0,6,6,6,,,,,,,,,0,0,0,0,0,10,10,10,,,,,,,,,,,,,,,,,256.412918966393,None,None,1,256.412918966393,None,,,,,,,,,,,,,,,,,,,,,,,,,,,,,,,,,,,,,,,,,,,,,,,,,,,,,,,,,,,,,rodrigo_l,001,b,2019_Oct_10_1316,Experimento,3.2.3,60.02700519176141,
8,14,14,999,0.5,0:10,3,Cyan,['space'],0,0,1,15:50,./completed_changuitos/montage_otdaq_121.0_135.89.jpg,right,0,0,0,0,,,,,0,6,6,6,,,,,,,,,0,0,0,0,0,11,11,11,,,,,,,,,,,,,,,,,256.42958477379284,None,None,0,256.42958477379284,None,,,,,,,,,,,,,,,,,,,,,,,,,,,,,,,,,,,,,,,,,,,,,,,,,,,,,,,,,,,,,rodrigo_l,001,b,2019_Oct_10_1316,Experimento,3.2.3,60.02700519176141,
8,14,14,999,0.5,0:10,3,Magenta,None,0,0,1,15:50,./completed_changuitos/montage_otdaq_121.0_135.89.jpg,right,0,0,0,0,,,,,0,6,6,6,,,,,,,,,0,0,0,0,0,12,12,12,,,,,,,,,,,,,,,,,256.42958477379284,None,None,1,256.42958477379284,None,,,,,,,,,,,,,,,,,,,,,,,,,,,,,,,,,,,,,,,,,,,,,,,,,,,,,,,,,,,,,rodrigo_l,001,b,2019_Oct_10_1316,Experimento,3.2.3,60.02700519176141,
8,14,14,999,0.5,0:10,3,Red,None,0,0,1,15:50,./completed_changuitos/montage_otdaq_121.0_135.89.jpg,right,0,0,0,0,,,,,0,6,6,6,,,,,,,,,0,0,0,0,0,13,13,13,,,,,,,,,,,,,,,,,256.42958477379284,None,None,1,256.42958477379284,None,,,,,,,,,,,,,,,,,,,,,,,,,,,,,,,,,,,,,,,,,,,,,,,,,,,,,,,,,,,,,rodrigo_l,001,b,2019_Oct_10_1316,Experimento,3.2.3,60.02700519176141,
8,14,14,999,0.5,0:10,3,Magenta,['space'],0,0,1,15:50,./completed_changuitos/montage_otdaq_121.0_135.89.jpg,right,0,0,0,0,,,,,0,6,6,6,,,,,,,,,0,0,0,0,0,14,14,14,,,,,,,,,,,,,,,,,256.42958477379284,None,None,0,256.42958477379284,None,,,,,,,,,,,,,,,,,,,,,,,,,,,,,,,,,,,,,,,,,,,,,,,,,,,,,,,,,,,,,rodrigo_l,001,b,2019_Oct_10_1316,Experimento,3.2.3,60.02700519176141,
8,14,14,999,0.5,0:10,3,Green,None,0,0,1,15:50,./completed_changuitos/montage_otdaq_121.0_135.89.jpg,right,0,0,0,0,,,,,0,6,6,6,,,,,,,,,0,0,0,0,0,15,15,15,,,,,,,,,,,,,,,,,256.42958477379284,None,None,1,256.42958477379284,None,,,,,,,,,,,,,,,,,,,,,,,,,,,,,,,,,,,,,,,,,,,,,,,,,,,,,,,,,,,,,rodrigo_l,001,b,2019_Oct_10_1316,Experimento,3.2.3,60.02700519176141,
8,14,14,999,0.5,0:10,3,Yellow,['space'],0,0,1,15:50,./completed_changuitos/montage_otdaq_121.0_135.89.jpg,right,0,0,0,0,,,,,0,6,6,6,,,,,,,,,0,0,0,0,0,16,16,16,,,,,,,,,,,,,,,,,256.4462505811927,None,None,0,256.4462505811927,None,,,,,,,,,,,,,,,,,,,,,,,,,,,,,,,,,,,,,,,,,,,,,,,,,,,,,,,,,,,,,rodrigo_l,001,b,2019_Oct_10_1316,Experimento,3.2.3,60.02700519176141,
8,14,14,999,0.5,0:10,3,Blue,None,0,0,1,15:50,./completed_changuitos/montage_otdaq_121.0_135.89.jpg,right,0,0,0,0,,,,,0,6,6,6,,,,,,,,,0,0,0,0,0,17,17,17,,,,,,,,,,,,,,,,,256.4462505811927,None,None,1,256.4462505811927,None,,,,,,,,,,,,,,,,,,,,,,,,,,,,,,,,,,,,,,,,,,,,,,,,,,,,,,,,,,,,,rodrigo_l,001,b,2019_Oct_10_1316,Experimento,3.2.3,60.02700519176141,
8,14,14,999,0.5,0:10,3,Cyan,None,0,0,1,15:50,./completed_changuitos/montage_otdaq_121.0_135.89.jpg,right,0,0,0,0,,,,,0,6,6,6,,,,,,,,,0,0,0,0,0,18,18,18,,,,,,,,,,,,,,,,,256.4462505811927,None,None,1,256.4462505811927,None,,,,,,,,,,,,,,,,,,,,,,,,,,,,,,,,,,,,,,,,,,,,,,,,,,,,,,,,,,,,,rodrigo_l,001,b,2019_Oct_10_1316,Experimento,3.2.3,60.02700519176141,
8,14,14,999,0.5,0:10,3,Blue,['space'],0,0,1,15:50,./completed_changuitos/montage_otdaq_121.0_135.89.jpg,right,0,0,0,0,,,,,0,6,6,6,,,,,,,,,0,0,0,0,0,19,19,19,,,,,,,,,,,,,,,,,256.4462505811927,None,None,0,256.4462505811927,None,,,,,,,,,,,,,,,,,,,,,,,,,,,,,,,,,,,,,,,,,,,,,,,,,,,,,,,,,,,,,rodrigo_l,001,b,2019_Oct_10_1316,Experimento,3.2.3,60.02700519176141,
8,14,14,999,0.5,0:10,3,Yellow,None,0,0,1,15:50,./completed_changuitos/montage_otdaq_121.0_135.89.jpg,right,0,0,0,0,,,,,0,6,6,6,,,,,,,,,0,0,0,0,0,20,20,20,,,,,,,,,,,,,,,,,256.4462505811927,None,None,1,256.4462505811927,None,,,,,,,,,,,,,,,,,,,,,,,,,,,,,,,,,,,,,,,,,,,,,,,,,,,,,,,,,,,,,rodrigo_l,001,b,2019_Oct_10_1316,Experimento,3.2.3,60.02700519176141,
8,14,14,999,0.5,0:10,3,Cyan,None,0,0,1,15:50,./completed_changuitos/montage_otdaq_121.0_135.89.jpg,right,0,0,0,0,,,,,0,6,6,6,,,,,,,,,0,0,0,0,0,21,21,21,,,,,,,,,,,,,,,,,256.4462505811927,None,None,1,256.4462505811927,None,,,,,,,,,,,,,,,,,,,,,,,,,,,,,,,,,,,,,,,,,,,,,,,,,,,,,,,,,,,,,rodrigo_l,001,b,2019_Oct_10_1316,Experimento,3.2.3,60.02700519176141,
8,14,14,999,0.5,0:10,3,Yellow,['space'],0,0,1,15:50,./completed_changuitos/montage_otdaq_121.0_135.89.jpg,right,0,0,0,0,,,,,0,6,6,6,,,,,,,,,0,0,0,0,0,22,22,22,,,,,,,,,,,,,,,,,256.4462505811927,None,None,0,256.4462505811927,None,,,,,,,,,,,,,,,,,,,,,,,,,,,,,,,,,,,,,,,,,,,,,,,,,,,,,,,,,,,,,rodrigo_l,001,b,2019_Oct_10_1316,Experimento,3.2.3,60.02700519176141,
8,14,14,999,0.5,0:10,3,Magenta,None,0,0,1,15:50,./completed_changuitos/montage_otdaq_121.0_135.89.jpg,right,0,0,0,0,,,,,0,6,6,6,,,,,,,,,0,0,0,0,0,23,23,23,,,,,,,,,,,,,,,,,256.4462505811927,None,None,1,256.4462505811927,None,,,,,,,,,,,,,,,,,,,,,,,,,,,,,,,,,,,,,,,,,,,,,,,,,,,,,,,,,,,,,rodrigo_l,001,b,2019_Oct_10_1316,Experimento,3.2.3,60.02700519176141,
8,14,14,999,0.5,0:10,3,Red,None,0,0,1,15:50,./completed_changuitos/montage_otdaq_121.0_135.89.jpg,right,0,0,0,0,,,,,0,6,6,6,,,,,,,,,0,0,0,0,0,24,24,24,,,,,,,,,,,,,,,,,256.4462505811927,None,None,1,256.4462505811927,None,,,,,,,,,,,,,,,,,,,,,,,,,,,,,,,,,,,,,,,,,,,,,,,,,,,,,,,,,,,,,rodrigo_l,001,b,2019_Oct_10_1316,Experimento,3.2.3,60.02700519176141,
8,14,14,999,0.5,0:10,3,Magenta,['space'],0,0,1,15:50,./completed_changuitos/montage_otdaq_121.0_135.89.jpg,right,0,0,0,0,,,,,0,6,6,6,,,,,,,,,0,0,0,0,0,25,25,25,,,,,,,,,,,,,,,,,256.4462505811927,None,None,0,256.4462505811927,None,,,,,,,,,,,,,,,,,,,,,,,,,,,,,,,,,,,,,,,,,,,,,,,,,,,,,,,,,,,,,rodrigo_l,001,b,2019_Oct_10_1316,Experimento,3.2.3,60.02700519176141,
8,14,14,999,0.5,0:10,3,Red,['space'],0,0,1,15:50,./completed_changuitos/montage_otdaq_121.0_135.89.jpg,right,0,0,0,0,,,,,0,6,6,6,,,,,,,,,0,0,0,0,0,26,26,26,,,,,,,,,,,,,,,,,256.4462505811927,None,None,0,256.4462505811927,None,,,,,,,,,,,,,,,,,,,,,,,,,,,,,,,,,,,,,,,,,,,,,,,,,,,,,,,,,,,,,rodrigo_l,001,b,2019_Oct_10_1316,Experimento,3.2.3,60.02700519176141,
8,14,14,999,0.5,0:10,3,Yellow,None,0,0,1,15:50,./completed_changuitos/montage_otdaq_121.0_135.89.jpg,right,0,0,0,0,,,,,0,6,6,6,,,,,,,,,0,0,0,0,0,27,27,27,,,,,,,,,,,,,,,,,256.46291638859253,None,None,1,256.46291638859253,None,,,,,,,,,,,,,,,,,,,,,,,,,,,,,,,,,,,,,,,,,,,,,,,,,,,,,,,,,,,,,rodrigo_l,001,b,2019_Oct_10_1316,Experimento,3.2.3,60.02700519176141,
8,14,14,999,0.5,0:10,3,Cyan,None,0,0,1,15:50,./completed_changuitos/montage_otdaq_121.0_135.89.jpg,right,0,0,0,0,,,,,0,6,6,6,,,,,,,,,0,0,0,0,0,28,28,28,,,,,,,,,,,,,,,,,256.46291638859253,None,None,1,256.46291638859253,None,,,,,,,,,,,,,,,,,,,,,,,,,,,,,,,,,,,,,,,,,,,,,,,,,,,,,,,,,,,,,rodrigo_l,001,b,2019_Oct_10_1316,Experimento,3.2.3,60.02700519176141,
8,14,14,999,0.5,0:10,3,Green,None,0,0,1,15:50,./completed_changuitos/montage_otdaq_121.0_135.89.jpg,right,0,0,0,0,,,,,0,6,6,6,,,,,,,,,0,0,0,0,0,29,29,29,,,,,,,,,,,,,,,,,256.46291638859253,None,None,1,256.46291638859253,None,,,,,,,,,,,,,,,,,,,,,,,,,,,,,,,,,,,,,,,,,,,,,,,,,,,,,,,,,,,,,rodrigo_l,001,b,2019_Oct_10_1316,Experimento,3.2.3,60.02700519176141,
8,14,14,999,0.5,0:10,3,White,None,0,0,1,15:50,./completed_changuitos/montage_otdaq_121.0_135.89.jpg,right,0,0,0,0,,,,,0,6,6,6,,,,,,,,,0,0,0,0,0,30,30,30,,,,,,,,,,,,,,,,,256.46291638859253,None,None,1,256.46291638859253,None,,,,,,,,,,,,,,,,,,,,,,,,,,,,,,,,,,,,,,,,,,,,,,,,,,,,,,,,,,,,,rodrigo_l,001,b,2019_Oct_10_1316,Experimento,3.2.3,60.02700519176141,
8,14,14,999,0.5,0:10,3,Green,['space'],0,0,1,15:50,./completed_changuitos/montage_otdaq_121.0_135.89.jpg,right,0,0,0,0,,,,,0,6,6,6,,,,,,,,,0,0,0,0,0,31,31,31,,,,,,,,,,,,,,,,,256.46291638859253,None,None,0,256.46291638859253,None,,,,,,,,,,,,,,,,,,,,,,,,,,,,,,,,,,,,,,,,,,,,,,,,,,,,,,,,,,,,,rodrigo_l,001,b,2019_Oct_10_1316,Experimento,3.2.3,60.02700519176141,
8,14,14,999,0.5,0:10,3,Red,None,0,0,1,15:50,./completed_changuitos/montage_otdaq_121.0_135.89.jpg,right,0,0,0,0,,,,,0,6,6,6,,,,,,,,,0,0,0,0,0,32,32,32,,,,,,,,,,,,,,,,,256.46291638859253,None,None,1,256.46291638859253,None,,,,,,,,,,,,,,,,,,,,,,,,,,,,,,,,,,,,,,,,,,,,,,,,,,,,,,,,,,,,,rodrigo_l,001,b,2019_Oct_10_1316,Experimento,3.2.3,60.02700519176141,
8,14,14,999,0.5,0:10,3,Blue,None,0,0,1,15:50,./completed_changuitos/montage_otdaq_121.0_135.89.jpg,right,0,0,0,0,,,,,0,6,6,6,,,,,,,,,0,0,0,0,0,33,33,33,,,,,,,,,,,,,,,,,256.46291638859253,None,None,1,256.46291638859253,None,,,,,,,,,,,,,,,,,,,,,,,,,,,,,,,,,,,,,,,,,,,,,,,,,,,,,,,,,,,,,rodrigo_l,001,b,2019_Oct_10_1316,Experimento,3.2.3,60.02700519176141,
8,14,14,999,0.5,0:10,3,Green,None,0,0,1,15:50,./completed_changuitos/montage_otdaq_121.0_135.89.jpg,right,0,0,0,0,,,,,0,6,6,6,,,,,,,,,0,0,0,0,0,34,34,34,,,,,,,,,,,,,,,,,256.46291638859253,None,None,1,256.46291638859253,None,,,,,,,,,,,,,,,,,,,,,,,,,,,,,,,,,,,,,,,,,,,,,,,,,,,,,,,,,,,,,rodrigo_l,001,b,2019_Oct_10_1316,Experimento,3.2.3,60.02700519176141,
8,14,14,999,0.5,0:10,3,,,0,0,1,15:50,./completed_changuitos/montage_otdaq_121.0_135.89.jpg,right,0,0,0,0,,,,,0,6,6,6,,,,,,,,,0,0,0,0,,,,,,,,,,,,,,,,,,,,,,,,,,,,256.4954942089971,None,right,1,1.9500832439953228,256.4954942089971,None,256.4954942089971,None,,,,,,,,,,,,,,,,,,,,,,,,,,,,,,,,,,,,,,,,,,,,,,,,,,,rodrigo_l,001,b,2019_Oct_10_1316,Experimento,3.2.3,60.02700519176141,
8,14,14,999,0.5,0:10,3,,,0,0,1,15:50,,,0,0,0,0,,,,,0,6,6,6,,,,,,,,,,,,,,,,,,,,,,,,,,,,,,,,,,,,,,,,,,,,,,,,,,,,,,,,,,,,,,,,,,,,,,,,,,,,,,,,,,,,,,,,,,,,,,,,,,,rodrigo_l,001,b,2019_Oct_10_1316,Experimento,3.2.3,60.02700519176141,
8,14,14,999,0.5,0:10,3,,,0,1,0,19:50,./completed_changuitos/montage_wkglb_51.35_44.65.jpg,left,0,0,0,0,,,,,0,7,7,7,,,,,0,0,0,0,,,,,,,,,,,,,,,,,,,,,,,,,,,,,,,,,,,,,,,,,258.5820808050048,259.8117540749954,259.8117540749954,267.82529064400296,267.82529064400296,281.8375866290007,right,0,1.566568528985954,281.8375866290007,None,281.8375866290007,None,281.8375866290007,None,,,,,,,,,,,,,,,,,,,,,,,,,,,,,,,,,,,,rodrigo_l,001,b,2019_Oct_10_1316,Experimento,3.2.3,60.02700519176141,
8,14,14,999,0.5,0:10,3,,,0,1,0,19:50,,,0,0,0,0,,,,,0,7,7,7,,,,,,,,,,,,,,,,,,,,,,,,,,,,,,,,,,,,,,,,,,,,,,,,,,,,,,,,,,,,,,,,,,,,,,,,,,,,,,,,,,,,,,,,,,,,,,,,,,,rodrigo_l,001,b,2019_Oct_10_1316,Experimento,3.2.3,60.02700519176141,
8,14,14,999,0.5,0:10,3,Magenta,None,0,0,1,20:50,./completed_changuitos/montage_tdnft_48.15_54.89.jpg,right,0,0,0,0,,,,,0,8,8,8,,,,,,,,,0,0,0,0,0,0,0,0,,,,,,,,,,,,,283.538725506005,285.0031853559922,285.0031853559922,None,293.0439778299915,293.54983817499306,None,1,293.0439778299915,None,,,,,,,,,,,,,,,,,,,,,,,,,,,,,,,,,,,,,,,,,,,,,,,,,,,,,,,,,,,,,rodrigo_l,001,b,2019_Oct_10_1316,Experimento,3.2.3,60.02700519176141,
8,14,14,999,0.5,0:10,3,Blue,['space'],0,0,1,20:50,./completed_changuitos/montage_tdnft_48.15_54.89.jpg,right,0,0,0,0,,,,,0,8,8,8,,,,,,,,,0,0,0,0,0,1,1,1,,,,,,,,,,,,,,,,,295.04956959899573,295.54925931799517,None,0,295.04956959899573,295.04956959899573,,,,,,,,,,,,,,,,,,,,,,,,,,,,,,,,,,,,,,,,,,,,,,,,,,,,,,,,,,,,,rodrigo_l,001,b,2019_Oct_10_1316,Experimento,3.2.3,60.02700519176141,
8,14,14,999,0.5,0:10,3,Cyan,None,0,0,1,20:50,./completed_changuitos/montage_tdnft_48.15_54.89.jpg,right,0,0,0,0,,,,,0,8,8,8,,,,,,,,,0,0,0,0,0,2,2,2,,,,,,,,,,,,,,,,,297.0486384609976,297.5488733739912,None,1,297.0486384609976,297.0486384609976,,,,,,,,,,,,,,,,,,,,,,,,,,,,,,,,,,,,,,,,,,,,,,,,,,,,,,,,,,,,,rodrigo_l,001,b,2019_Oct_10_1316,Experimento,3.2.3,60.02700519176141,
8,14,14,999,0.5,0:10,3,Yellow,None,0,0,1,20:50,./completed_changuitos/montage_tdnft_48.15_54.89.jpg,right,0,0,0,0,,,,,0,8,8,8,,,,,,,,,0,0,0,0,0,3,3,3,,,,,,,,,,,,,,,,,299.0480048379977,299.5478948469972,None,1,299.0480048379977,299.0480048379977,,,,,,,,,,,,,,,,,,,,,,,,,,,,,,,,,,,,,,,,,,,,,,,,,,,,,,,,,,,,,rodrigo_l,001,b,2019_Oct_10_1316,Experimento,3.2.3,60.02700519176141,
8,14,14,999,0.5,0:10,3,Cyan,None,0,0,1,20:50,./completed_changuitos/montage_tdnft_48.15_54.89.jpg,right,0,0,0,0,,,,,0,8,8,8,,,,,,,,,0,0,0,0,0,4,4,4,,,,,,,,,,,,,,,,,301.04764878399146,301.54749633799656,['return'],0,301.04764878399146,301.04764878399146,[0.4513117320020683],,,,,,,,,,,,,,,,,,,,,,,,,,,,,,,,,,,,,,,,,,,,,,,,,,,,,,,,,,,,rodrigo_l,001,b,2019_Oct_10_1316,Experimento,3.2.3,60.02700519176141,
8,14,14,999,0.5,0:10,3,Blue,None,0,0,1,20:50,./completed_changuitos/montage_tdnft_48.15_54.89.jpg,right,0,0,0,0,,,,,0,8,8,8,,,,,,,,,0,0,0,0,0,5,5,5,,,,,,,,,,,,,,,,,303.0646558849985,303.58013226199546,None,1,303.0646558849985,303.0646558849985,,,,,,,,,,,,,,,,,,,,,,,,,,,,,,,,,,,,,,,,,,,,,,,,,,,,,,,,,,,,,rodrigo_l,001,b,2019_Oct_10_1316,Experimento,3.2.3,60.02700519176141,
8,14,14,999,0.5,0:10,3,Cyan,['space'],0,0,1,20:50,./completed_changuitos/montage_tdnft_48.15_54.89.jpg,right,0,0,0,0,,,,,0,8,8,8,,,,,,,,,0,0,0,0,0,6,6,6,,,,,,,,,,,,,,,,,305.07920809100324,305.57907743500255,['return'],0,305.07920809100324,305.07920809100324,[0.7341962720092852],,,,,,,,,,,,,,,,,,,,,,,,,,,,,,,,,,,,,,,,,,,,,,,,,,,,,,,,,,,,rodrigo_l,001,b,2019_Oct_10_1316,Experimento,3.2.3,60.02700519176141,
8,14,14,999,0.5,0:10,3,Magenta,None,0,0,1,20:50,./completed_changuitos/montage_tdnft_48.15_54.89.jpg,right,0,0,0,0,,,,,0,8,8,8,,,,,,,,,0,0,0,0,0,7,7,7,,,,,,,,,,,,,,,,,307.0289686624004,None,None,1,307.0289686624004,None,,,,,,,,,,,,,,,,,,,,,,,,,,,,,,,,,,,,,,,,,,,,,,,,,,,,,,,,,,,,,rodrigo_l,001,b,2019_Oct_10_1316,Experimento,3.2.3,60.02700519176141,
8,14,14,999,0.5,0:10,3,Red,None,0,0,1,20:50,./completed_changuitos/montage_tdnft_48.15_54.89.jpg,right,0,0,0,0,,,,,0,8,8,8,,,,,,,,,0,0,0,0,0,8,8,8,,,,,,,,,,,,,,,,,307.0289686624004,None,None,1,307.0289686624004,None,,,,,,,,,,,,,,,,,,,,,,,,,,,,,,,,,,,,,,,,,,,,,,,,,,,,,,,,,,,,,rodrigo_l,001,b,2019_Oct_10_1316,Experimento,3.2.3,60.02700519176141,
8,14,14,999,0.5,0:10,3,Magenta,['space'],0,0,1,20:50,./completed_changuitos/montage_tdnft_48.15_54.89.jpg,right,0,0,0,0,,,,,0,8,8,8,,,,,,,,,0,0,0,0,0,9,9,9,,,,,,,,,,,,,,,,,307.0289686624004,None,None,0,307.0289686624004,None,,,,,,,,,,,,,,,,,,,,,,,,,,,,,,,,,,,,,,,,,,,,,,,,,,,,,,,,,,,,,rodrigo_l,001,b,2019_Oct_10_1316,Experimento,3.2.3,60.02700519176141,
8,14,14,999,0.5,0:10,3,Green,None,0,0,1,20:50,./completed_changuitos/montage_tdnft_48.15_54.89.jpg,right,0,0,0,0,,,,,0,8,8,8,,,,,,,,,0,0,0,0,0,10,10,10,,,,,,,,,,,,,,,,,307.0289686624004,None,None,1,307.0289686624004,None,,,,,,,,,,,,,,,,,,,,,,,,,,,,,,,,,,,,,,,,,,,,,,,,,,,,,,,,,,,,,rodrigo_l,001,b,2019_Oct_10_1316,Experimento,3.2.3,60.02700519176141,
8,14,14,999,0.5,0:10,3,Yellow,['space'],0,0,1,20:50,./completed_changuitos/montage_tdnft_48.15_54.89.jpg,right,0,0,0,0,,,,,0,8,8,8,,,,,,,,,0,0,0,0,0,11,11,11,,,,,,,,,,,,,,,,,307.04563446980023,None,None,0,307.04563446980023,None,,,,,,,,,,,,,,,,,,,,,,,,,,,,,,,,,,,,,,,,,,,,,,,,,,,,,,,,,,,,,rodrigo_l,001,b,2019_Oct_10_1316,Experimento,3.2.3,60.02700519176141,
8,14,14,999,0.5,0:10,3,Blue,None,0,0,1,20:50,./completed_changuitos/montage_tdnft_48.15_54.89.jpg,right,0,0,0,0,,,,,0,8,8,8,,,,,,,,,0,0,0,0,0,12,12,12,,,,,,,,,,,,,,,,,307.04563446980023,None,None,1,307.04563446980023,None,,,,,,,,,,,,,,,,,,,,,,,,,,,,,,,,,,,,,,,,,,,,,,,,,,,,,,,,,,,,,rodrigo_l,001,b,2019_Oct_10_1316,Experimento,3.2.3,60.02700519176141,
8,14,14,999,0.5,0:10,3,Cyan,None,0,0,1,20:50,./completed_changuitos/montage_tdnft_48.15_54.89.jpg,right,0,0,0,0,,,,,0,8,8,8,,,,,,,,,0,0,0,0,0,13,13,13,,,,,,,,,,,,,,,,,307.04563446980023,None,None,1,307.04563446980023,None,,,,,,,,,,,,,,,,,,,,,,,,,,,,,,,,,,,,,,,,,,,,,,,,,,,,,,,,,,,,,rodrigo_l,001,b,2019_Oct_10_1316,Experimento,3.2.3,60.02700519176141,
8,14,14,999,0.5,0:10,3,Blue,['space'],0,0,1,20:50,./completed_changuitos/montage_tdnft_48.15_54.89.jpg,right,0,0,0,0,,,,,0,8,8,8,,,,,,,,,0,0,0,0,0,14,14,14,,,,,,,,,,,,,,,,,307.04563446980023,None,None,0,307.04563446980023,None,,,,,,,,,,,,,,,,,,,,,,,,,,,,,,,,,,,,,,,,,,,,,,,,,,,,,,,,,,,,,rodrigo_l,001,b,2019_Oct_10_1316,Experimento,3.2.3,60.02700519176141,
8,14,14,999,0.5,0:10,3,Yellow,None,0,0,1,20:50,./completed_changuitos/montage_tdnft_48.15_54.89.jpg,right,0,0,0,0,,,,,0,8,8,8,,,,,,,,,0,0,0,0,0,15,15,15,,,,,,,,,,,,,,,,,307.04563446980023,None,None,1,307.04563446980023,None,,,,,,,,,,,,,,,,,,,,,,,,,,,,,,,,,,,,,,,,,,,,,,,,,,,,,,,,,,,,,rodrigo_l,001,b,2019_Oct_10_1316,Experimento,3.2.3,60.02700519176141,
8,14,14,999,0.5,0:10,3,Cyan,None,0,0,1,20:50,./completed_changuitos/montage_tdnft_48.15_54.89.jpg,right,0,0,0,0,,,,,0,8,8,8,,,,,,,,,0,0,0,0,0,16,16,16,,,,,,,,,,,,,,,,,307.04563446980023,None,None,1,307.04563446980023,None,,,,,,,,,,,,,,,,,,,,,,,,,,,,,,,,,,,,,,,,,,,,,,,,,,,,,,,,,,,,,rodrigo_l,001,b,2019_Oct_10_1316,Experimento,3.2.3,60.02700519176141,
8,14,14,999,0.5,0:10,3,Yellow,['space'],0,0,1,20:50,./completed_changuitos/montage_tdnft_48.15_54.89.jpg,right,0,0,0,0,,,,,0,8,8,8,,,,,,,,,0,0,0,0,0,17,17,17,,,,,,,,,,,,,,,,,307.0623002772001,None,None,0,307.0623002772001,None,,,,,,,,,,,,,,,,,,,,,,,,,,,,,,,,,,,,,,,,,,,,,,,,,,,,,,,,,,,,,rodrigo_l,001,b,2019_Oct_10_1316,Experimento,3.2.3,60.02700519176141,
8,14,14,999,0.5,0:10,3,Magenta,None,0,0,1,20:50,./completed_changuitos/montage_tdnft_48.15_54.89.jpg,right,0,0,0,0,,,,,0,8,8,8,,,,,,,,,0,0,0,0,0,18,18,18,,,,,,,,,,,,,,,,,307.0623002772001,None,None,1,307.0623002772001,None,,,,,,,,,,,,,,,,,,,,,,,,,,,,,,,,,,,,,,,,,,,,,,,,,,,,,,,,,,,,,rodrigo_l,001,b,2019_Oct_10_1316,Experimento,3.2.3,60.02700519176141,
8,14,14,999,0.5,0:10,3,Red,None,0,0,1,20:50,./completed_changuitos/montage_tdnft_48.15_54.89.jpg,right,0,0,0,0,,,,,0,8,8,8,,,,,,,,,0,0,0,0,0,19,19,19,,,,,,,,,,,,,,,,,307.0623002772001,None,None,1,307.0623002772001,None,,,,,,,,,,,,,,,,,,,,,,,,,,,,,,,,,,,,,,,,,,,,,,,,,,,,,,,,,,,,,rodrigo_l,001,b,2019_Oct_10_1316,Experimento,3.2.3,60.02700519176141,
8,14,14,999,0.5,0:10,3,Magenta,['space'],0,0,1,20:50,./completed_changuitos/montage_tdnft_48.15_54.89.jpg,right,0,0,0,0,,,,,0,8,8,8,,,,,,,,,0,0,0,0,0,20,20,20,,,,,,,,,,,,,,,,,307.0623002772001,None,None,0,307.0623002772001,None,,,,,,,,,,,,,,,,,,,,,,,,,,,,,,,,,,,,,,,,,,,,,,,,,,,,,,,,,,,,,rodrigo_l,001,b,2019_Oct_10_1316,Experimento,3.2.3,60.02700519176141,
8,14,14,999,0.5,0:10,3,Red,['space'],0,0,1,20:50,./completed_changuitos/montage_tdnft_48.15_54.89.jpg,right,0,0,0,0,,,,,0,8,8,8,,,,,,,,,0,0,0,0,0,21,21,21,,,,,,,,,,,,,,,,,307.0623002772001,None,None,0,307.0623002772001,None,,,,,,,,,,,,,,,,,,,,,,,,,,,,,,,,,,,,,,,,,,,,,,,,,,,,,,,,,,,,,rodrigo_l,001,b,2019_Oct_10_1316,Experimento,3.2.3,60.02700519176141,
8,14,14,999,0.5,0:10,3,Yellow,None,0,0,1,20:50,./completed_changuitos/montage_tdnft_48.15_54.89.jpg,right,0,0,0,0,,,,,0,8,8,8,,,,,,,,,0,0,0,0,0,22,22,22,,,,,,,,,,,,,,,,,307.0623002772001,None,None,1,307.0623002772001,None,,,,,,,,,,,,,,,,,,,,,,,,,,,,,,,,,,,,,,,,,,,,,,,,,,,,,,,,,,,,,rodrigo_l,001,b,2019_Oct_10_1316,Experimento,3.2.3,60.02700519176141,
8,14,14,999,0.5,0:10,3,Cyan,None,0,0,1,20:50,./completed_changuitos/montage_tdnft_48.15_54.89.jpg,right,0,0,0,0,,,,,0,8,8,8,,,,,,,,,0,0,0,0,0,23,23,23,,,,,,,,,,,,,,,,,307.0623002772001,None,None,1,307.0623002772001,None,,,,,,,,,,,,,,,,,,,,,,,,,,,,,,,,,,,,,,,,,,,,,,,,,,,,,,,,,,,,,rodrigo_l,001,b,2019_Oct_10_1316,Experimento,3.2.3,60.02700519176141,
8,14,14,999,0.5,0:10,3,Green,None,0,0,1,20:50,./completed_changuitos/montage_tdnft_48.15_54.89.jpg,right,0,0,0,0,,,,,0,8,8,8,,,,,,,,,0,0,0,0,0,24,24,24,,,,,,,,,,,,,,,,,307.0623002772001,None,None,1,307.0623002772001,None,,,,,,,,,,,,,,,,,,,,,,,,,,,,,,,,,,,,,,,,,,,,,,,,,,,,,,,,,,,,,rodrigo_l,001,b,2019_Oct_10_1316,Experimento,3.2.3,60.02700519176141,
8,14,14,999,0.5,0:10,3,White,None,0,0,1,20:50,./completed_changuitos/montage_tdnft_48.15_54.89.jpg,right,0,0,0,0,,,,,0,8,8,8,,,,,,,,,0,0,0,0,0,25,25,25,,,,,,,,,,,,,,,,,307.0623002772001,None,None,1,307.0623002772001,None,,,,,,,,,,,,,,,,,,,,,,,,,,,,,,,,,,,,,,,,,,,,,,,,,,,,,,,,,,,,,rodrigo_l,001,b,2019_Oct_10_1316,Experimento,3.2.3,60.02700519176141,
8,14,14,999,0.5,0:10,3,Green,['space'],0,0,1,20:50,./completed_changuitos/montage_tdnft_48.15_54.89.jpg,right,0,0,0,0,,,,,0,8,8,8,,,,,,,,,0,0,0,0,0,26,26,26,,,,,,,,,,,,,,,,,307.0623002772001,None,None,0,307.0623002772001,None,,,,,,,,,,,,,,,,,,,,,,,,,,,,,,,,,,,,,,,,,,,,,,,,,,,,,,,,,,,,,rodrigo_l,001,b,2019_Oct_10_1316,Experimento,3.2.3,60.02700519176141,
8,14,14,999,0.5,0:10,3,Red,None,0,0,1,20:50,./completed_changuitos/montage_tdnft_48.15_54.89.jpg,right,0,0,0,0,,,,,0,8,8,8,,,,,,,,,0,0,0,0,0,27,27,27,,,,,,,,,,,,,,,,,307.0623002772001,None,None,1,307.0623002772001,None,,,,,,,,,,,,,,,,,,,,,,,,,,,,,,,,,,,,,,,,,,,,,,,,,,,,,,,,,,,,,rodrigo_l,001,b,2019_Oct_10_1316,Experimento,3.2.3,60.02700519176141,
8,14,14,999,0.5,0:10,3,Blue,None,0,0,1,20:50,./completed_changuitos/montage_tdnft_48.15_54.89.jpg,right,0,0,0,0,,,,,0,8,8,8,,,,,,,,,0,0,0,0,0,28,28,28,,,,,,,,,,,,,,,,,307.0789660845999,None,None,1,307.0789660845999,None,,,,,,,,,,,,,,,,,,,,,,,,,,,,,,,,,,,,,,,,,,,,,,,,,,,,,,,,,,,,,rodrigo_l,001,b,2019_Oct_10_1316,Experimento,3.2.3,60.02700519176141,
8,14,14,999,0.5,0:10,3,Green,None,0,0,1,20:50,./completed_changuitos/montage_tdnft_48.15_54.89.jpg,right,0,0,0,0,,,,,0,8,8,8,,,,,,,,,0,0,0,0,0,29,29,29,,,,,,,,,,,,,,,,,307.0789660845999,None,None,1,307.0789660845999,None,,,,,,,,,,,,,,,,,,,,,,,,,,,,,,,,,,,,,,,,,,,,,,,,,,,,,,,,,,,,,rodrigo_l,001,b,2019_Oct_10_1316,Experimento,3.2.3,60.02700519176141,
8,14,14,999,0.5,0:10,3,,,0,0,1,20:50,./completed_changuitos/montage_tdnft_48.15_54.89.jpg,right,0,0,0,0,,,,,0,8,8,8,,,,,,,,,0,0,0,0,,,,,,,,,,,,,,,,,,,,,,,,,,,,307.1061835319997,None,right,1,1.6389248789928388,307.1061835319997,None,307.1061835319997,None,,,,,,,,,,,,,,,,,,,,,,,,,,,,,,,,,,,,,,,,,,,,,,,,,,,rodrigo_l,001,b,2019_Oct_10_1316,Experimento,3.2.3,60.02700519176141,
8,14,14,999,0.5,0:10,3,,,0,0,1,20:50,,,0,0,0,0,,,,,0,8,8,8,,,,,,,,,,,,,,,,,,,,,,,,,,,,,,,,,,,,,,,,,,,,,,,,,,,,,,,,,,,,,,,,,,,,,,,,,,,,,,,,,,,,,,,,,,,,,,,,,,,rodrigo_l,001,b,2019_Oct_10_1316,Experimento,3.2.3,60.02700519176141,
8,14,14,999,0.5,0:10,3,,,0,1,0,25:50,./completed_changuitos/montage_rxwvk_105.95_90.85.jpg,left,0,0,0,0,,,,,0,9,9,9,,,,,0,0,0,0,,,,,,,,,,,,,,,,,,,,,,,,,,,,,,,,,,,,,,,,,308.88973587700457,310.29455304799194,310.29455304799194,318.3084188359935,318.3084188359935,332.3203090640018,right,0,0.7002498039946659,332.3203090640018,None,332.3203090640018,None,332.3203090640018,None,,,,,,,,,,,,,,,,,,,,,,,,,,,,,,,,,,,,rodrigo_l,001,b,2019_Oct_10_1316,Experimento,3.2.3,60.02700519176141,
8,14,14,999,0.5,0:10,3,,,0,1,0,25:50,,,0,0,0,0,,,,,0,9,9,9,,,,,,,,,,,,,,,,,,,,,,,,,,,,,,,,,,,,,,,,,,,,,,,,,,,,,,,,,,,,,,,,,,,,,,,,,,,,,,,,,,,,,,,,,,,,,,,,,,,rodrigo_l,001,b,2019_Oct_10_1316,Experimento,3.2.3,60.02700519176141,
8,14,14,999,0.5,0:10,3,Red,None,0,0,1,28:50,./completed_changuitos/montage_oczcc_46.0_53.49.jpg,right,0,0,0,0,,,,,0,10,10,10,,,,,,,,,0,0,0,0,0,0,0,0,,,,,,,,,,,,,333.15303641000355,334.18637320199923,334.18637320199923,None,342.2283047079982,342.7331512509991,None,1,342.2283047079982,None,,,,,,,,,,,,,,,,,,,,,,,,,,,,,,,,,,,,,,,,,,,,,,,,,,,,,,,,,,,,,rodrigo_l,001,b,2019_Oct_10_1316,Experimento,3.2.3,60.02700519176141,
8,14,14,999,0.5,0:10,3,Magenta,['space'],0,0,1,28:50,./completed_changuitos/montage_oczcc_46.0_53.49.jpg,right,0,0,0,0,,,,,0,10,10,10,,,,,,,,,0,0,0,0,0,1,1,1,,,,,,,,,,,,,,,,,344.23277172200324,344.73275340699183,None,0,344.23277172200324,344.23277172200324,,,,,,,,,,,,,,,,,,,,,,,,,,,,,,,,,,,,,,,,,,,,,,,,,,,,,,,,,,,,,rodrigo_l,001,b,2019_Oct_10_1316,Experimento,3.2.3,60.02700519176141,
8,14,14,999,0.5,0:10,3,Green,None,0,0,1,28:50,./completed_changuitos/montage_oczcc_46.0_53.49.jpg,right,0,0,0,0,,,,,0,10,10,10,,,,,,,,,0,0,0,0,0,2,2,2,,,,,,,,,,,,,,,,,346.2322421190038,346.7320419829921,None,1,346.2322421190038,346.2322421190038,,,,,,,,,,,,,,,,,,,,,,,,,,,,,,,,,,,,,,,,,,,,,,,,,,,,,,,,,,,,,rodrigo_l,001,b,2019_Oct_10_1316,Experimento,3.2.3,60.02700519176141,
8,14,14,999,0.5,0:10,3,Yellow,['space'],0,0,1,28:50,./completed_changuitos/montage_oczcc_46.0_53.49.jpg,right,0,0,0,0,,,,,0,10,10,10,,,,,,,,,0,0,0,0,0,3,3,3,,,,,,,,,,,,,,,,,348.2314984709956,348.730981168992,None,0,348.2314984709956,348.2314984709956,,,,,,,,,,,,,,,,,,,,,,,,,,,,,,,,,,,,,,,,,,,,,,,,,,,,,,,,,,,,,rodrigo_l,001,b,2019_Oct_10_1316,Experimento,3.2.3,60.02700519176141,
8,14,14,999,0.5,0:10,3,Blue,None,0,0,1,28:50,./completed_changuitos/montage_oczcc_46.0_53.49.jpg,right,0,0,0,0,,,,,0,10,10,10,,,,,,,,,0,0,0,0,0,4,4,4,,,,,,,,,,,,,,,,,350.2308080829971,350.7307454379916,None,1,350.2308080829971,350.2308080829971,,,,,,,,,,,,,,,,,,,,,,,,,,,,,,,,,,,,,,,,,,,,,,,,,,,,,,,,,,,,,rodrigo_l,001,b,2019_Oct_10_1316,Experimento,3.2.3,60.02700519176141,
8,14,14,999,0.5,0:10,3,Cyan,None,0,0,1,28:50,./completed_changuitos/montage_oczcc_46.0_53.49.jpg,right,0,0,0,0,,,,,0,10,10,10,,,,,,,,,0,0,0,0,0,5,5,5,,,,,,,,,,,,,,,,,352.2300649270037,352.73002583200287,None,1,352.2300649270037,352.2300649270037,,,,,,,,,,,,,,,,,,,,,,,,,,,,,,,,,,,,,,,,,,,,,,,,,,,,,,,,,,,,,rodrigo_l,001,b,2019_Oct_10_1316,Experimento,3.2.3,60.02700519176141,
8,14,14,999,0.5,0:10,3,Blue,['space'],0,0,1,28:50,./completed_changuitos/montage_oczcc_46.0_53.49.jpg,right,0,0,0,0,,,,,0,10,10,10,,,,,,,,,0,0,0,0,0,6,6,6,,,,,,,,,,,,,,,,,354.22947365000437,354.72900431600283,['return'],0,354.22947365000437,354.22947365000437,[0.5163927020039409],,,,,,,,,,,,,,,,,,,,,,,,,,,,,,,,,,,,,,,,,,,,,,,,,,,,,,,,,,,,rodrigo_l,001,b,2019_Oct_10_1316,Experimento,3.2.3,60.02700519176141,
8,14,14,999,0.5,0:10,3,Yellow,None,0,0,1,28:50,./completed_changuitos/montage_oczcc_46.0_53.49.jpg,right,0,0,0,0,,,,,0,10,10,10,,,,,,,,,0,0,0,0,0,7,7,7,,,,,,,,,,,,,,,,,356.21213921539163,None,None,1,356.21213921539163,None,,,,,,,,,,,,,,,,,,,,,,,,,,,,,,,,,,,,,,,,,,,,,,,,,,,,,,,,,,,,,rodrigo_l,001,b,2019_Oct_10_1316,Experimento,3.2.3,60.02700519176141,
8,14,14,999,0.5,0:10,3,Cyan,None,0,0,1,28:50,./completed_changuitos/montage_oczcc_46.0_53.49.jpg,right,0,0,0,0,,,,,0,10,10,10,,,,,,,,,0,0,0,0,0,8,8,8,,,,,,,,,,,,,,,,,356.21213921539163,None,None,1,356.21213921539163,None,,,,,,,,,,,,,,,,,,,,,,,,,,,,,,,,,,,,,,,,,,,,,,,,,,,,,,,,,,,,,rodrigo_l,001,b,2019_Oct_10_1316,Experimento,3.2.3,60.02700519176141,
8,14,14,999,0.5,0:10,3,Yellow,['space'],0,0,1,28:50,./completed_changuitos/montage_oczcc_46.0_53.49.jpg,right,0,0,0,0,,,,,0,10,10,10,,,,,,,,,0,0,0,0,0,9,9,9,,,,,,,,,,,,,,,,,356.21213921539163,None,None,0,356.21213921539163,None,,,,,,,,,,,,,,,,,,,,,,,,,,,,,,,,,,,,,,,,,,,,,,,,,,,,,,,,,,,,,rodrigo_l,001,b,2019_Oct_10_1316,Experimento,3.2.3,60.02700519176141,
8,14,14,999,0.5,0:10,3,Magenta,None,0,0,1,28:50,./completed_changuitos/montage_oczcc_46.0_53.49.jpg,right,0,0,0,0,,,,,0,10,10,10,,,,,,,,,0,0,0,0,0,10,10,10,,,,,,,,,,,,,,,,,356.21213921539163,None,None,1,356.21213921539163,None,,,,,,,,,,,,,,,,,,,,,,,,,,,,,,,,,,,,,,,,,,,,,,,,,,,,,,,,,,,,,rodrigo_l,001,b,2019_Oct_10_1316,Experimento,3.2.3,60.02700519176141,
8,14,14,999,0.5,0:10,3,Red,None,0,0,1,28:50,./completed_changuitos/montage_oczcc_46.0_53.49.jpg,right,0,0,0,0,,,,,0,10,10,10,,,,,,,,,0,0,0,0,0,11,11,11,,,,,,,,,,,,,,,,,356.22880502279145,None,None,1,356.22880502279145,None,,,,,,,,,,,,,,,,,,,,,,,,,,,,,,,,,,,,,,,,,,,,,,,,,,,,,,,,,,,,,rodrigo_l,001,b,2019_Oct_10_1316,Experimento,3.2.3,60.02700519176141,
8,14,14,999,0.5,0:10,3,Magenta,['space'],0,0,1,28:50,./completed_changuitos/montage_oczcc_46.0_53.49.jpg,right,0,0,0,0,,,,,0,10,10,10,,,,,,,,,0,0,0,0,0,12,12,12,,,,,,,,,,,,,,,,,356.22880502279145,None,None,0,356.22880502279145,None,,,,,,,,,,,,,,,,,,,,,,,,,,,,,,,,,,,,,,,,,,,,,,,,,,,,,,,,,,,,,rodrigo_l,001,b,2019_Oct_10_1316,Experimento,3.2.3,60.02700519176141,
8,14,14,999,0.5,0:10,3,Red,['space'],0,0,1,28:50,./completed_changuitos/montage_oczcc_46.0_53.49.jpg,right,0,0,0,0,,,,,0,10,10,10,,,,,,,,,0,0,0,0,0,13,13,13,,,,,,,,,,,,,,,,,356.22880502279145,None,None,0,356.22880502279145,None,,,,,,,,,,,,,,,,,,,,,,,,,,,,,,,,,,,,,,,,,,,,,,,,,,,,,,,,,,,,,rodrigo_l,001,b,2019_Oct_10_1316,Experimento,3.2.3,60.02700519176141,
8,14,14,999,0.5,0:10,3,Yellow,None,0,0,1,28:50,./completed_changuitos/montage_oczcc_46.0_53.49.jpg,right,0,0,0,0,,,,,0,10,10,10,,,,,,,,,0,0,0,0,0,14,14,14,,,,,,,,,,,,,,,,,356.22880502279145,None,None,1,356.22880502279145,None,,,,,,,,,,,,,,,,,,,,,,,,,,,,,,,,,,,,,,,,,,,,,,,,,,,,,,,,,,,,,rodrigo_l,001,b,2019_Oct_10_1316,Experimento,3.2.3,60.02700519176141,
8,14,14,999,0.5,0:10,3,Cyan,None,0,0,1,28:50,./completed_changuitos/montage_oczcc_46.0_53.49.jpg,right,0,0,0,0,,,,,0,10,10,10,,,,,,,,,0,0,0,0,0,15,15,15,,,,,,,,,,,,,,,,,356.22880502279145,None,None,1,356.22880502279145,None,,,,,,,,,,,,,,,,,,,,,,,,,,,,,,,,,,,,,,,,,,,,,,,,,,,,,,,,,,,,,rodrigo_l,001,b,2019_Oct_10_1316,Experimento,3.2.3,60.02700519176141,
8,14,14,999,0.5,0:10,3,Green,None,0,0,1,28:50,./completed_changuitos/montage_oczcc_46.0_53.49.jpg,right,0,0,0,0,,,,,0,10,10,10,,,,,,,,,0,0,0,0,0,16,16,16,,,,,,,,,,,,,,,,,356.22880502279145,None,None,1,356.22880502279145,None,,,,,,,,,,,,,,,,,,,,,,,,,,,,,,,,,,,,,,,,,,,,,,,,,,,,,,,,,,,,,rodrigo_l,001,b,2019_Oct_10_1316,Experimento,3.2.3,60.02700519176141,
8,14,14,999,0.5,0:10,3,White,None,0,0,1,28:50,./completed_changuitos/montage_oczcc_46.0_53.49.jpg,right,0,0,0,0,,,,,0,10,10,10,,,,,,,,,0,0,0,0,0,17,17,17,,,,,,,,,,,,,,,,,356.2454708301913,None,None,1,356.2454708301913,None,,,,,,,,,,,,,,,,,,,,,,,,,,,,,,,,,,,,,,,,,,,,,,,,,,,,,,,,,,,,,rodrigo_l,001,b,2019_Oct_10_1316,Experimento,3.2.3,60.02700519176141,
8,14,14,999,0.5,0:10,3,Green,['space'],0,0,1,28:50,./completed_changuitos/montage_oczcc_46.0_53.49.jpg,right,0,0,0,0,,,,,0,10,10,10,,,,,,,,,0,0,0,0,0,18,18,18,,,,,,,,,,,,,,,,,356.2454708301913,None,None,0,356.2454708301913,None,,,,,,,,,,,,,,,,,,,,,,,,,,,,,,,,,,,,,,,,,,,,,,,,,,,,,,,,,,,,,rodrigo_l,001,b,2019_Oct_10_1316,Experimento,3.2.3,60.02700519176141,
8,14,14,999,0.5,0:10,3,Red,None,0,0,1,28:50,./completed_changuitos/montage_oczcc_46.0_53.49.jpg,right,0,0,0,0,,,,,0,10,10,10,,,,,,,,,0,0,0,0,0,19,19,19,,,,,,,,,,,,,,,,,356.2454708301913,None,None,1,356.2454708301913,None,,,,,,,,,,,,,,,,,,,,,,,,,,,,,,,,,,,,,,,,,,,,,,,,,,,,,,,,,,,,,rodrigo_l,001,b,2019_Oct_10_1316,Experimento,3.2.3,60.02700519176141,
8,14,14,999,0.5,0:10,3,Blue,None,0,0,1,28:50,./completed_changuitos/montage_oczcc_46.0_53.49.jpg,right,0,0,0,0,,,,,0,10,10,10,,,,,,,,,0,0,0,0,0,20,20,20,,,,,,,,,,,,,,,,,356.2454708301913,None,None,1,356.2454708301913,None,,,,,,,,,,,,,,,,,,,,,,,,,,,,,,,,,,,,,,,,,,,,,,,,,,,,,,,,,,,,,rodrigo_l,001,b,2019_Oct_10_1316,Experimento,3.2.3,60.02700519176141,
8,14,14,999,0.5,0:10,3,Green,None,0,0,1,28:50,./completed_changuitos/montage_oczcc_46.0_53.49.jpg,right,0,0,0,0,,,,,0,10,10,10,,,,,,,,,0,0,0,0,0,21,21,21,,,,,,,,,,,,,,,,,356.2454708301913,None,None,1,356.2454708301913,None,,,,,,,,,,,,,,,,,,,,,,,,,,,,,,,,,,,,,,,,,,,,,,,,,,,,,,,,,,,,,rodrigo_l,001,b,2019_Oct_10_1316,Experimento,3.2.3,60.02700519176141,
8,14,14,999,0.5,0:10,3,,,0,0,1,28:50,./completed_changuitos/montage_oczcc_46.0_53.49.jpg,right,0,0,0,0,,,,,0,10,10,10,,,,,,,,,0,0,0,0,,,,,,,,,,,,,,,,,,,,,,,,,,,,356.2820766399964,None,right,1,1.3798574389948044,356.2820766399964,None,356.2820766399964,None,,,,,,,,,,,,,,,,,,,,,,,,,,,,,,,,,,,,,,,,,,,,,,,,,,,rodrigo_l,001,b,2019_Oct_10_1316,Experimento,3.2.3,60.02700519176141,
8,14,14,999,0.5,0:10,3,,,0,0,1,28:50,,,0,0,0,0,,,,,0,10,10,10,,,,,,,,,,,,,,,,,,,,,,,,,,,,,,,,,,,,,,,,,,,,,,,,,,,,,,,,,,,,,,,,,,,,,,,,,,,,,,,,,,,,,,,,,,,,,,,,,,,rodrigo_l,001,b,2019_Oct_10_1316,Experimento,3.2.3,60.02700519176141,
8,14,14,999,0.5,0:10,3,,,0,1,0,10:50,./completed_changuitos/montage_jliqg_41.09_35.2.jpg,left,0,0,0,0,,,,,0,11,11,11,,,,,0,0,0,0,,,,,,,,,,,,,,,,,,,,,,,,,,,,,,,,,,,,,,,,,357.8161759079958,359.0945276029961,359.0945276029961,367.1084276670008,367.1084276670008,381.1202999169909,left,1,0.6503292319976026,381.1202999169909,None,381.1202999169909,None,381.1202999169909,None,,,,,,,,,,,,,,,,,,,,,,,,,,,,,,,,,,,,rodrigo_l,001,b,2019_Oct_10_1316,Experimento,3.2.3,60.02700519176141,
8,14,14,999,0.5,0:10,3,,,0,1,0,10:50,,,0,0,0,0,,,,,0,11,11,11,,,,,,,,,,,,,,,,,,,,,,,,,,,,,,,,,,,,,,,,,,,,,,,,,,,,,,,,,,,,,,,,,,,,,,,,,,,,,,,,,,,,,,,,,,,,,,,,,,,rodrigo_l,001,b,2019_Oct_10_1316,Experimento,3.2.3,60.02700519176141,
8,14,14,999,0.5,0:10,3,,,1,0,0,30:50,./completed_changuitos/montage_ptixc_346.39_298.55.jpg,left,0,0,0,0,,,,,0,12,12,12,0,0,0,0,,,,,,,,,,,,,,,,,,,,,,,,,,,,,,,,,,,,,,,,,,,,,,,,,,,,,,,,,,,,382.40319479900063,383.8028383839992,383.8028383839992,391.8166302430036,right,0,3.3324317270016763,391.8166302430036,None,391.8166302430036,None,391.8166302430036,394.8318679899967,,,,,,,,,,,,,,,,,,,,,,,rodrigo_l,001,b,2019_Oct_10_1316,Experimento,3.2.3,60.02700519176141,
8,14,14,999,0.5,0:10,3,,,1,0,0,30:50,,,0,0,0,0,,,,,0,12,12,12,,,,,,,,,,,,,,,,,,,,,,,,,,,,,,,,,,,,,,,,,,,,,,,,,,,,,,,,,,,,,,,,,,,,,,,,,,,,,,,,,,,,,,,,,,,,,,,,,,,rodrigo_l,001,b,2019_Oct_10_1316,Experimento,3.2.3,60.02700519176141,
8,14,14,999,0.5,0:10,3,,,1,0,0,32:50,./completed_changuitos/montage_twosn_60.99_69.55.jpg,right,0,0,0,0,,,,,0,13,13,13,0,0,0,0,,,,,,,,,,,,,,,,,,,,,,,,,,,,,,,,,,,,,,,,,,,,,,,,,,,,,,,,,,,,395.79864150099456,397.364684907996,397.364684907996,405.3787224800035,left,0,0.7668198839965044,405.3787224800035,None,405.3787224800035,None,405.3787224800035,None,,,,,,,,,,,,,,,,,,,,,,,rodrigo_l,001,b,2019_Oct_10_1316,Experimento,3.2.3,60.02700519176141,
8,14,14,999,0.5,0:10,3,,,1,0,0,32:50,,,0,0,0,0,,,,,0,13,13,13,,,,,,,,,,,,,,,,,,,,,,,,,,,,,,,,,,,,,,,,,,,,,,,,,,,,,,,,,,,,,,,,,,,,,,,,,,,,,,,,,,,,,,,,,,,,,,,,,,,rodrigo_l,001,b,2019_Oct_10_1316,Experimento,3.2.3,60.02700519176141,
8,14,14,999,0.5,0:10,3,,,1,0,0,34:50,./completed_changuitos/montage_jpitt_245.69_285.72.jpg,right,0,0,0,0,,,,,0,14,14,14,0,0,0,0,,,,,,,,,,,,,,,,,,,,,,,,,,,,,,,,,,,,,,,,,,,,,,,,,,,,,,,,,,,,406.7948828009976,408.3443584839988,408.3443584839988,416.3582594850013,left,0,0.5669450999994297,416.3582594850013,None,416.3582594850013,None,416.3582594850013,None,,,,,,,,,,,,,,,,,,,,,,,rodrigo_l,001,b,2019_Oct_10_1316,Experimento,3.2.3,60.02700519176141,
8,14,14,999,0.5,0:10,3,,,1,0,0,34:50,,,0,0,0,0,,,,,0,14,14,14,,,,,,,,,,,,,,,,,,,,,,,,,,,,,,,,,,,,,,,,,,,,,,,,,,,,,,,,,,,,,,,,,,,,,,,,,,,,,,,,,,,,,,,,,,,,,,,,,,,rodrigo_l,001,b,2019_Oct_10_1316,Experimento,3.2.3,60.02700519176141,
8,14,14,999,0.5,0:10,3,,,1,0,0,30:50,./completed_changuitos/montage_axyil_403.39_479.0.jpg,right,0,0,0,0,,,,,0,15,15,15,0,0,0,0,,,,,,,,,,,,,,,,,,,,,,,,,,,,,,,,,,,,,,,,,,,,,,,,,,,,,,,,,,,,417.5911646029999,418.5074956629978,418.5074956629978,426.52142299499246,right,1,0.4504000029992312,426.52142299499246,None,426.52142299499246,None,426.52142299499246,None,,,,,,,,,,,,,,,,,,,,,,,rodrigo_l,001,b,2019_Oct_10_1316,Experimento,3.2.3,60.02700519176141,
8,14,14,999,0.5,0:10,3,,,1,0,0,30:50,,,0,0,0,0,,,,,0,15,15,15,,,,,,,,,,,,,,,,,,,,,,,,,,,,,,,,,,,,,,,,,,,,,,,,,,,,,,,,,,,,,,,,,,,,,,,,,,,,,,,,,,,,,,,,,,,,,,,,,,,rodrigo_l,001,b,2019_Oct_10_1316,Experimento,3.2.3,60.02700519176141,
8,14,14,999,0.5,0:10,3,,,1,0,0,32:50,./completed_changuitos/montage_msdlx_197.95_175.49.jpg,left,0,0,0,0,,,,,0,16,16,16,0,0,0,0,,,,,,,,,,,,,,,,,,,,,,,,,,,,,,,,,,,,,,,,,,,,,,,,,,,,,,,,,,,,427.6377330749965,428.78732950999984,428.78732950999984,436.80087687399646,right,0,0.46677495999028906,436.80087687399646,None,436.80087687399646,None,436.80087687399646,None,,,,,,,,,,,,,,,,,,,,,,,rodrigo_l,001,b,2019_Oct_10_1316,Experimento,3.2.3,60.02700519176141,
8,14,14,999,0.5,0:10,3,,,1,0,0,32:50,,,0,0,0,0,,,,,0,16,16,16,,,,,,,,,,,,,,,,,,,,,,,,,,,,,,,,,,,,,,,,,,,,,,,,,,,,,,,,,,,,,,,,,,,,,,,,,,,,,,,,,,,,,,,,,,,,,,,,,,,rodrigo_l,001,b,2019_Oct_10_1316,Experimento,3.2.3,60.02700519176141,
8,14,14,999,0.5,0:10,3,,,1,0,0,34:50,./completed_changuitos/montage_whxoa_427.99_367.55.jpg,left,0,0,0,0,,,,,0,17,17,17,0,0,0,0,,,,,,,,,,,,,,,,,,,,,,,,,,,,,,,,,,,,,,,,,,,,,,,,,,,,,,,,,,,,437.917129458001,438.9004740060045,438.9004740060045,446.91445298500184,right,0,0.3837480189977214,446.91445298500184,None,446.91445298500184,None,446.91445298500184,None,,,,,,,,,,,,,,,,,,,,,,,rodrigo_l,001,b,2019_Oct_10_1316,Experimento,3.2.3,60.02700519176141,
8,14,14,999,0.5,0:10,3,,,1,0,0,34:50,,,0,0,0,0,,,,,0,17,17,17,,,,,,,,,,,,,,,,,,,,,,,,,,,,,,,,,,,,,,,,,,,,,,,,,,,,,,,,,,,,,,,,,,,,,,,,,,,,,,,,,,,,,,,,,,,,,,,,,,,rodrigo_l,001,b,2019_Oct_10_1316,Experimento,3.2.3,60.02700519176141,
8,14,14,999,0.5,0:10,3,,,,,,,,,0,0,0,0,,,,,,,,,,,,,,,,,,,,,,,,,,,,,,,,,,,,,,,,,,,,,,,,,,,,,,,,,,,,,,,,,,,,,,,,,,,,,,,,,,,,,447.3701910380041,449.54689423200034,2,4.165732472989475,449.54689423200034,None,449.54689423200034,None,b,6.215341796007124,453.7284780189948,None,453.7284780189948,None,453.7284780189948,None,459.9598967960046,None,8,2.6163897340011317,459.9598967960046,None,rodrigo_l,001,b,2019_Oct_10_1316,Experimento,3.2.3,60.02700519176141,
