changuito_time_to_show,time_to_think,time_to_play,total_items,nback_stimulus_time,nback_training,time_to_show_tiny_stimulus,colourtest,corresp,inmediato,consciente,inconsciente,nback_slice,imagen,correcta,trials_5.thisRepN,trials_5.thisTrialN,trials_5.thisN,trials_5.thisIndex,nback_train.thisRepN,nback_train.thisTrialN,nback_train.thisN,nback_train.thisIndex,treatment_order.thisRepN,treatment_order.thisTrialN,treatment_order.thisN,treatment_order.thisIndex,trials.thisRepN,trials.thisTrialN,trials.thisN,trials.thisIndex,trials_2.thisRepN,trials_2.thisTrialN,trials_2.thisN,trials_2.thisIndex,trials_3.thisRepN,trials_3.thisTrialN,trials_3.thisN,trials_3.thisIndex,trials_4.thisRepN,trials_4.thisTrialN,trials_4.thisN,trials_4.thisIndex,Presentacion.started,Presentacion.stopped,Juego.started,Juego.stopped,image_6.started,image_6.stopped,polygon.started,polygon.stopped,nback_train_resp.keys,nback_train_resp.corr,nback_train_resp.started,nback_train_resp.stopped,hola.started,hola.stopped,image_2.started,image_2.stopped,tiempo_para_pensar.started,tiempo_para_pensar.stopped,respuesta_consciente.keys,respuesta_consciente.corr,respuesta_consciente.rt,respuesta_consciente.started,respuesta_consciente.stopped,cual_es_la_mas_barata.started,cual_es_la_mas_barata.stopped,image_4.started,image_4.stopped,holi.started,holi.stopped,image_3.started,image_3.stopped,polygon_2.started,polygon_2.stopped,nback_train_resp_2.keys,nback_train_resp_2.corr,nback_train_resp_2.started,nback_train_resp_2.stopped,text_2.started,text_2.stopped,key_resp.keys,key_resp.corr,key_resp.rt,key_resp.started,key_resp.stopped,image_5.started,image_5.stopped,nback_train_resp_2.rt,text.started,text.stopped,image.started,image.stopped,respuesta_inmediato.keys,respuesta_inmediato.corr,respuesta_inmediato.rt,respuesta_inmediato.started,respuesta_inmediato.stopped,pregunta_cual_es_el_mas_barato.started,pregunta_cual_es_el_mas_barato.stopped,short_stim1.started,short_stim1.stopped,gracias.started,gracias.stopped,respuesta1.keys,respuesta1.rt,respuesta1.started,respuesta1.stopped,pregunta1.started,pregunta1.stopped,respuesta3bis_3.keys,respuesta3bis_3.rt,respuesta3bis_3.started,respuesta3bis_3.stopped,pregunta3_3.started,pregunta3_3.stopped,productoCon3RANGOSabc_3.started,productoCon3RANGOSabc_3.stopped,text_3.started,text_3.stopped,key_resp_2.keys,key_resp_2.rt,key_resp_2.started,key_resp_2.stopped,participant,session,group,date,expName,psychopyVersion,frameRate,
8,14,14,999,0.5,0:10,3,White,None,,,,,,,0,0,0,0,0,0,0,0,,,,,,,,,,,,,,,,,,,,,52.344011206994765,None,88.3741588519988,None,88.3741588519988,None,147.95217545999913,148.45397163600137,None,1,147.95217545999913,None,,,,,,,,,,,,,,,,,,,,,,,,,,,,,,,,,,,,,,,,,,,,,,,,,,,,,,,,,,,,,,,,,,,,,,,sebaapu,001,c,2019_Nov_15_2326,Experimento,3.2.3,60.0660504317327,
8,14,14,999,0.5,0:10,3,Red,None,,,,,,,0,0,0,0,0,1,1,1,,,,,,,,,,,,,,,,,,,,,,,,,,,149.95351074299833,150.45324325999536,None,1,149.95351074299833,149.95351074299833,,,,,,,,,,,,,,,,,,,,,,,,,,,,,,,,,,,,,,,,,,,,,,,,,,,,,,,,,,,,,,,,,,,,,,,sebaapu,001,c,2019_Nov_15_2326,Experimento,3.2.3,60.0660504317327,
8,14,14,999,0.5,0:10,3,Magenta,None,,,,,,,0,0,0,0,0,2,2,2,,,,,,,,,,,,,,,,,,,,,,,,,,,151.95277901499503,152.452617723,None,1,151.95277901499503,151.95277901499503,,,,,,,,,,,,,,,,,,,,,,,,,,,,,,,,,,,,,,,,,,,,,,,,,,,,,,,,,,,,,,,,,,,,,,,sebaapu,001,c,2019_Nov_15_2326,Experimento,3.2.3,60.0660504317327,
8,14,14,999,0.5,0:10,3,Cyan,None,,,,,,,0,0,0,0,0,3,3,3,,,,,,,,,,,,,,,,,,,,,,,,,,,153.95212919899495,154.45197303899477,None,1,153.95212919899495,153.95212919899495,,,,,,,,,,,,,,,,,,,,,,,,,,,,,,,,,,,,,,,,,,,,,,,,,,,,,,,,,,,,,,,,,,,,,,,sebaapu,001,c,2019_Nov_15_2326,Experimento,3.2.3,60.0660504317327,
8,14,14,999,0.5,0:10,3,Magenta,['space'],,,,,,,0,0,0,0,0,4,4,4,,,,,,,,,,,,,,,,,,,,,,,,,,,155.95110762099648,156.45123756500107,None,0,155.95110762099648,155.95110762099648,,,,,,,,,,,,,,,,,,,,,,,,,,,,,,,,,,,,,,,,,,,,,,,,,,,,,,,,,,,,,,,,,,,,,,,sebaapu,001,c,2019_Nov_15_2326,Experimento,3.2.3,60.0660504317327,
8,14,14,999,0.5,0:10,3,Green,None,,,,,,,0,0,0,0,0,5,5,5,,,,,,,,,,,,,,,,,,,,,,,,,,,157.95042767500127,158.45057233399712,None,1,157.95042767500127,157.95042767500127,,,,,,,,,,,,,,,,,,,,,,,,,,,,,,,,,,,,,,,,,,,,,,,,,,,,,,,,,,,,,,,,,,,,,,,sebaapu,001,c,2019_Nov_15_2326,Experimento,3.2.3,60.0660504317327,
8,14,14,999,0.5,0:10,3,White,None,,,,,,,0,0,0,0,0,6,6,6,,,,,,,,,,,,,,,,,,,,,,,,,,,159.9497307049969,160.4498803319948,None,1,159.9497307049969,159.9497307049969,,,,,,,,,,,,,,,,,,,,,,,,,,,,,,,,,,,,,,,,,,,,,,,,,,,,,,,,,,,,,,,,,,,,,,,sebaapu,001,c,2019_Nov_15_2326,Experimento,3.2.3,60.0660504317327,
8,14,14,999,0.5,0:10,3,Green,['space'],,,,,,,0,0,0,0,0,7,7,7,,,,,,,,,,,,,,,,,,,,,,,,,,,161.94909211900085,162.44920365199505,None,0,161.94909211900085,161.94909211900085,,,,,,,,,,,,,,,,,,,,,,,,,,,,,,,,,,,,,,,,,,,,,,,,,,,,,,,,,,,,,,,,,,,,,,,sebaapu,001,c,2019_Nov_15_2326,Experimento,3.2.3,60.0660504317327,
8,14,14,999,0.5,0:10,3,Blue,None,,,,,,,0,0,0,0,0,8,8,8,,,,,,,,,,,,,,,,,,,,,,,,,,,163.94868947899522,164.44851870699495,None,1,163.94868947899522,163.94868947899522,,,,,,,,,,,,,,,,,,,,,,,,,,,,,,,,,,,,,,,,,,,,,,,,,,,,,,,,,,,,,,,,,,,,,,,sebaapu,001,c,2019_Nov_15_2326,Experimento,3.2.3,60.0660504317327,
8,14,14,999,0.5,0:10,3,Green,['space'],,,,,,,0,0,0,0,0,9,9,9,,,,,,,,,,,,,,,,,,,,,,,,,,,165.94801055899734,166.44785593199776,None,0,165.94801055899734,165.94801055899734,,,,,,,,,,,,,,,,,,,,,,,,,,,,,,,,,,,,,,,,,,,,,,,,,,,,,,,,,,,,,,,,,,,,,,,sebaapu,001,c,2019_Nov_15_2326,Experimento,3.2.3,60.0660504317327,
8,14,14,999,0.5,0:10,3,,,0,1,0,10:50,./completed_changuitos/montage_obnsw_37.79_33.19.jpg,left,0,0,0,0,,,,,0,0,0,0,,,,,0,0,0,0,,,,,,,,,,,,,,,,,,,,,168.16948533299728,195.97109156999795,195.97109156999795,203.9850176580003,203.9850176580003,217.99691298599646,left,1,8.797537453996483,217.99691298599646,None,217.99691298599646,None,217.99691298599646,221.01256059099978,,,,,,,,,,,,,,,,,,,,,,,,,,,,,,,,,,,,,,,,,,,,,,,,,,,,,,,,sebaapu,001,c,2019_Nov_15_2326,Experimento,3.2.3,60.0660504317327,
8,14,14,999,0.5,0:10,3,,,0,1,0,10:50,,,0,0,0,0,,,,,0,0,0,0,,,,,,,,,,,,,,,,,,,,,,,,,,,,,,,,,,,,,,,,,,,,,,,,,,,,,,,,,,,,,,,,,,,,,,,,,,,,,,,,,,,,,,,,,,,,,,,,,,,sebaapu,001,c,2019_Nov_15_2326,Experimento,3.2.3,60.0660504317327,
8,14,14,999,0.5,0:10,3,Yellow,None,0,0,1,15:50,./completed_changuitos/montage_nxyuf_412.39_354.19.jpg,left,0,0,0,0,,,,,0,1,1,1,,,,,,,,,0,0,0,0,0,0,0,0,,,,,,,,,,,,,,,,,,,,,,,,,,,,226.92915294299746,244.6212004199988,244.6212004199988,None,252.66369790699537,253.16826782000135,None,1,252.66369790699537,None,,,,,,,,,,,,,,,,,,,,,,,,,,,,,,,,,,,,,,,,,,,,,,sebaapu,001,c,2019_Nov_15_2326,Experimento,3.2.3,60.0660504317327,
8,14,14,999,0.5,0:10,3,White,['space'],0,0,1,15:50,./completed_changuitos/montage_nxyuf_412.39_354.19.jpg,left,0,0,0,0,,,,,0,1,1,1,,,,,,,,,0,0,0,0,0,1,1,1,,,,,,,,,,,,,,,,,,,,,,,,,,,,,,,,254.6677644800002,255.1675734859964,None,0,254.6677644800002,254.6677644800002,,,,,,,,,,,,,,,,,,,,,,,,,,,,,,,,,,,,,,,,,,,,,,sebaapu,001,c,2019_Nov_15_2326,Experimento,3.2.3,60.0660504317327,
8,14,14,999,0.5,0:10,3,Magenta,None,0,0,1,15:50,./completed_changuitos/montage_nxyuf_412.39_354.19.jpg,left,0,0,0,0,,,,,0,1,1,1,,,,,,,,,0,0,0,0,0,2,2,2,,,,,,,,,,,,,,,,,,,,,,,,,,,,,,,,256.66701828499936,257.16685529799724,None,1,256.66701828499936,256.66701828499936,,,,,,,,,,,,,,,,,,,,,,,,,,,,,,,,,,,,,,,,,,,,,,sebaapu,001,c,2019_Nov_15_2326,Experimento,3.2.3,60.0660504317327,
8,14,14,999,0.5,0:10,3,Cyan,None,0,0,1,15:50,./completed_changuitos/montage_nxyuf_412.39_354.19.jpg,left,0,0,0,0,,,,,0,1,1,1,,,,,,,,,0,0,0,0,0,3,3,3,,,,,,,,,,,,,,,,,,,,,,,,,,,,,,,,258.66638730299746,259.1662115539948,None,1,258.66638730299746,258.66638730299746,,,,,,,,,,,,,,,,,,,,,,,,,,,,,,,,,,,,,,,,,,,,,,sebaapu,001,c,2019_Nov_15_2326,Experimento,3.2.3,60.0660504317327,
8,14,14,999,0.5,0:10,3,Blue,None,0,0,1,15:50,./completed_changuitos/montage_nxyuf_412.39_354.19.jpg,left,0,0,0,0,,,,,0,1,1,1,,,,,,,,,0,0,0,0,0,4,4,4,,,,,,,,,,,,,,,,,,,,,,,,,,,,,,,,260.6820121560013,261.18219456199586,None,1,260.6820121560013,260.6820121560013,,,,,,,,,,,,,,,,,,,,,,,,,,,,,,,,,,,,,,,,,,,,,,sebaapu,001,c,2019_Nov_15_2326,Experimento,3.2.3,60.0660504317327,
8,14,14,999,0.5,0:10,3,Magenta,None,0,0,1,15:50,./completed_changuitos/montage_nxyuf_412.39_354.19.jpg,left,0,0,0,0,,,,,0,1,1,1,,,,,,,,,0,0,0,0,0,5,5,5,,,,,,,,,,,,,,,,,,,,,,,,,,,,,,,,262.6816873380012,263.181515434997,None,1,262.6816873380012,262.6816873380012,,,,,,,,,,,,,,,,,,,,,,,,,,,,,,,,,,,,,,,,,,,,,,sebaapu,001,c,2019_Nov_15_2326,Experimento,3.2.3,60.0660504317327,
8,14,14,999,0.5,0:10,3,Blue,['space'],0,0,1,15:50,./completed_changuitos/montage_nxyuf_412.39_354.19.jpg,left,0,0,0,0,,,,,0,1,1,1,,,,,,,,,0,0,0,0,0,6,6,6,,,,,,,,,,,,,,,,,,,,,,,,,,,,,,,,264.68100655799935,265.1808390369988,None,0,264.68100655799935,264.68100655799935,,,,,,,,,,,,,,,,,,,,,,,,,,,,,,,,,,,,,,,,,,,,,,sebaapu,001,c,2019_Nov_15_2326,Experimento,3.2.3,60.0660504317327,
8,14,14,999,0.5,0:10,3,Cyan,None,0,0,1,15:50,./completed_changuitos/montage_nxyuf_412.39_354.19.jpg,left,0,0,0,0,,,,,0,1,1,1,,,,,,,,,0,0,0,0,0,7,7,7,,,,,,,,,,,,,,,,,,,,,,,,,,,,,,,,266.64700692290063,None,None,1,266.64700692290063,None,,,,,,,,,,,,,,,,,,,,,,,,,,,,,,,,,,,,,,,,,,,,,,sebaapu,001,c,2019_Nov_15_2326,Experimento,3.2.3,60.0660504317327,
8,14,14,999,0.5,0:10,3,Yellow,None,0,0,1,15:50,./completed_changuitos/montage_nxyuf_412.39_354.19.jpg,left,0,0,0,0,,,,,0,1,1,1,,,,,,,,,0,0,0,0,0,8,8,8,,,,,,,,,,,,,,,,,,,,,,,,,,,,,,,,266.64700692290063,None,None,1,266.64700692290063,None,,,,,,,,,,,,,,,,,,,,,,,,,,,,,,,,,,,,,,,,,,,,,,sebaapu,001,c,2019_Nov_15_2326,Experimento,3.2.3,60.0660504317327,
8,14,14,999,0.5,0:10,3,Cyan,None,0,0,1,15:50,./completed_changuitos/montage_nxyuf_412.39_354.19.jpg,left,0,0,0,0,,,,,0,1,1,1,,,,,,,,,0,0,0,0,0,9,9,9,,,,,,,,,,,,,,,,,,,,,,,,,,,,,,,,266.64700692290063,None,None,1,266.64700692290063,None,,,,,,,,,,,,,,,,,,,,,,,,,,,,,,,,,,,,,,,,,,,,,,sebaapu,001,c,2019_Nov_15_2326,Experimento,3.2.3,60.0660504317327,
8,14,14,999,0.5,0:10,3,Blue,None,0,0,1,15:50,./completed_changuitos/montage_nxyuf_412.39_354.19.jpg,left,0,0,0,0,,,,,0,1,1,1,,,,,,,,,0,0,0,0,0,10,10,10,,,,,,,,,,,,,,,,,,,,,,,,,,,,,,,,266.64700692290063,None,None,1,266.64700692290063,None,,,,,,,,,,,,,,,,,,,,,,,,,,,,,,,,,,,,,,,,,,,,,,sebaapu,001,c,2019_Nov_15_2326,Experimento,3.2.3,60.0660504317327,
8,14,14,999,0.5,0:10,3,Cyan,['space'],0,0,1,15:50,./completed_changuitos/montage_nxyuf_412.39_354.19.jpg,left,0,0,0,0,,,,,0,1,1,1,,,,,,,,,0,0,0,0,0,11,11,11,,,,,,,,,,,,,,,,,,,,,,,,,,,,,,,,266.6636785448005,None,None,0,266.6636785448005,None,,,,,,,,,,,,,,,,,,,,,,,,,,,,,,,,,,,,,,,,,,,,,,sebaapu,001,c,2019_Nov_15_2326,Experimento,3.2.3,60.0660504317327,
8,14,14,999,0.5,0:10,3,Magenta,None,0,0,1,15:50,./completed_changuitos/montage_nxyuf_412.39_354.19.jpg,left,0,0,0,0,,,,,0,1,1,1,,,,,,,,,0,0,0,0,0,12,12,12,,,,,,,,,,,,,,,,,,,,,,,,,,,,,,,,266.6636785448005,None,None,1,266.6636785448005,None,,,,,,,,,,,,,,,,,,,,,,,,,,,,,,,,,,,,,,,,,,,,,,sebaapu,001,c,2019_Nov_15_2326,Experimento,3.2.3,60.0660504317327,
8,14,14,999,0.5,0:10,3,Red,None,0,0,1,15:50,./completed_changuitos/montage_nxyuf_412.39_354.19.jpg,left,0,0,0,0,,,,,0,1,1,1,,,,,,,,,0,0,0,0,0,13,13,13,,,,,,,,,,,,,,,,,,,,,,,,,,,,,,,,266.6636785448005,None,None,1,266.6636785448005,None,,,,,,,,,,,,,,,,,,,,,,,,,,,,,,,,,,,,,,,,,,,,,,sebaapu,001,c,2019_Nov_15_2326,Experimento,3.2.3,60.0660504317327,
8,14,14,999,0.5,0:10,3,Magenta,['space'],0,0,1,15:50,./completed_changuitos/montage_nxyuf_412.39_354.19.jpg,left,0,0,0,0,,,,,0,1,1,1,,,,,,,,,0,0,0,0,0,14,14,14,,,,,,,,,,,,,,,,,,,,,,,,,,,,,,,,266.6636785448005,None,None,0,266.6636785448005,None,,,,,,,,,,,,,,,,,,,,,,,,,,,,,,,,,,,,,,,,,,,,,,sebaapu,001,c,2019_Nov_15_2326,Experimento,3.2.3,60.0660504317327,
8,14,14,999,0.5,0:10,3,Green,None,0,0,1,15:50,./completed_changuitos/montage_nxyuf_412.39_354.19.jpg,left,0,0,0,0,,,,,0,1,1,1,,,,,,,,,0,0,0,0,0,15,15,15,,,,,,,,,,,,,,,,,,,,,,,,,,,,,,,,266.6636785448005,None,None,1,266.6636785448005,None,,,,,,,,,,,,,,,,,,,,,,,,,,,,,,,,,,,,,,,,,,,,,,sebaapu,001,c,2019_Nov_15_2326,Experimento,3.2.3,60.0660504317327,
8,14,14,999,0.5,0:10,3,Yellow,['space'],0,0,1,15:50,./completed_changuitos/montage_nxyuf_412.39_354.19.jpg,left,0,0,0,0,,,,,0,1,1,1,,,,,,,,,0,0,0,0,0,16,16,16,,,,,,,,,,,,,,,,,,,,,,,,,,,,,,,,266.6803501667004,None,None,0,266.6803501667004,None,,,,,,,,,,,,,,,,,,,,,,,,,,,,,,,,,,,,,,,,,,,,,,sebaapu,001,c,2019_Nov_15_2326,Experimento,3.2.3,60.0660504317327,
8,14,14,999,0.5,0:10,3,Blue,None,0,0,1,15:50,./completed_changuitos/montage_nxyuf_412.39_354.19.jpg,left,0,0,0,0,,,,,0,1,1,1,,,,,,,,,0,0,0,0,0,17,17,17,,,,,,,,,,,,,,,,,,,,,,,,,,,,,,,,266.6803501667004,None,None,1,266.6803501667004,None,,,,,,,,,,,,,,,,,,,,,,,,,,,,,,,,,,,,,,,,,,,,,,sebaapu,001,c,2019_Nov_15_2326,Experimento,3.2.3,60.0660504317327,
8,14,14,999,0.5,0:10,3,Cyan,None,0,0,1,15:50,./completed_changuitos/montage_nxyuf_412.39_354.19.jpg,left,0,0,0,0,,,,,0,1,1,1,,,,,,,,,0,0,0,0,0,18,18,18,,,,,,,,,,,,,,,,,,,,,,,,,,,,,,,,266.6803501667004,None,None,1,266.6803501667004,None,,,,,,,,,,,,,,,,,,,,,,,,,,,,,,,,,,,,,,,,,,,,,,sebaapu,001,c,2019_Nov_15_2326,Experimento,3.2.3,60.0660504317327,
8,14,14,999,0.5,0:10,3,Blue,['space'],0,0,1,15:50,./completed_changuitos/montage_nxyuf_412.39_354.19.jpg,left,0,0,0,0,,,,,0,1,1,1,,,,,,,,,0,0,0,0,0,19,19,19,,,,,,,,,,,,,,,,,,,,,,,,,,,,,,,,266.6803501667004,None,None,0,266.6803501667004,None,,,,,,,,,,,,,,,,,,,,,,,,,,,,,,,,,,,,,,,,,,,,,,sebaapu,001,c,2019_Nov_15_2326,Experimento,3.2.3,60.0660504317327,
8,14,14,999,0.5,0:10,3,Yellow,None,0,0,1,15:50,./completed_changuitos/montage_nxyuf_412.39_354.19.jpg,left,0,0,0,0,,,,,0,1,1,1,,,,,,,,,0,0,0,0,0,20,20,20,,,,,,,,,,,,,,,,,,,,,,,,,,,,,,,,266.6803501667004,None,None,1,266.6803501667004,None,,,,,,,,,,,,,,,,,,,,,,,,,,,,,,,,,,,,,,,,,,,,,,sebaapu,001,c,2019_Nov_15_2326,Experimento,3.2.3,60.0660504317327,
8,14,14,999,0.5,0:10,3,Cyan,None,0,0,1,15:50,./completed_changuitos/montage_nxyuf_412.39_354.19.jpg,left,0,0,0,0,,,,,0,1,1,1,,,,,,,,,0,0,0,0,0,21,21,21,,,,,,,,,,,,,,,,,,,,,,,,,,,,,,,,266.6803501667004,None,None,1,266.6803501667004,None,,,,,,,,,,,,,,,,,,,,,,,,,,,,,,,,,,,,,,,,,,,,,,sebaapu,001,c,2019_Nov_15_2326,Experimento,3.2.3,60.0660504317327,
8,14,14,999,0.5,0:10,3,Yellow,['space'],0,0,1,15:50,./completed_changuitos/montage_nxyuf_412.39_354.19.jpg,left,0,0,0,0,,,,,0,1,1,1,,,,,,,,,0,0,0,0,0,22,22,22,,,,,,,,,,,,,,,,,,,,,,,,,,,,,,,,266.6803501667004,None,None,0,266.6803501667004,None,,,,,,,,,,,,,,,,,,,,,,,,,,,,,,,,,,,,,,,,,,,,,,sebaapu,001,c,2019_Nov_15_2326,Experimento,3.2.3,60.0660504317327,
8,14,14,999,0.5,0:10,3,Magenta,None,0,0,1,15:50,./completed_changuitos/montage_nxyuf_412.39_354.19.jpg,left,0,0,0,0,,,,,0,1,1,1,,,,,,,,,0,0,0,0,0,23,23,23,,,,,,,,,,,,,,,,,,,,,,,,,,,,,,,,266.6803501667004,None,None,1,266.6803501667004,None,,,,,,,,,,,,,,,,,,,,,,,,,,,,,,,,,,,,,,,,,,,,,,sebaapu,001,c,2019_Nov_15_2326,Experimento,3.2.3,60.0660504317327,
8,14,14,999,0.5,0:10,3,Red,None,0,0,1,15:50,./completed_changuitos/montage_nxyuf_412.39_354.19.jpg,left,0,0,0,0,,,,,0,1,1,1,,,,,,,,,0,0,0,0,0,24,24,24,,,,,,,,,,,,,,,,,,,,,,,,,,,,,,,,266.6803501667004,None,None,1,266.6803501667004,None,,,,,,,,,,,,,,,,,,,,,,,,,,,,,,,,,,,,,,,,,,,,,,sebaapu,001,c,2019_Nov_15_2326,Experimento,3.2.3,60.0660504317327,
8,14,14,999,0.5,0:10,3,Magenta,['space'],0,0,1,15:50,./completed_changuitos/montage_nxyuf_412.39_354.19.jpg,left,0,0,0,0,,,,,0,1,1,1,,,,,,,,,0,0,0,0,0,25,25,25,,,,,,,,,,,,,,,,,,,,,,,,,,,,,,,,266.6803501667004,None,None,0,266.6803501667004,None,,,,,,,,,,,,,,,,,,,,,,,,,,,,,,,,,,,,,,,,,,,,,,sebaapu,001,c,2019_Nov_15_2326,Experimento,3.2.3,60.0660504317327,
8,14,14,999,0.5,0:10,3,Red,['space'],0,0,1,15:50,./completed_changuitos/montage_nxyuf_412.39_354.19.jpg,left,0,0,0,0,,,,,0,1,1,1,,,,,,,,,0,0,0,0,0,26,26,26,,,,,,,,,,,,,,,,,,,,,,,,,,,,,,,,266.6803501667004,None,None,0,266.6803501667004,None,,,,,,,,,,,,,,,,,,,,,,,,,,,,,,,,,,,,,,,,,,,,,,sebaapu,001,c,2019_Nov_15_2326,Experimento,3.2.3,60.0660504317327,
8,14,14,999,0.5,0:10,3,Yellow,None,0,0,1,15:50,./completed_changuitos/montage_nxyuf_412.39_354.19.jpg,left,0,0,0,0,,,,,0,1,1,1,,,,,,,,,0,0,0,0,0,27,27,27,,,,,,,,,,,,,,,,,,,,,,,,,,,,,,,,266.6803501667004,None,None,1,266.6803501667004,None,,,,,,,,,,,,,,,,,,,,,,,,,,,,,,,,,,,,,,,,,,,,,,sebaapu,001,c,2019_Nov_15_2326,Experimento,3.2.3,60.0660504317327,
8,14,14,999,0.5,0:10,3,Cyan,None,0,0,1,15:50,./completed_changuitos/montage_nxyuf_412.39_354.19.jpg,left,0,0,0,0,,,,,0,1,1,1,,,,,,,,,0,0,0,0,0,28,28,28,,,,,,,,,,,,,,,,,,,,,,,,,,,,,,,,266.6803501667004,None,None,1,266.6803501667004,None,,,,,,,,,,,,,,,,,,,,,,,,,,,,,,,,,,,,,,,,,,,,,,sebaapu,001,c,2019_Nov_15_2326,Experimento,3.2.3,60.0660504317327,
8,14,14,999,0.5,0:10,3,Green,None,0,0,1,15:50,./completed_changuitos/montage_nxyuf_412.39_354.19.jpg,left,0,0,0,0,,,,,0,1,1,1,,,,,,,,,0,0,0,0,0,29,29,29,,,,,,,,,,,,,,,,,,,,,,,,,,,,,,,,266.69702178860024,None,None,1,266.69702178860024,None,,,,,,,,,,,,,,,,,,,,,,,,,,,,,,,,,,,,,,,,,,,,,,sebaapu,001,c,2019_Nov_15_2326,Experimento,3.2.3,60.0660504317327,
8,14,14,999,0.5,0:10,3,White,None,0,0,1,15:50,./completed_changuitos/montage_nxyuf_412.39_354.19.jpg,left,0,0,0,0,,,,,0,1,1,1,,,,,,,,,0,0,0,0,0,30,30,30,,,,,,,,,,,,,,,,,,,,,,,,,,,,,,,,266.69702178860024,None,None,1,266.69702178860024,None,,,,,,,,,,,,,,,,,,,,,,,,,,,,,,,,,,,,,,,,,,,,,,sebaapu,001,c,2019_Nov_15_2326,Experimento,3.2.3,60.0660504317327,
8,14,14,999,0.5,0:10,3,Green,['space'],0,0,1,15:50,./completed_changuitos/montage_nxyuf_412.39_354.19.jpg,left,0,0,0,0,,,,,0,1,1,1,,,,,,,,,0,0,0,0,0,31,31,31,,,,,,,,,,,,,,,,,,,,,,,,,,,,,,,,266.69702178860024,None,None,0,266.69702178860024,None,,,,,,,,,,,,,,,,,,,,,,,,,,,,,,,,,,,,,,,,,,,,,,sebaapu,001,c,2019_Nov_15_2326,Experimento,3.2.3,60.0660504317327,
8,14,14,999,0.5,0:10,3,Red,None,0,0,1,15:50,./completed_changuitos/montage_nxyuf_412.39_354.19.jpg,left,0,0,0,0,,,,,0,1,1,1,,,,,,,,,0,0,0,0,0,32,32,32,,,,,,,,,,,,,,,,,,,,,,,,,,,,,,,,266.69702178860024,None,None,1,266.69702178860024,None,,,,,,,,,,,,,,,,,,,,,,,,,,,,,,,,,,,,,,,,,,,,,,sebaapu,001,c,2019_Nov_15_2326,Experimento,3.2.3,60.0660504317327,
8,14,14,999,0.5,0:10,3,Blue,None,0,0,1,15:50,./completed_changuitos/montage_nxyuf_412.39_354.19.jpg,left,0,0,0,0,,,,,0,1,1,1,,,,,,,,,0,0,0,0,0,33,33,33,,,,,,,,,,,,,,,,,,,,,,,,,,,,,,,,266.69702178860024,None,None,1,266.69702178860024,None,,,,,,,,,,,,,,,,,,,,,,,,,,,,,,,,,,,,,,,,,,,,,,sebaapu,001,c,2019_Nov_15_2326,Experimento,3.2.3,60.0660504317327,
8,14,14,999,0.5,0:10,3,Green,None,0,0,1,15:50,./completed_changuitos/montage_nxyuf_412.39_354.19.jpg,left,0,0,0,0,,,,,0,1,1,1,,,,,,,,,0,0,0,0,0,34,34,34,,,,,,,,,,,,,,,,,,,,,,,,,,,,,,,,266.69702178860024,None,None,1,266.69702178860024,None,,,,,,,,,,,,,,,,,,,,,,,,,,,,,,,,,,,,,,,,,,,,,,sebaapu,001,c,2019_Nov_15_2326,Experimento,3.2.3,60.0660504317327,
8,14,14,999,0.5,0:10,3,,,0,0,1,15:50,./completed_changuitos/montage_nxyuf_412.39_354.19.jpg,left,0,0,0,0,,,,,0,1,1,1,,,,,,,,,0,0,0,0,,,,,,,,,,,,,,,,,,,,,,,,,,,,,,,,,,,,,,,,,,266.7302710149961,None,left,1,6.01464342399413,266.7302710149961,None,266.7302710149961,269.72927277800045,,,,,,,,,,,,,,,,,,,,,,,,,,,,,,,,,,,,,sebaapu,001,c,2019_Nov_15_2326,Experimento,3.2.3,60.0660504317327,
8,14,14,999,0.5,0:10,3,,,0,0,1,15:50,,,0,0,0,0,,,,,0,1,1,1,,,,,,,,,,,,,,,,,,,,,,,,,,,,,,,,,,,,,,,,,,,,,,,,,,,,,,,,,,,,,,,,,,,,,,,,,,,,,,,,,,,,,,,,,,,,,,,,,,,sebaapu,001,c,2019_Nov_15_2326,Experimento,3.2.3,60.0660504317327,
8,14,14,999,0.5,0:10,3,Magenta,None,0,0,1,20:50,./completed_changuitos/montage_dxeto_199.9_233.25.jpg,right,0,0,0,0,,,,,0,2,2,2,,,,,,,,,0,0,0,0,0,0,0,0,,,,,,,,,,,,,,,,,,,,,,,,,,,,272.8450071909974,275.9105135179998,275.9105135179998,None,283.9530778190019,284.4575886419989,None,1,283.9530778190019,None,,,,,,,,,,,,,,,,,,,,,,,,,,,,,,,,,,,,,,,,,,,,,,sebaapu,001,c,2019_Nov_15_2326,Experimento,3.2.3,60.0660504317327,
8,14,14,999,0.5,0:10,3,Blue,['space'],0,0,1,20:50,./completed_changuitos/montage_dxeto_199.9_233.25.jpg,right,0,0,0,0,,,,,0,2,2,2,,,,,,,,,0,0,0,0,0,1,1,1,,,,,,,,,,,,,,,,,,,,,,,,,,,,,,,,285.95707717399637,286.45675456499885,None,0,285.95707717399637,285.95707717399637,,,,,,,,,,,,,,,,,,,,,,,,,,,,,,,,,,,,,,,,,,,,,,sebaapu,001,c,2019_Nov_15_2326,Experimento,3.2.3,60.0660504317327,
8,14,14,999,0.5,0:10,3,Cyan,None,0,0,1,20:50,./completed_changuitos/montage_dxeto_199.9_233.25.jpg,right,0,0,0,0,,,,,0,2,2,2,,,,,,,,,0,0,0,0,0,2,2,2,,,,,,,,,,,,,,,,,,,,,,,,,,,,,,,,287.9563882799994,288.45618247200036,None,1,287.9563882799994,287.9563882799994,,,,,,,,,,,,,,,,,,,,,,,,,,,,,,,,,,,,,,,,,,,,,,sebaapu,001,c,2019_Nov_15_2326,Experimento,3.2.3,60.0660504317327,
8,14,14,999,0.5,0:10,3,Yellow,None,0,0,1,20:50,./completed_changuitos/montage_dxeto_199.9_233.25.jpg,right,0,0,0,0,,,,,0,2,2,2,,,,,,,,,0,0,0,0,0,3,3,3,,,,,,,,,,,,,,,,,,,,,,,,,,,,,,,,289.9557654169985,290.45594742799585,None,1,289.9557654169985,289.9557654169985,,,,,,,,,,,,,,,,,,,,,,,,,,,,,,,,,,,,,,,,,,,,,,sebaapu,001,c,2019_Nov_15_2326,Experimento,3.2.3,60.0660504317327,
8,14,14,999,0.5,0:10,3,Cyan,None,0,0,1,20:50,./completed_changuitos/montage_dxeto_199.9_233.25.jpg,right,0,0,0,0,,,,,0,2,2,2,,,,,,,,,0,0,0,0,0,4,4,4,,,,,,,,,,,,,,,,,,,,,,,,,,,,,,,,291.9547111860011,292.45484462199965,None,1,291.9547111860011,291.9547111860011,,,,,,,,,,,,,,,,,,,,,,,,,,,,,,,,,,,,,,,,,,,,,,sebaapu,001,c,2019_Nov_15_2326,Experimento,3.2.3,60.0660504317327,
8,14,14,999,0.5,0:10,3,Blue,None,0,0,1,20:50,./completed_changuitos/montage_dxeto_199.9_233.25.jpg,right,0,0,0,0,,,,,0,2,2,2,,,,,,,,,0,0,0,0,0,5,5,5,,,,,,,,,,,,,,,,,,,,,,,,,,,,,,,,293.95433892800065,294.45414589799475,None,1,293.95433892800065,293.95433892800065,,,,,,,,,,,,,,,,,,,,,,,,,,,,,,,,,,,,,,,,,,,,,,sebaapu,001,c,2019_Nov_15_2326,Experimento,3.2.3,60.0660504317327,
8,14,14,999,0.5,0:10,3,Cyan,['space'],0,0,1,20:50,./completed_changuitos/montage_dxeto_199.9_233.25.jpg,right,0,0,0,0,,,,,0,2,2,2,,,,,,,,,0,0,0,0,0,6,6,6,,,,,,,,,,,,,,,,,,,,,,,,,,,,,,,,295.95369464399846,296.45349326799624,None,0,295.95369464399846,295.95369464399846,,,,,,,,,,,,,,,,,,,,,,,,,,,,,,,,,,,,,,,,,,,,,,sebaapu,001,c,2019_Nov_15_2326,Experimento,3.2.3,60.0660504317327,
8,14,14,999,0.5,0:10,3,Magenta,None,0,0,1,20:50,./completed_changuitos/montage_dxeto_199.9_233.25.jpg,right,0,0,0,0,,,,,0,2,2,2,,,,,,,,,0,0,0,0,0,7,7,7,,,,,,,,,,,,,,,,,,,,,,,,,,,,,,,,297.93635664589675,None,None,1,297.93635664589675,None,,,,,,,,,,,,,,,,,,,,,,,,,,,,,,,,,,,,,,,,,,,,,,sebaapu,001,c,2019_Nov_15_2326,Experimento,3.2.3,60.0660504317327,
8,14,14,999,0.5,0:10,3,Red,None,0,0,1,20:50,./completed_changuitos/montage_dxeto_199.9_233.25.jpg,right,0,0,0,0,,,,,0,2,2,2,,,,,,,,,0,0,0,0,0,8,8,8,,,,,,,,,,,,,,,,,,,,,,,,,,,,,,,,297.93635664589675,None,None,1,297.93635664589675,None,,,,,,,,,,,,,,,,,,,,,,,,,,,,,,,,,,,,,,,,,,,,,,sebaapu,001,c,2019_Nov_15_2326,Experimento,3.2.3,60.0660504317327,
8,14,14,999,0.5,0:10,3,Magenta,['space'],0,0,1,20:50,./completed_changuitos/montage_dxeto_199.9_233.25.jpg,right,0,0,0,0,,,,,0,2,2,2,,,,,,,,,0,0,0,0,0,9,9,9,,,,,,,,,,,,,,,,,,,,,,,,,,,,,,,,297.93635664589675,None,None,0,297.93635664589675,None,,,,,,,,,,,,,,,,,,,,,,,,,,,,,,,,,,,,,,,,,,,,,,sebaapu,001,c,2019_Nov_15_2326,Experimento,3.2.3,60.0660504317327,
8,14,14,999,0.5,0:10,3,Green,None,0,0,1,20:50,./completed_changuitos/montage_dxeto_199.9_233.25.jpg,right,0,0,0,0,,,,,0,2,2,2,,,,,,,,,0,0,0,0,0,10,10,10,,,,,,,,,,,,,,,,,,,,,,,,,,,,,,,,297.93635664589675,None,None,1,297.93635664589675,None,,,,,,,,,,,,,,,,,,,,,,,,,,,,,,,,,,,,,,,,,,,,,,sebaapu,001,c,2019_Nov_15_2326,Experimento,3.2.3,60.0660504317327,
8,14,14,999,0.5,0:10,3,Yellow,['space'],0,0,1,20:50,./completed_changuitos/montage_dxeto_199.9_233.25.jpg,right,0,0,0,0,,,,,0,2,2,2,,,,,,,,,0,0,0,0,0,11,11,11,,,,,,,,,,,,,,,,,,,,,,,,,,,,,,,,297.93635664589675,None,None,0,297.93635664589675,None,,,,,,,,,,,,,,,,,,,,,,,,,,,,,,,,,,,,,,,,,,,,,,sebaapu,001,c,2019_Nov_15_2326,Experimento,3.2.3,60.0660504317327,
8,14,14,999,0.5,0:10,3,Blue,None,0,0,1,20:50,./completed_changuitos/montage_dxeto_199.9_233.25.jpg,right,0,0,0,0,,,,,0,2,2,2,,,,,,,,,0,0,0,0,0,12,12,12,,,,,,,,,,,,,,,,,,,,,,,,,,,,,,,,297.93635664589675,None,None,1,297.93635664589675,None,,,,,,,,,,,,,,,,,,,,,,,,,,,,,,,,,,,,,,,,,,,,,,sebaapu,001,c,2019_Nov_15_2326,Experimento,3.2.3,60.0660504317327,
8,14,14,999,0.5,0:10,3,Cyan,None,0,0,1,20:50,./completed_changuitos/montage_dxeto_199.9_233.25.jpg,right,0,0,0,0,,,,,0,2,2,2,,,,,,,,,0,0,0,0,0,13,13,13,,,,,,,,,,,,,,,,,,,,,,,,,,,,,,,,297.93635664589675,None,None,1,297.93635664589675,None,,,,,,,,,,,,,,,,,,,,,,,,,,,,,,,,,,,,,,,,,,,,,,sebaapu,001,c,2019_Nov_15_2326,Experimento,3.2.3,60.0660504317327,
8,14,14,999,0.5,0:10,3,Blue,['space'],0,0,1,20:50,./completed_changuitos/montage_dxeto_199.9_233.25.jpg,right,0,0,0,0,,,,,0,2,2,2,,,,,,,,,0,0,0,0,0,14,14,14,,,,,,,,,,,,,,,,,,,,,,,,,,,,,,,,297.93635664589675,None,None,0,297.93635664589675,None,,,,,,,,,,,,,,,,,,,,,,,,,,,,,,,,,,,,,,,,,,,,,,sebaapu,001,c,2019_Nov_15_2326,Experimento,3.2.3,60.0660504317327,
8,14,14,999,0.5,0:10,3,Yellow,None,0,0,1,20:50,./completed_changuitos/montage_dxeto_199.9_233.25.jpg,right,0,0,0,0,,,,,0,2,2,2,,,,,,,,,0,0,0,0,0,15,15,15,,,,,,,,,,,,,,,,,,,,,,,,,,,,,,,,297.93635664589675,None,None,1,297.93635664589675,None,,,,,,,,,,,,,,,,,,,,,,,,,,,,,,,,,,,,,,,,,,,,,,sebaapu,001,c,2019_Nov_15_2326,Experimento,3.2.3,60.0660504317327,
8,14,14,999,0.5,0:10,3,Cyan,None,0,0,1,20:50,./completed_changuitos/montage_dxeto_199.9_233.25.jpg,right,0,0,0,0,,,,,0,2,2,2,,,,,,,,,0,0,0,0,0,16,16,16,,,,,,,,,,,,,,,,,,,,,,,,,,,,,,,,297.93635664589675,None,None,1,297.93635664589675,None,,,,,,,,,,,,,,,,,,,,,,,,,,,,,,,,,,,,,,,,,,,,,,sebaapu,001,c,2019_Nov_15_2326,Experimento,3.2.3,60.0660504317327,
8,14,14,999,0.5,0:10,3,Yellow,['space'],0,0,1,20:50,./completed_changuitos/montage_dxeto_199.9_233.25.jpg,right,0,0,0,0,,,,,0,2,2,2,,,,,,,,,0,0,0,0,0,17,17,17,,,,,,,,,,,,,,,,,,,,,,,,,,,,,,,,297.93635664589675,None,None,0,297.93635664589675,None,,,,,,,,,,,,,,,,,,,,,,,,,,,,,,,,,,,,,,,,,,,,,,sebaapu,001,c,2019_Nov_15_2326,Experimento,3.2.3,60.0660504317327,
8,14,14,999,0.5,0:10,3,Magenta,None,0,0,1,20:50,./completed_changuitos/montage_dxeto_199.9_233.25.jpg,right,0,0,0,0,,,,,0,2,2,2,,,,,,,,,0,0,0,0,0,18,18,18,,,,,,,,,,,,,,,,,,,,,,,,,,,,,,,,297.95302826779664,None,None,1,297.95302826779664,None,,,,,,,,,,,,,,,,,,,,,,,,,,,,,,,,,,,,,,,,,,,,,,sebaapu,001,c,2019_Nov_15_2326,Experimento,3.2.3,60.0660504317327,
8,14,14,999,0.5,0:10,3,Red,None,0,0,1,20:50,./completed_changuitos/montage_dxeto_199.9_233.25.jpg,right,0,0,0,0,,,,,0,2,2,2,,,,,,,,,0,0,0,0,0,19,19,19,,,,,,,,,,,,,,,,,,,,,,,,,,,,,,,,297.95302826779664,None,None,1,297.95302826779664,None,,,,,,,,,,,,,,,,,,,,,,,,,,,,,,,,,,,,,,,,,,,,,,sebaapu,001,c,2019_Nov_15_2326,Experimento,3.2.3,60.0660504317327,
8,14,14,999,0.5,0:10,3,Magenta,['space'],0,0,1,20:50,./completed_changuitos/montage_dxeto_199.9_233.25.jpg,right,0,0,0,0,,,,,0,2,2,2,,,,,,,,,0,0,0,0,0,20,20,20,,,,,,,,,,,,,,,,,,,,,,,,,,,,,,,,297.95302826779664,None,None,0,297.95302826779664,None,,,,,,,,,,,,,,,,,,,,,,,,,,,,,,,,,,,,,,,,,,,,,,sebaapu,001,c,2019_Nov_15_2326,Experimento,3.2.3,60.0660504317327,
8,14,14,999,0.5,0:10,3,Red,['space'],0,0,1,20:50,./completed_changuitos/montage_dxeto_199.9_233.25.jpg,right,0,0,0,0,,,,,0,2,2,2,,,,,,,,,0,0,0,0,0,21,21,21,,,,,,,,,,,,,,,,,,,,,,,,,,,,,,,,297.95302826779664,None,None,0,297.95302826779664,None,,,,,,,,,,,,,,,,,,,,,,,,,,,,,,,,,,,,,,,,,,,,,,sebaapu,001,c,2019_Nov_15_2326,Experimento,3.2.3,60.0660504317327,
8,14,14,999,0.5,0:10,3,Yellow,None,0,0,1,20:50,./completed_changuitos/montage_dxeto_199.9_233.25.jpg,right,0,0,0,0,,,,,0,2,2,2,,,,,,,,,0,0,0,0,0,22,22,22,,,,,,,,,,,,,,,,,,,,,,,,,,,,,,,,297.95302826779664,None,None,1,297.95302826779664,None,,,,,,,,,,,,,,,,,,,,,,,,,,,,,,,,,,,,,,,,,,,,,,sebaapu,001,c,2019_Nov_15_2326,Experimento,3.2.3,60.0660504317327,
8,14,14,999,0.5,0:10,3,Cyan,None,0,0,1,20:50,./completed_changuitos/montage_dxeto_199.9_233.25.jpg,right,0,0,0,0,,,,,0,2,2,2,,,,,,,,,0,0,0,0,0,23,23,23,,,,,,,,,,,,,,,,,,,,,,,,,,,,,,,,297.95302826779664,None,None,1,297.95302826779664,None,,,,,,,,,,,,,,,,,,,,,,,,,,,,,,,,,,,,,,,,,,,,,,sebaapu,001,c,2019_Nov_15_2326,Experimento,3.2.3,60.0660504317327,
8,14,14,999,0.5,0:10,3,Green,None,0,0,1,20:50,./completed_changuitos/montage_dxeto_199.9_233.25.jpg,right,0,0,0,0,,,,,0,2,2,2,,,,,,,,,0,0,0,0,0,24,24,24,,,,,,,,,,,,,,,,,,,,,,,,,,,,,,,,297.95302826779664,None,None,1,297.95302826779664,None,,,,,,,,,,,,,,,,,,,,,,,,,,,,,,,,,,,,,,,,,,,,,,sebaapu,001,c,2019_Nov_15_2326,Experimento,3.2.3,60.0660504317327,
8,14,14,999,0.5,0:10,3,White,None,0,0,1,20:50,./completed_changuitos/montage_dxeto_199.9_233.25.jpg,right,0,0,0,0,,,,,0,2,2,2,,,,,,,,,0,0,0,0,0,25,25,25,,,,,,,,,,,,,,,,,,,,,,,,,,,,,,,,297.95302826779664,None,None,1,297.95302826779664,None,,,,,,,,,,,,,,,,,,,,,,,,,,,,,,,,,,,,,,,,,,,,,,sebaapu,001,c,2019_Nov_15_2326,Experimento,3.2.3,60.0660504317327,
8,14,14,999,0.5,0:10,3,Green,['space'],0,0,1,20:50,./completed_changuitos/montage_dxeto_199.9_233.25.jpg,right,0,0,0,0,,,,,0,2,2,2,,,,,,,,,0,0,0,0,0,26,26,26,,,,,,,,,,,,,,,,,,,,,,,,,,,,,,,,297.95302826779664,None,None,0,297.95302826779664,None,,,,,,,,,,,,,,,,,,,,,,,,,,,,,,,,,,,,,,,,,,,,,,sebaapu,001,c,2019_Nov_15_2326,Experimento,3.2.3,60.0660504317327,
8,14,14,999,0.5,0:10,3,Red,None,0,0,1,20:50,./completed_changuitos/montage_dxeto_199.9_233.25.jpg,right,0,0,0,0,,,,,0,2,2,2,,,,,,,,,0,0,0,0,0,27,27,27,,,,,,,,,,,,,,,,,,,,,,,,,,,,,,,,297.95302826779664,None,None,1,297.95302826779664,None,,,,,,,,,,,,,,,,,,,,,,,,,,,,,,,,,,,,,,,,,,,,,,sebaapu,001,c,2019_Nov_15_2326,Experimento,3.2.3,60.0660504317327,
8,14,14,999,0.5,0:10,3,Blue,None,0,0,1,20:50,./completed_changuitos/montage_dxeto_199.9_233.25.jpg,right,0,0,0,0,,,,,0,2,2,2,,,,,,,,,0,0,0,0,0,28,28,28,,,,,,,,,,,,,,,,,,,,,,,,,,,,,,,,297.95302826779664,None,None,1,297.95302826779664,None,,,,,,,,,,,,,,,,,,,,,,,,,,,,,,,,,,,,,,,,,,,,,,sebaapu,001,c,2019_Nov_15_2326,Experimento,3.2.3,60.0660504317327,
8,14,14,999,0.5,0:10,3,Green,None,0,0,1,20:50,./completed_changuitos/montage_dxeto_199.9_233.25.jpg,right,0,0,0,0,,,,,0,2,2,2,,,,,,,,,0,0,0,0,0,29,29,29,,,,,,,,,,,,,,,,,,,,,,,,,,,,,,,,297.95302826779664,None,None,1,297.95302826779664,None,,,,,,,,,,,,,,,,,,,,,,,,,,,,,,,,,,,,,,,,,,,,,,sebaapu,001,c,2019_Nov_15_2326,Experimento,3.2.3,60.0660504317327,
8,14,14,999,0.5,0:10,3,,,0,0,1,20:50,./completed_changuitos/montage_dxeto_199.9_233.25.jpg,right,0,0,0,0,,,,,0,2,2,2,,,,,,,,,0,0,0,0,,,,,,,,,,,,,,,,,,,,,,,,,,,,,,,,,,,,,,,,,,297.99270761200023,None,left,0,5.891001496005629,297.99270761200023,None,297.99270761200023,301.00195240199537,,,,,,,,,,,,,,,,,,,,,,,,,,,,,,,,,,,,,sebaapu,001,c,2019_Nov_15_2326,Experimento,3.2.3,60.0660504317327,
8,14,14,999,0.5,0:10,3,,,0,0,1,20:50,,,0,0,0,0,,,,,0,2,2,2,,,,,,,,,,,,,,,,,,,,,,,,,,,,,,,,,,,,,,,,,,,,,,,,,,,,,,,,,,,,,,,,,,,,,,,,,,,,,,,,,,,,,,,,,,,,,,,,,,,sebaapu,001,c,2019_Nov_15_2326,Experimento,3.2.3,60.0660504317327,
8,14,14,999,0.5,0:10,3,,,0,1,0,25:50,./completed_changuitos/montage_npbnm_124.99_108.59.jpg,left,0,0,0,0,,,,,0,3,3,3,,,,,0,0,0,0,,,,,,,,,,,,,,,,,,,,,304.0157631740003,305.65001486099936,305.65001486099936,313.6642794090003,313.6642794090003,327.6761975269983,right,0,2.0664436669976567,327.6761975269983,None,327.6761975269983,None,327.6761975269983,None,,,,,,,,,,,,,,,,,,,,,,,,,,,,,,,,,,,,,,,,,,,,,,,,,,,,,,,,sebaapu,001,c,2019_Nov_15_2326,Experimento,3.2.3,60.0660504317327,
8,14,14,999,0.5,0:10,3,,,0,1,0,25:50,,,0,0,0,0,,,,,0,3,3,3,,,,,,,,,,,,,,,,,,,,,,,,,,,,,,,,,,,,,,,,,,,,,,,,,,,,,,,,,,,,,,,,,,,,,,,,,,,,,,,,,,,,,,,,,,,,,,,,,,,sebaapu,001,c,2019_Nov_15_2326,Experimento,3.2.3,60.0660504317327,
8,14,14,999,0.5,0:10,3,,,0,1,0,10:50,./completed_changuitos/montage_ssynf_76.85_85.59.jpg,right,0,0,0,0,,,,,0,4,4,4,,,,,0,0,0,0,,,,,,,,,,,,,,,,,,,,,329.8968769849962,333.65711471699615,333.65711471699615,341.67139349100034,341.67139349100034,355.6831864900014,right,1,1.7499768310008221,355.6831864900014,None,355.6831864900014,None,355.6831864900014,None,,,,,,,,,,,,,,,,,,,,,,,,,,,,,,,,,,,,,,,,,,,,,,,,,,,,,,,,sebaapu,001,c,2019_Nov_15_2326,Experimento,3.2.3,60.0660504317327,
8,14,14,999,0.5,0:10,3,,,0,1,0,10:50,,,0,0,0,0,,,,,0,4,4,4,,,,,,,,,,,,,,,,,,,,,,,,,,,,,,,,,,,,,,,,,,,,,,,,,,,,,,,,,,,,,,,,,,,,,,,,,,,,,,,,,,,,,,,,,,,,,,,,,,,sebaapu,001,c,2019_Nov_15_2326,Experimento,3.2.3,60.0660504317327,
8,14,14,999,0.5,0:10,3,,,0,1,0,19:50,./completed_changuitos/montage_pssky_35.5_40.55.jpg,right,0,0,0,0,,,,,0,5,5,5,,,,,0,0,0,0,,,,,,,,,,,,,,,,,,,,,357.5666896440016,360.46500436600036,360.46500436600036,368.4785758520011,368.4785758520011,382.49081440400187,left,0,2.484089319004852,382.49081440400187,None,382.49081440400187,None,382.49081440400187,None,,,,,,,,,,,,,,,,,,,,,,,,,,,,,,,,,,,,,,,,,,,,,,,,,,,,,,,,sebaapu,001,c,2019_Nov_15_2326,Experimento,3.2.3,60.0660504317327,
8,14,14,999,0.5,0:10,3,,,0,1,0,19:50,,,0,0,0,0,,,,,0,5,5,5,,,,,,,,,,,,,,,,,,,,,,,,,,,,,,,,,,,,,,,,,,,,,,,,,,,,,,,,,,,,,,,,,,,,,,,,,,,,,,,,,,,,,,,,,,,,,,,,,,,sebaapu,001,c,2019_Nov_15_2326,Experimento,3.2.3,60.0660504317327,
8,14,14,999,0.5,0:10,3,Red,None,0,0,1,28:50,./completed_changuitos/montage_jnjgs_102.5_90.95.jpg,left,0,0,0,0,,,,,0,6,6,6,,,,,,,,,0,0,0,0,0,0,0,0,,,,,,,,,,,,,,,,,,,,,,,,,,,,385.1081450049969,386.2895199630002,386.2895199630002,None,394.332196055002,394.8366075410013,None,1,394.332196055002,None,,,,,,,,,,,,,,,,,,,,,,,,,,,,,,,,,,,,,,,,,,,,,,sebaapu,001,c,2019_Nov_15_2326,Experimento,3.2.3,60.0660504317327,
8,14,14,999,0.5,0:10,3,Magenta,['space'],0,0,1,28:50,./completed_changuitos/montage_jnjgs_102.5_90.95.jpg,left,0,0,0,0,,,,,0,6,6,6,,,,,,,,,0,0,0,0,0,1,1,1,,,,,,,,,,,,,,,,,,,,,,,,,,,,,,,,396.3357010510008,396.83593496499816,None,0,396.3357010510008,396.3357010510008,,,,,,,,,,,,,,,,,,,,,,,,,,,,,,,,,,,,,,,,,,,,,,sebaapu,001,c,2019_Nov_15_2326,Experimento,3.2.3,60.0660504317327,
8,14,14,999,0.5,0:10,3,Green,None,0,0,1,28:50,./completed_changuitos/montage_jnjgs_102.5_90.95.jpg,left,0,0,0,0,,,,,0,6,6,6,,,,,,,,,0,0,0,0,0,2,2,2,,,,,,,,,,,,,,,,,,,,,,,,,,,,,,,,398.33541679899645,398.8353164559958,None,1,398.33541679899645,398.33541679899645,,,,,,,,,,,,,,,,,,,,,,,,,,,,,,,,,,,,,,,,,,,,,,sebaapu,001,c,2019_Nov_15_2326,Experimento,3.2.3,60.0660504317327,
8,14,14,999,0.5,0:10,3,Yellow,['space'],0,0,1,28:50,./completed_changuitos/montage_jnjgs_102.5_90.95.jpg,left,0,0,0,0,,,,,0,6,6,6,,,,,,,,,0,0,0,0,0,3,3,3,,,,,,,,,,,,,,,,,,,,,,,,,,,,,,,,400.33472313699895,400.83455213900015,None,0,400.33472313699895,400.33472313699895,,,,,,,,,,,,,,,,,,,,,,,,,,,,,,,,,,,,,,,,,,,,,,sebaapu,001,c,2019_Nov_15_2326,Experimento,3.2.3,60.0660504317327,
8,14,14,999,0.5,0:10,3,Blue,None,0,0,1,28:50,./completed_changuitos/montage_jnjgs_102.5_90.95.jpg,left,0,0,0,0,,,,,0,6,6,6,,,,,,,,,0,0,0,0,0,4,4,4,,,,,,,,,,,,,,,,,,,,,,,,,,,,,,,,402.3340406779971,402.8338695709972,None,1,402.3340406779971,402.3340406779971,,,,,,,,,,,,,,,,,,,,,,,,,,,,,,,,,,,,,,,,,,,,,,sebaapu,001,c,2019_Nov_15_2326,Experimento,3.2.3,60.0660504317327,
8,14,14,999,0.5,0:10,3,Cyan,None,0,0,1,28:50,./completed_changuitos/montage_jnjgs_102.5_90.95.jpg,left,0,0,0,0,,,,,0,6,6,6,,,,,,,,,0,0,0,0,0,5,5,5,,,,,,,,,,,,,,,,,,,,,,,,,,,,,,,,404.33335623199673,404.8331984999968,None,1,404.33335623199673,404.33335623199673,,,,,,,,,,,,,,,,,,,,,,,,,,,,,,,,,,,,,,,,,,,,,,sebaapu,001,c,2019_Nov_15_2326,Experimento,3.2.3,60.0660504317327,
8,14,14,999,0.5,0:10,3,Blue,['space'],0,0,1,28:50,./completed_changuitos/montage_jnjgs_102.5_90.95.jpg,left,0,0,0,0,,,,,0,6,6,6,,,,,,,,,0,0,0,0,0,6,6,6,,,,,,,,,,,,,,,,,,,,,,,,,,,,,,,,406.33267566599534,406.83251459899475,['return'],0,406.33267566599534,406.33267566599534,,,,,,,,,,[0.6337510599987581],,,,,,,,,,,,,,,,,,,,,,,,,,,,,,,,,,,,sebaapu,001,c,2019_Nov_15_2326,Experimento,3.2.3,60.0660504317327,
8,14,14,999,0.5,0:10,3,Yellow,None,0,0,1,28:50,./completed_changuitos/montage_jnjgs_102.5_90.95.jpg,left,0,0,0,0,,,,,0,6,6,6,,,,,,,,,0,0,0,0,0,7,7,7,,,,,,,,,,,,,,,,,,,,,,,,,,,,,,,,408.31535896589486,None,None,1,408.31535896589486,None,,,,,,,,,,,,,,,,,,,,,,,,,,,,,,,,,,,,,,,,,,,,,,sebaapu,001,c,2019_Nov_15_2326,Experimento,3.2.3,60.0660504317327,
8,14,14,999,0.5,0:10,3,Cyan,None,0,0,1,28:50,./completed_changuitos/montage_jnjgs_102.5_90.95.jpg,left,0,0,0,0,,,,,0,6,6,6,,,,,,,,,0,0,0,0,0,8,8,8,,,,,,,,,,,,,,,,,,,,,,,,,,,,,,,,408.31535896589486,None,None,1,408.31535896589486,None,,,,,,,,,,,,,,,,,,,,,,,,,,,,,,,,,,,,,,,,,,,,,,sebaapu,001,c,2019_Nov_15_2326,Experimento,3.2.3,60.0660504317327,
8,14,14,999,0.5,0:10,3,Yellow,['space'],0,0,1,28:50,./completed_changuitos/montage_jnjgs_102.5_90.95.jpg,left,0,0,0,0,,,,,0,6,6,6,,,,,,,,,0,0,0,0,0,9,9,9,,,,,,,,,,,,,,,,,,,,,,,,,,,,,,,,408.31535896589486,None,None,0,408.31535896589486,None,,,,,,,,,,,,,,,,,,,,,,,,,,,,,,,,,,,,,,,,,,,,,,sebaapu,001,c,2019_Nov_15_2326,Experimento,3.2.3,60.0660504317327,
8,14,14,999,0.5,0:10,3,Magenta,None,0,0,1,28:50,./completed_changuitos/montage_jnjgs_102.5_90.95.jpg,left,0,0,0,0,,,,,0,6,6,6,,,,,,,,,0,0,0,0,0,10,10,10,,,,,,,,,,,,,,,,,,,,,,,,,,,,,,,,408.31535896589486,None,None,1,408.31535896589486,None,,,,,,,,,,,,,,,,,,,,,,,,,,,,,,,,,,,,,,,,,,,,,,sebaapu,001,c,2019_Nov_15_2326,Experimento,3.2.3,60.0660504317327,
8,14,14,999,0.5,0:10,3,Red,None,0,0,1,28:50,./completed_changuitos/montage_jnjgs_102.5_90.95.jpg,left,0,0,0,0,,,,,0,6,6,6,,,,,,,,,0,0,0,0,0,11,11,11,,,,,,,,,,,,,,,,,,,,,,,,,,,,,,,,408.33203058779475,None,None,1,408.33203058779475,None,,,,,,,,,,,,,,,,,,,,,,,,,,,,,,,,,,,,,,,,,,,,,,sebaapu,001,c,2019_Nov_15_2326,Experimento,3.2.3,60.0660504317327,
8,14,14,999,0.5,0:10,3,Magenta,['space'],0,0,1,28:50,./completed_changuitos/montage_jnjgs_102.5_90.95.jpg,left,0,0,0,0,,,,,0,6,6,6,,,,,,,,,0,0,0,0,0,12,12,12,,,,,,,,,,,,,,,,,,,,,,,,,,,,,,,,408.33203058779475,None,None,0,408.33203058779475,None,,,,,,,,,,,,,,,,,,,,,,,,,,,,,,,,,,,,,,,,,,,,,,sebaapu,001,c,2019_Nov_15_2326,Experimento,3.2.3,60.0660504317327,
8,14,14,999,0.5,0:10,3,Red,['space'],0,0,1,28:50,./completed_changuitos/montage_jnjgs_102.5_90.95.jpg,left,0,0,0,0,,,,,0,6,6,6,,,,,,,,,0,0,0,0,0,13,13,13,,,,,,,,,,,,,,,,,,,,,,,,,,,,,,,,408.33203058779475,None,None,0,408.33203058779475,None,,,,,,,,,,,,,,,,,,,,,,,,,,,,,,,,,,,,,,,,,,,,,,sebaapu,001,c,2019_Nov_15_2326,Experimento,3.2.3,60.0660504317327,
8,14,14,999,0.5,0:10,3,Yellow,None,0,0,1,28:50,./completed_changuitos/montage_jnjgs_102.5_90.95.jpg,left,0,0,0,0,,,,,0,6,6,6,,,,,,,,,0,0,0,0,0,14,14,14,,,,,,,,,,,,,,,,,,,,,,,,,,,,,,,,408.33203058779475,None,None,1,408.33203058779475,None,,,,,,,,,,,,,,,,,,,,,,,,,,,,,,,,,,,,,,,,,,,,,,sebaapu,001,c,2019_Nov_15_2326,Experimento,3.2.3,60.0660504317327,
8,14,14,999,0.5,0:10,3,Cyan,None,0,0,1,28:50,./completed_changuitos/montage_jnjgs_102.5_90.95.jpg,left,0,0,0,0,,,,,0,6,6,6,,,,,,,,,0,0,0,0,0,15,15,15,,,,,,,,,,,,,,,,,,,,,,,,,,,,,,,,408.33203058779475,None,None,1,408.33203058779475,None,,,,,,,,,,,,,,,,,,,,,,,,,,,,,,,,,,,,,,,,,,,,,,sebaapu,001,c,2019_Nov_15_2326,Experimento,3.2.3,60.0660504317327,
8,14,14,999,0.5,0:10,3,Green,None,0,0,1,28:50,./completed_changuitos/montage_jnjgs_102.5_90.95.jpg,left,0,0,0,0,,,,,0,6,6,6,,,,,,,,,0,0,0,0,0,16,16,16,,,,,,,,,,,,,,,,,,,,,,,,,,,,,,,,408.34870220969464,None,None,1,408.34870220969464,None,,,,,,,,,,,,,,,,,,,,,,,,,,,,,,,,,,,,,,,,,,,,,,sebaapu,001,c,2019_Nov_15_2326,Experimento,3.2.3,60.0660504317327,
8,14,14,999,0.5,0:10,3,White,None,0,0,1,28:50,./completed_changuitos/montage_jnjgs_102.5_90.95.jpg,left,0,0,0,0,,,,,0,6,6,6,,,,,,,,,0,0,0,0,0,17,17,17,,,,,,,,,,,,,,,,,,,,,,,,,,,,,,,,408.34870220969464,None,None,1,408.34870220969464,None,,,,,,,,,,,,,,,,,,,,,,,,,,,,,,,,,,,,,,,,,,,,,,sebaapu,001,c,2019_Nov_15_2326,Experimento,3.2.3,60.0660504317327,
8,14,14,999,0.5,0:10,3,Green,['space'],0,0,1,28:50,./completed_changuitos/montage_jnjgs_102.5_90.95.jpg,left,0,0,0,0,,,,,0,6,6,6,,,,,,,,,0,0,0,0,0,18,18,18,,,,,,,,,,,,,,,,,,,,,,,,,,,,,,,,408.34870220969464,None,None,0,408.34870220969464,None,,,,,,,,,,,,,,,,,,,,,,,,,,,,,,,,,,,,,,,,,,,,,,sebaapu,001,c,2019_Nov_15_2326,Experimento,3.2.3,60.0660504317327,
8,14,14,999,0.5,0:10,3,Red,None,0,0,1,28:50,./completed_changuitos/montage_jnjgs_102.5_90.95.jpg,left,0,0,0,0,,,,,0,6,6,6,,,,,,,,,0,0,0,0,0,19,19,19,,,,,,,,,,,,,,,,,,,,,,,,,,,,,,,,408.34870220969464,None,None,1,408.34870220969464,None,,,,,,,,,,,,,,,,,,,,,,,,,,,,,,,,,,,,,,,,,,,,,,sebaapu,001,c,2019_Nov_15_2326,Experimento,3.2.3,60.0660504317327,
8,14,14,999,0.5,0:10,3,Blue,None,0,0,1,28:50,./completed_changuitos/montage_jnjgs_102.5_90.95.jpg,left,0,0,0,0,,,,,0,6,6,6,,,,,,,,,0,0,0,0,0,20,20,20,,,,,,,,,,,,,,,,,,,,,,,,,,,,,,,,408.34870220969464,None,None,1,408.34870220969464,None,,,,,,,,,,,,,,,,,,,,,,,,,,,,,,,,,,,,,,,,,,,,,,sebaapu,001,c,2019_Nov_15_2326,Experimento,3.2.3,60.0660504317327,
8,14,14,999,0.5,0:10,3,Green,None,0,0,1,28:50,./completed_changuitos/montage_jnjgs_102.5_90.95.jpg,left,0,0,0,0,,,,,0,6,6,6,,,,,,,,,0,0,0,0,0,21,21,21,,,,,,,,,,,,,,,,,,,,,,,,,,,,,,,,408.34870220969464,None,None,1,408.34870220969464,None,,,,,,,,,,,,,,,,,,,,,,,,,,,,,,,,,,,,,,,,,,,,,,sebaapu,001,c,2019_Nov_15_2326,Experimento,3.2.3,60.0660504317327,
8,14,14,999,0.5,0:10,3,,,0,0,1,28:50,./completed_changuitos/montage_jnjgs_102.5_90.95.jpg,left,0,0,0,0,,,,,0,6,6,6,,,,,,,,,0,0,0,0,,,,,,,,,,,,,,,,,,,,,,,,,,,,,,,,,,,,,,,,,,408.3847936289967,None,left,1,1.8459931809993577,408.3847936289967,None,408.3847936289967,None,,,,,,,,,,,,,,,,,,,,,,,,,,,,,,,,,,,,,sebaapu,001,c,2019_Nov_15_2326,Experimento,3.2.3,60.0660504317327,
8,14,14,999,0.5,0:10,3,,,0,0,1,28:50,,,0,0,0,0,,,,,0,6,6,6,,,,,,,,,,,,,,,,,,,,,,,,,,,,,,,,,,,,,,,,,,,,,,,,,,,,,,,,,,,,,,,,,,,,,,,,,,,,,,,,,,,,,,,,,,,,,,,,,,,sebaapu,001,c,2019_Nov_15_2326,Experimento,3.2.3,60.0660504317327,
8,14,14,999,0.5,0:10,3,,,0,1,0,19:50,./completed_changuitos/montage_ibzoh_85.49_74.89.jpg,left,0,0,0,0,,,,,0,7,7,7,,,,,0,0,0,0,,,,,,,,,,,,,,,,,,,,,410.3677073049985,411.3976220389959,411.3976220389959,419.4115725149968,419.4115725149968,433.42344007599604,right,0,1.1502024209985393,433.42344007599604,None,433.42344007599604,None,433.42344007599604,None,,,,,,,,,,,,,,,,,,,,,,,,,,,,,,,,,,,,,,,,,,,,,,,,,,,,,,,,sebaapu,001,c,2019_Nov_15_2326,Experimento,3.2.3,60.0660504317327,
8,14,14,999,0.5,0:10,3,,,0,1,0,19:50,,,0,0,0,0,,,,,0,7,7,7,,,,,,,,,,,,,,,,,,,,,,,,,,,,,,,,,,,,,,,,,,,,,,,,,,,,,,,,,,,,,,,,,,,,,,,,,,,,,,,,,,,,,,,,,,,,,,,,,,,sebaapu,001,c,2019_Nov_15_2326,Experimento,3.2.3,60.0660504317327,
8,14,14,999,0.5,0:10,3,Magenta,None,0,0,1,20:50,./completed_changuitos/montage_lpedy_55.65_47.09.jpg,left,0,0,0,0,,,,,0,8,8,8,,,,,,,,,0,0,0,0,0,0,0,0,,,,,,,,,,,,,,,,,,,,,,,,,,,,434.70908089099976,436.3891036720015,436.3891036720015,None,444.432189248997,444.93620969999756,None,1,444.432189248997,None,,,,,,,,,,,,,,,,,,,,,,,,,,,,,,,,,,,,,,,,,,,,,,sebaapu,001,c,2019_Nov_15_2326,Experimento,3.2.3,60.0660504317327,
8,14,14,999,0.5,0:10,3,Blue,['space'],0,0,1,20:50,./completed_changuitos/montage_lpedy_55.65_47.09.jpg,left,0,0,0,0,,,,,0,8,8,8,,,,,,,,,0,0,0,0,0,1,1,1,,,,,,,,,,,,,,,,,,,,,,,,,,,,,,,,446.43570215100044,446.93553450799664,None,0,446.43570215100044,446.43570215100044,,,,,,,,,,,,,,,,,,,,,,,,,,,,,,,,,,,,,,,,,,,,,,sebaapu,001,c,2019_Nov_15_2326,Experimento,3.2.3,60.0660504317327,
8,14,14,999,0.5,0:10,3,Cyan,None,0,0,1,20:50,./completed_changuitos/montage_lpedy_55.65_47.09.jpg,left,0,0,0,0,,,,,0,8,8,8,,,,,,,,,0,0,0,0,0,2,2,2,,,,,,,,,,,,,,,,,,,,,,,,,,,,,,,,448.4346751139965,448.9348120719951,None,1,448.4346751139965,448.4346751139965,,,,,,,,,,,,,,,,,,,,,,,,,,,,,,,,,,,,,,,,,,,,,,sebaapu,001,c,2019_Nov_15_2326,Experimento,3.2.3,60.0660504317327,
8,14,14,999,0.5,0:10,3,Yellow,None,0,0,1,20:50,./completed_changuitos/montage_lpedy_55.65_47.09.jpg,left,0,0,0,0,,,,,0,8,8,8,,,,,,,,,0,0,0,0,0,3,3,3,,,,,,,,,,,,,,,,,,,,,,,,,,,,,,,,450.4343263049959,450.93415892999474,None,1,450.4343263049959,450.4343263049959,,,,,,,,,,,,,,,,,,,,,,,,,,,,,,,,,,,,,,,,,,,,,,sebaapu,001,c,2019_Nov_15_2326,Experimento,3.2.3,60.0660504317327,
8,14,14,999,0.5,0:10,3,Cyan,None,0,0,1,20:50,./completed_changuitos/montage_lpedy_55.65_47.09.jpg,left,0,0,0,0,,,,,0,8,8,8,,,,,,,,,0,0,0,0,0,4,4,4,,,,,,,,,,,,,,,,,,,,,,,,,,,,,,,,452.4336317519992,452.9334640369998,['return'],0,452.4336317519992,452.4336317519992,,,,,,,,,,[0.7170354209956713],,,,,,,,,,,,,,,,,,,,,,,,,,,,,,,,,,,,sebaapu,001,c,2019_Nov_15_2326,Experimento,3.2.3,60.0660504317327,
8,14,14,999,0.5,0:10,3,Blue,None,0,0,1,20:50,./completed_changuitos/montage_lpedy_55.65_47.09.jpg,left,0,0,0,0,,,,,0,8,8,8,,,,,,,,,0,0,0,0,0,5,5,5,,,,,,,,,,,,,,,,,,,,,,,,,,,,,,,,454.44937487599964,454.94904737699835,None,1,454.44937487599964,454.44937487599964,,,,,,,,,,,,,,,,,,,,,,,,,,,,,,,,,,,,,,,,,,,,,,sebaapu,001,c,2019_Nov_15_2326,Experimento,3.2.3,60.0660504317327,
8,14,14,999,0.5,0:10,3,Cyan,['space'],0,0,1,20:50,./completed_changuitos/montage_lpedy_55.65_47.09.jpg,left,0,0,0,0,,,,,0,8,8,8,,,,,,,,,0,0,0,0,0,6,6,6,,,,,,,,,,,,,,,,,,,,,,,,,,,,,,,,456.448937647001,456.94875769499777,['return'],0,456.448937647001,456.448937647001,,,,,,,,,,[0.6171146699998644],,,,,,,,,,,,,,,,,,,,,,,,,,,,,,,,,,,,sebaapu,001,c,2019_Nov_15_2326,Experimento,3.2.3,60.0660504317327,
8,14,14,999,0.5,0:10,3,Magenta,None,0,0,1,20:50,./completed_changuitos/montage_lpedy_55.65_47.09.jpg,left,0,0,0,0,,,,,0,8,8,8,,,,,,,,,0,0,0,0,0,7,7,7,,,,,,,,,,,,,,,,,,,,,,,,,,,,,,,,458.414937338898,None,None,1,458.414937338898,None,,,,,,,,,,,,,,,,,,,,,,,,,,,,,,,,,,,,,,,,,,,,,,sebaapu,001,c,2019_Nov_15_2326,Experimento,3.2.3,60.0660504317327,
8,14,14,999,0.5,0:10,3,Red,None,0,0,1,20:50,./completed_changuitos/montage_lpedy_55.65_47.09.jpg,left,0,0,0,0,,,,,0,8,8,8,,,,,,,,,0,0,0,0,0,8,8,8,,,,,,,,,,,,,,,,,,,,,,,,,,,,,,,,458.414937338898,None,None,1,458.414937338898,None,,,,,,,,,,,,,,,,,,,,,,,,,,,,,,,,,,,,,,,,,,,,,,sebaapu,001,c,2019_Nov_15_2326,Experimento,3.2.3,60.0660504317327,
8,14,14,999,0.5,0:10,3,Magenta,['space'],0,0,1,20:50,./completed_changuitos/montage_lpedy_55.65_47.09.jpg,left,0,0,0,0,,,,,0,8,8,8,,,,,,,,,0,0,0,0,0,9,9,9,,,,,,,,,,,,,,,,,,,,,,,,,,,,,,,,458.414937338898,None,None,0,458.414937338898,None,,,,,,,,,,,,,,,,,,,,,,,,,,,,,,,,,,,,,,,,,,,,,,sebaapu,001,c,2019_Nov_15_2326,Experimento,3.2.3,60.0660504317327,
8,14,14,999,0.5,0:10,3,Green,None,0,0,1,20:50,./completed_changuitos/montage_lpedy_55.65_47.09.jpg,left,0,0,0,0,,,,,0,8,8,8,,,,,,,,,0,0,0,0,0,10,10,10,,,,,,,,,,,,,,,,,,,,,,,,,,,,,,,,458.414937338898,None,None,1,458.414937338898,None,,,,,,,,,,,,,,,,,,,,,,,,,,,,,,,,,,,,,,,,,,,,,,sebaapu,001,c,2019_Nov_15_2326,Experimento,3.2.3,60.0660504317327,
8,14,14,999,0.5,0:10,3,Yellow,['space'],0,0,1,20:50,./completed_changuitos/montage_lpedy_55.65_47.09.jpg,left,0,0,0,0,,,,,0,8,8,8,,,,,,,,,0,0,0,0,0,11,11,11,,,,,,,,,,,,,,,,,,,,,,,,,,,,,,,,458.414937338898,None,None,0,458.414937338898,None,,,,,,,,,,,,,,,,,,,,,,,,,,,,,,,,,,,,,,,,,,,,,,sebaapu,001,c,2019_Nov_15_2326,Experimento,3.2.3,60.0660504317327,
8,14,14,999,0.5,0:10,3,Blue,None,0,0,1,20:50,./completed_changuitos/montage_lpedy_55.65_47.09.jpg,left,0,0,0,0,,,,,0,8,8,8,,,,,,,,,0,0,0,0,0,12,12,12,,,,,,,,,,,,,,,,,,,,,,,,,,,,,,,,458.414937338898,None,None,1,458.414937338898,None,,,,,,,,,,,,,,,,,,,,,,,,,,,,,,,,,,,,,,,,,,,,,,sebaapu,001,c,2019_Nov_15_2326,Experimento,3.2.3,60.0660504317327,
8,14,14,999,0.5,0:10,3,Cyan,None,0,0,1,20:50,./completed_changuitos/montage_lpedy_55.65_47.09.jpg,left,0,0,0,0,,,,,0,8,8,8,,,,,,,,,0,0,0,0,0,13,13,13,,,,,,,,,,,,,,,,,,,,,,,,,,,,,,,,458.414937338898,None,None,1,458.414937338898,None,,,,,,,,,,,,,,,,,,,,,,,,,,,,,,,,,,,,,,,,,,,,,,sebaapu,001,c,2019_Nov_15_2326,Experimento,3.2.3,60.0660504317327,
8,14,14,999,0.5,0:10,3,Blue,['space'],0,0,1,20:50,./completed_changuitos/montage_lpedy_55.65_47.09.jpg,left,0,0,0,0,,,,,0,8,8,8,,,,,,,,,0,0,0,0,0,14,14,14,,,,,,,,,,,,,,,,,,,,,,,,,,,,,,,,458.414937338898,None,None,0,458.414937338898,None,,,,,,,,,,,,,,,,,,,,,,,,,,,,,,,,,,,,,,,,,,,,,,sebaapu,001,c,2019_Nov_15_2326,Experimento,3.2.3,60.0660504317327,
8,14,14,999,0.5,0:10,3,Yellow,None,0,0,1,20:50,./completed_changuitos/montage_lpedy_55.65_47.09.jpg,left,0,0,0,0,,,,,0,8,8,8,,,,,,,,,0,0,0,0,0,15,15,15,,,,,,,,,,,,,,,,,,,,,,,,,,,,,,,,458.414937338898,None,None,1,458.414937338898,None,,,,,,,,,,,,,,,,,,,,,,,,,,,,,,,,,,,,,,,,,,,,,,sebaapu,001,c,2019_Nov_15_2326,Experimento,3.2.3,60.0660504317327,
8,14,14,999,0.5,0:10,3,Cyan,None,0,0,1,20:50,./completed_changuitos/montage_lpedy_55.65_47.09.jpg,left,0,0,0,0,,,,,0,8,8,8,,,,,,,,,0,0,0,0,0,16,16,16,,,,,,,,,,,,,,,,,,,,,,,,,,,,,,,,458.414937338898,None,None,1,458.414937338898,None,,,,,,,,,,,,,,,,,,,,,,,,,,,,,,,,,,,,,,,,,,,,,,sebaapu,001,c,2019_Nov_15_2326,Experimento,3.2.3,60.0660504317327,
8,14,14,999,0.5,0:10,3,Yellow,['space'],0,0,1,20:50,./completed_changuitos/montage_lpedy_55.65_47.09.jpg,left,0,0,0,0,,,,,0,8,8,8,,,,,,,,,0,0,0,0,0,17,17,17,,,,,,,,,,,,,,,,,,,,,,,,,,,,,,,,458.414937338898,None,None,0,458.414937338898,None,,,,,,,,,,,,,,,,,,,,,,,,,,,,,,,,,,,,,,,,,,,,,,sebaapu,001,c,2019_Nov_15_2326,Experimento,3.2.3,60.0660504317327,
8,14,14,999,0.5,0:10,3,Magenta,None,0,0,1,20:50,./completed_changuitos/montage_lpedy_55.65_47.09.jpg,left,0,0,0,0,,,,,0,8,8,8,,,,,,,,,0,0,0,0,0,18,18,18,,,,,,,,,,,,,,,,,,,,,,,,,,,,,,,,458.4316089607979,None,None,1,458.4316089607979,None,,,,,,,,,,,,,,,,,,,,,,,,,,,,,,,,,,,,,,,,,,,,,,sebaapu,001,c,2019_Nov_15_2326,Experimento,3.2.3,60.0660504317327,
8,14,14,999,0.5,0:10,3,Red,None,0,0,1,20:50,./completed_changuitos/montage_lpedy_55.65_47.09.jpg,left,0,0,0,0,,,,,0,8,8,8,,,,,,,,,0,0,0,0,0,19,19,19,,,,,,,,,,,,,,,,,,,,,,,,,,,,,,,,458.4316089607979,None,None,1,458.4316089607979,None,,,,,,,,,,,,,,,,,,,,,,,,,,,,,,,,,,,,,,,,,,,,,,sebaapu,001,c,2019_Nov_15_2326,Experimento,3.2.3,60.0660504317327,
8,14,14,999,0.5,0:10,3,Magenta,['space'],0,0,1,20:50,./completed_changuitos/montage_lpedy_55.65_47.09.jpg,left,0,0,0,0,,,,,0,8,8,8,,,,,,,,,0,0,0,0,0,20,20,20,,,,,,,,,,,,,,,,,,,,,,,,,,,,,,,,458.4316089607979,None,None,0,458.4316089607979,None,,,,,,,,,,,,,,,,,,,,,,,,,,,,,,,,,,,,,,,,,,,,,,sebaapu,001,c,2019_Nov_15_2326,Experimento,3.2.3,60.0660504317327,
8,14,14,999,0.5,0:10,3,Red,['space'],0,0,1,20:50,./completed_changuitos/montage_lpedy_55.65_47.09.jpg,left,0,0,0,0,,,,,0,8,8,8,,,,,,,,,0,0,0,0,0,21,21,21,,,,,,,,,,,,,,,,,,,,,,,,,,,,,,,,458.4316089607979,None,None,0,458.4316089607979,None,,,,,,,,,,,,,,,,,,,,,,,,,,,,,,,,,,,,,,,,,,,,,,sebaapu,001,c,2019_Nov_15_2326,Experimento,3.2.3,60.0660504317327,
8,14,14,999,0.5,0:10,3,Yellow,None,0,0,1,20:50,./completed_changuitos/montage_lpedy_55.65_47.09.jpg,left,0,0,0,0,,,,,0,8,8,8,,,,,,,,,0,0,0,0,0,22,22,22,,,,,,,,,,,,,,,,,,,,,,,,,,,,,,,,458.4316089607979,None,None,1,458.4316089607979,None,,,,,,,,,,,,,,,,,,,,,,,,,,,,,,,,,,,,,,,,,,,,,,sebaapu,001,c,2019_Nov_15_2326,Experimento,3.2.3,60.0660504317327,
8,14,14,999,0.5,0:10,3,Cyan,None,0,0,1,20:50,./completed_changuitos/montage_lpedy_55.65_47.09.jpg,left,0,0,0,0,,,,,0,8,8,8,,,,,,,,,0,0,0,0,0,23,23,23,,,,,,,,,,,,,,,,,,,,,,,,,,,,,,,,458.4316089607979,None,None,1,458.4316089607979,None,,,,,,,,,,,,,,,,,,,,,,,,,,,,,,,,,,,,,,,,,,,,,,sebaapu,001,c,2019_Nov_15_2326,Experimento,3.2.3,60.0660504317327,
8,14,14,999,0.5,0:10,3,Green,None,0,0,1,20:50,./completed_changuitos/montage_lpedy_55.65_47.09.jpg,left,0,0,0,0,,,,,0,8,8,8,,,,,,,,,0,0,0,0,0,24,24,24,,,,,,,,,,,,,,,,,,,,,,,,,,,,,,,,458.4316089607979,None,None,1,458.4316089607979,None,,,,,,,,,,,,,,,,,,,,,,,,,,,,,,,,,,,,,,,,,,,,,,sebaapu,001,c,2019_Nov_15_2326,Experimento,3.2.3,60.0660504317327,
8,14,14,999,0.5,0:10,3,White,None,0,0,1,20:50,./completed_changuitos/montage_lpedy_55.65_47.09.jpg,left,0,0,0,0,,,,,0,8,8,8,,,,,,,,,0,0,0,0,0,25,25,25,,,,,,,,,,,,,,,,,,,,,,,,,,,,,,,,458.4316089607979,None,None,1,458.4316089607979,None,,,,,,,,,,,,,,,,,,,,,,,,,,,,,,,,,,,,,,,,,,,,,,sebaapu,001,c,2019_Nov_15_2326,Experimento,3.2.3,60.0660504317327,
8,14,14,999,0.5,0:10,3,Green,['space'],0,0,1,20:50,./completed_changuitos/montage_lpedy_55.65_47.09.jpg,left,0,0,0,0,,,,,0,8,8,8,,,,,,,,,0,0,0,0,0,26,26,26,,,,,,,,,,,,,,,,,,,,,,,,,,,,,,,,458.4316089607979,None,None,0,458.4316089607979,None,,,,,,,,,,,,,,,,,,,,,,,,,,,,,,,,,,,,,,,,,,,,,,sebaapu,001,c,2019_Nov_15_2326,Experimento,3.2.3,60.0660504317327,
8,14,14,999,0.5,0:10,3,Red,None,0,0,1,20:50,./completed_changuitos/montage_lpedy_55.65_47.09.jpg,left,0,0,0,0,,,,,0,8,8,8,,,,,,,,,0,0,0,0,0,27,27,27,,,,,,,,,,,,,,,,,,,,,,,,,,,,,,,,458.4316089607979,None,None,1,458.4316089607979,None,,,,,,,,,,,,,,,,,,,,,,,,,,,,,,,,,,,,,,,,,,,,,,sebaapu,001,c,2019_Nov_15_2326,Experimento,3.2.3,60.0660504317327,
8,14,14,999,0.5,0:10,3,Blue,None,0,0,1,20:50,./completed_changuitos/montage_lpedy_55.65_47.09.jpg,left,0,0,0,0,,,,,0,8,8,8,,,,,,,,,0,0,0,0,0,28,28,28,,,,,,,,,,,,,,,,,,,,,,,,,,,,,,,,458.4316089607979,None,None,1,458.4316089607979,None,,,,,,,,,,,,,,,,,,,,,,,,,,,,,,,,,,,,,,,,,,,,,,sebaapu,001,c,2019_Nov_15_2326,Experimento,3.2.3,60.0660504317327,
8,14,14,999,0.5,0:10,3,Green,None,0,0,1,20:50,./completed_changuitos/montage_lpedy_55.65_47.09.jpg,left,0,0,0,0,,,,,0,8,8,8,,,,,,,,,0,0,0,0,0,29,29,29,,,,,,,,,,,,,,,,,,,,,,,,,,,,,,,,458.4316089607979,None,None,1,458.4316089607979,None,,,,,,,,,,,,,,,,,,,,,,,,,,,,,,,,,,,,,,,,,,,,,,sebaapu,001,c,2019_Nov_15_2326,Experimento,3.2.3,60.0660504317327,
8,14,14,999,0.5,0:10,3,,,0,0,1,20:50,./completed_changuitos/montage_lpedy_55.65_47.09.jpg,left,0,0,0,0,,,,,0,8,8,8,,,,,,,,,0,0,0,0,,,,,,,,,,,,,,,,,,,,,,,,,,,,,,,,,,,,,,,,,,458.4751582719982,None,left,1,1.9554059759975644,458.4751582719982,None,458.4751582719982,None,,,,,,,,,,,,,,,,,,,,,,,,,,,,,,,,,,,,,sebaapu,001,c,2019_Nov_15_2326,Experimento,3.2.3,60.0660504317327,
8,14,14,999,0.5,0:10,3,,,0,0,1,20:50,,,0,0,0,0,,,,,0,8,8,8,,,,,,,,,,,,,,,,,,,,,,,,,,,,,,,,,,,,,,,,,,,,,,,,,,,,,,,,,,,,,,,,,,,,,,,,,,,,,,,,,,,,,,,,,,,,,,,,,,,sebaapu,001,c,2019_Nov_15_2326,Experimento,3.2.3,60.0660504317327,
8,14,14,999,0.5,0:10,3,Yellow,None,0,0,1,15:50,./completed_changuitos/montage_flzhn_131.6_149.79.jpg,right,0,0,0,0,,,,,0,9,9,9,,,,,,,,,0,0,0,0,0,0,0,0,,,,,,,,,,,,,,,,,,,,,,,,,,,,460.53080848499667,462.0969991739985,462.0969991739985,None,470.13864852099505,470.64411971299705,None,1,470.13864852099505,None,,,,,,,,,,,,,,,,,,,,,,,,,,,,,,,,,,,,,,,,,,,,,,sebaapu,001,c,2019_Nov_15_2326,Experimento,3.2.3,60.0660504317327,
8,14,14,999,0.5,0:10,3,White,['space'],0,0,1,15:50,./completed_changuitos/montage_flzhn_131.6_149.79.jpg,right,0,0,0,0,,,,,0,9,9,9,,,,,,,,,0,0,0,0,0,1,1,1,,,,,,,,,,,,,,,,,,,,,,,,,,,,,,,,472.1453790559972,472.6600884419968,None,0,472.1453790559972,472.1453790559972,,,,,,,,,,,,,,,,,,,,,,,,,,,,,,,,,,,,,,,,,,,,,,sebaapu,001,c,2019_Nov_15_2326,Experimento,3.2.3,60.0660504317327,
8,14,14,999,0.5,0:10,3,Magenta,None,0,0,1,15:50,./completed_changuitos/montage_flzhn_131.6_149.79.jpg,right,0,0,0,0,,,,,0,9,9,9,,,,,,,,,0,0,0,0,0,2,2,2,,,,,,,,,,,,,,,,,,,,,,,,,,,,,,,,474.1595731959969,474.65938292899955,None,1,474.1595731959969,474.1595731959969,,,,,,,,,,,,,,,,,,,,,,,,,,,,,,,,,,,,,,,,,,,,,,sebaapu,001,c,2019_Nov_15_2326,Experimento,3.2.3,60.0660504317327,
8,14,14,999,0.5,0:10,3,Cyan,None,0,0,1,15:50,./completed_changuitos/montage_flzhn_131.6_149.79.jpg,right,0,0,0,0,,,,,0,9,9,9,,,,,,,,,0,0,0,0,0,3,3,3,,,,,,,,,,,,,,,,,,,,,,,,,,,,,,,,476.15888714500034,476.6583726309982,None,1,476.15888714500034,476.15888714500034,,,,,,,,,,,,,,,,,,,,,,,,,,,,,,,,,,,,,,,,,,,,,,sebaapu,001,c,2019_Nov_15_2326,Experimento,3.2.3,60.0660504317327,
8,14,14,999,0.5,0:10,3,Blue,None,0,0,1,15:50,./completed_changuitos/montage_flzhn_131.6_149.79.jpg,right,0,0,0,0,,,,,0,9,9,9,,,,,,,,,0,0,0,0,0,4,4,4,,,,,,,,,,,,,,,,,,,,,,,,,,,,,,,,478.15818387299805,478.6580526839971,None,1,478.15818387299805,478.15818387299805,,,,,,,,,,,,,,,,,,,,,,,,,,,,,,,,,,,,,,,,,,,,,,sebaapu,001,c,2019_Nov_15_2326,Experimento,3.2.3,60.0660504317327,
8,14,14,999,0.5,0:10,3,Magenta,None,0,0,1,15:50,./completed_changuitos/montage_flzhn_131.6_149.79.jpg,right,0,0,0,0,,,,,0,9,9,9,,,,,,,,,0,0,0,0,0,5,5,5,,,,,,,,,,,,,,,,,,,,,,,,,,,,,,,,480.15717635799956,480.65733348100184,['return'],0,480.15717635799956,480.15717635799956,,,,,,,,,,[0.9341781390030519],,,,,,,,,,,,,,,,,,,,,,,,,,,,,,,,,,,,sebaapu,001,c,2019_Nov_15_2326,Experimento,3.2.3,60.0660504317327,
8,14,14,999,0.5,0:10,3,Blue,['space'],0,0,1,15:50,./completed_changuitos/montage_flzhn_131.6_149.79.jpg,right,0,0,0,0,,,,,0,9,9,9,,,,,,,,,0,0,0,0,0,6,6,6,,,,,,,,,,,,,,,,,,,,,,,,,,,,,,,,482.15683012700174,482.65665582600195,['return'],0,482.15683012700174,482.15683012700174,,,,,,,,,,[0.9496072969996021],,,,,,,,,,,,,,,,,,,,,,,,,,,,,,,,,,,,sebaapu,001,c,2019_Nov_15_2326,Experimento,3.2.3,60.0660504317327,
8,14,14,999,0.5,0:10,3,Cyan,None,0,0,1,15:50,./completed_changuitos/montage_flzhn_131.6_149.79.jpg,right,0,0,0,0,,,,,0,9,9,9,,,,,,,,,0,0,0,0,0,7,7,7,,,,,,,,,,,,,,,,,,,,,,,,,,,,,,,,484.1228084838993,None,None,1,484.1228084838993,None,,,,,,,,,,,,,,,,,,,,,,,,,,,,,,,,,,,,,,,,,,,,,,sebaapu,001,c,2019_Nov_15_2326,Experimento,3.2.3,60.0660504317327,
8,14,14,999,0.5,0:10,3,Yellow,None,0,0,1,15:50,./completed_changuitos/montage_flzhn_131.6_149.79.jpg,right,0,0,0,0,,,,,0,9,9,9,,,,,,,,,0,0,0,0,0,8,8,8,,,,,,,,,,,,,,,,,,,,,,,,,,,,,,,,484.1228084838993,None,None,1,484.1228084838993,None,,,,,,,,,,,,,,,,,,,,,,,,,,,,,,,,,,,,,,,,,,,,,,sebaapu,001,c,2019_Nov_15_2326,Experimento,3.2.3,60.0660504317327,
8,14,14,999,0.5,0:10,3,Cyan,None,0,0,1,15:50,./completed_changuitos/montage_flzhn_131.6_149.79.jpg,right,0,0,0,0,,,,,0,9,9,9,,,,,,,,,0,0,0,0,0,9,9,9,,,,,,,,,,,,,,,,,,,,,,,,,,,,,,,,484.1228084838993,None,None,1,484.1228084838993,None,,,,,,,,,,,,,,,,,,,,,,,,,,,,,,,,,,,,,,,,,,,,,,sebaapu,001,c,2019_Nov_15_2326,Experimento,3.2.3,60.0660504317327,
8,14,14,999,0.5,0:10,3,Blue,None,0,0,1,15:50,./completed_changuitos/montage_flzhn_131.6_149.79.jpg,right,0,0,0,0,,,,,0,9,9,9,,,,,,,,,0,0,0,0,0,10,10,10,,,,,,,,,,,,,,,,,,,,,,,,,,,,,,,,484.1228084838993,None,None,1,484.1228084838993,None,,,,,,,,,,,,,,,,,,,,,,,,,,,,,,,,,,,,,,,,,,,,,,sebaapu,001,c,2019_Nov_15_2326,Experimento,3.2.3,60.0660504317327,
8,14,14,999,0.5,0:10,3,Cyan,['space'],0,0,1,15:50,./completed_changuitos/montage_flzhn_131.6_149.79.jpg,right,0,0,0,0,,,,,0,9,9,9,,,,,,,,,0,0,0,0,0,11,11,11,,,,,,,,,,,,,,,,,,,,,,,,,,,,,,,,484.1228084838993,None,None,0,484.1228084838993,None,,,,,,,,,,,,,,,,,,,,,,,,,,,,,,,,,,,,,,,,,,,,,,sebaapu,001,c,2019_Nov_15_2326,Experimento,3.2.3,60.0660504317327,
8,14,14,999,0.5,0:10,3,Magenta,None,0,0,1,15:50,./completed_changuitos/montage_flzhn_131.6_149.79.jpg,right,0,0,0,0,,,,,0,9,9,9,,,,,,,,,0,0,0,0,0,12,12,12,,,,,,,,,,,,,,,,,,,,,,,,,,,,,,,,484.1228084838993,None,None,1,484.1228084838993,None,,,,,,,,,,,,,,,,,,,,,,,,,,,,,,,,,,,,,,,,,,,,,,sebaapu,001,c,2019_Nov_15_2326,Experimento,3.2.3,60.0660504317327,
8,14,14,999,0.5,0:10,3,Red,None,0,0,1,15:50,./completed_changuitos/montage_flzhn_131.6_149.79.jpg,right,0,0,0,0,,,,,0,9,9,9,,,,,,,,,0,0,0,0,0,13,13,13,,,,,,,,,,,,,,,,,,,,,,,,,,,,,,,,484.1228084838993,None,None,1,484.1228084838993,None,,,,,,,,,,,,,,,,,,,,,,,,,,,,,,,,,,,,,,,,,,,,,,sebaapu,001,c,2019_Nov_15_2326,Experimento,3.2.3,60.0660504317327,
8,14,14,999,0.5,0:10,3,Magenta,['space'],0,0,1,15:50,./completed_changuitos/montage_flzhn_131.6_149.79.jpg,right,0,0,0,0,,,,,0,9,9,9,,,,,,,,,0,0,0,0,0,14,14,14,,,,,,,,,,,,,,,,,,,,,,,,,,,,,,,,484.1228084838993,None,None,0,484.1228084838993,None,,,,,,,,,,,,,,,,,,,,,,,,,,,,,,,,,,,,,,,,,,,,,,sebaapu,001,c,2019_Nov_15_2326,Experimento,3.2.3,60.0660504317327,
8,14,14,999,0.5,0:10,3,Green,None,0,0,1,15:50,./completed_changuitos/montage_flzhn_131.6_149.79.jpg,right,0,0,0,0,,,,,0,9,9,9,,,,,,,,,0,0,0,0,0,15,15,15,,,,,,,,,,,,,,,,,,,,,,,,,,,,,,,,484.1228084838993,None,None,1,484.1228084838993,None,,,,,,,,,,,,,,,,,,,,,,,,,,,,,,,,,,,,,,,,,,,,,,sebaapu,001,c,2019_Nov_15_2326,Experimento,3.2.3,60.0660504317327,
8,14,14,999,0.5,0:10,3,Yellow,['space'],0,0,1,15:50,./completed_changuitos/montage_flzhn_131.6_149.79.jpg,right,0,0,0,0,,,,,0,9,9,9,,,,,,,,,0,0,0,0,0,16,16,16,,,,,,,,,,,,,,,,,,,,,,,,,,,,,,,,484.1228084838993,None,None,0,484.1228084838993,None,,,,,,,,,,,,,,,,,,,,,,,,,,,,,,,,,,,,,,,,,,,,,,sebaapu,001,c,2019_Nov_15_2326,Experimento,3.2.3,60.0660504317327,
8,14,14,999,0.5,0:10,3,Blue,None,0,0,1,15:50,./completed_changuitos/montage_flzhn_131.6_149.79.jpg,right,0,0,0,0,,,,,0,9,9,9,,,,,,,,,0,0,0,0,0,17,17,17,,,,,,,,,,,,,,,,,,,,,,,,,,,,,,,,484.1228084838993,None,None,1,484.1228084838993,None,,,,,,,,,,,,,,,,,,,,,,,,,,,,,,,,,,,,,,,,,,,,,,sebaapu,001,c,2019_Nov_15_2326,Experimento,3.2.3,60.0660504317327,
8,14,14,999,0.5,0:10,3,Cyan,None,0,0,1,15:50,./completed_changuitos/montage_flzhn_131.6_149.79.jpg,right,0,0,0,0,,,,,0,9,9,9,,,,,,,,,0,0,0,0,0,18,18,18,,,,,,,,,,,,,,,,,,,,,,,,,,,,,,,,484.1394801057992,None,None,1,484.1394801057992,None,,,,,,,,,,,,,,,,,,,,,,,,,,,,,,,,,,,,,,,,,,,,,,sebaapu,001,c,2019_Nov_15_2326,Experimento,3.2.3,60.0660504317327,
8,14,14,999,0.5,0:10,3,Blue,['space'],0,0,1,15:50,./completed_changuitos/montage_flzhn_131.6_149.79.jpg,right,0,0,0,0,,,,,0,9,9,9,,,,,,,,,0,0,0,0,0,19,19,19,,,,,,,,,,,,,,,,,,,,,,,,,,,,,,,,484.1394801057992,None,None,0,484.1394801057992,None,,,,,,,,,,,,,,,,,,,,,,,,,,,,,,,,,,,,,,,,,,,,,,sebaapu,001,c,2019_Nov_15_2326,Experimento,3.2.3,60.0660504317327,
8,14,14,999,0.5,0:10,3,Yellow,None,0,0,1,15:50,./completed_changuitos/montage_flzhn_131.6_149.79.jpg,right,0,0,0,0,,,,,0,9,9,9,,,,,,,,,0,0,0,0,0,20,20,20,,,,,,,,,,,,,,,,,,,,,,,,,,,,,,,,484.1394801057992,None,None,1,484.1394801057992,None,,,,,,,,,,,,,,,,,,,,,,,,,,,,,,,,,,,,,,,,,,,,,,sebaapu,001,c,2019_Nov_15_2326,Experimento,3.2.3,60.0660504317327,
8,14,14,999,0.5,0:10,3,Cyan,None,0,0,1,15:50,./completed_changuitos/montage_flzhn_131.6_149.79.jpg,right,0,0,0,0,,,,,0,9,9,9,,,,,,,,,0,0,0,0,0,21,21,21,,,,,,,,,,,,,,,,,,,,,,,,,,,,,,,,484.1394801057992,None,None,1,484.1394801057992,None,,,,,,,,,,,,,,,,,,,,,,,,,,,,,,,,,,,,,,,,,,,,,,sebaapu,001,c,2019_Nov_15_2326,Experimento,3.2.3,60.0660504317327,
8,14,14,999,0.5,0:10,3,Yellow,['space'],0,0,1,15:50,./completed_changuitos/montage_flzhn_131.6_149.79.jpg,right,0,0,0,0,,,,,0,9,9,9,,,,,,,,,0,0,0,0,0,22,22,22,,,,,,,,,,,,,,,,,,,,,,,,,,,,,,,,484.1394801057992,None,None,0,484.1394801057992,None,,,,,,,,,,,,,,,,,,,,,,,,,,,,,,,,,,,,,,,,,,,,,,sebaapu,001,c,2019_Nov_15_2326,Experimento,3.2.3,60.0660504317327,
8,14,14,999,0.5,0:10,3,Magenta,None,0,0,1,15:50,./completed_changuitos/montage_flzhn_131.6_149.79.jpg,right,0,0,0,0,,,,,0,9,9,9,,,,,,,,,0,0,0,0,0,23,23,23,,,,,,,,,,,,,,,,,,,,,,,,,,,,,,,,484.1394801057992,None,None,1,484.1394801057992,None,,,,,,,,,,,,,,,,,,,,,,,,,,,,,,,,,,,,,,,,,,,,,,sebaapu,001,c,2019_Nov_15_2326,Experimento,3.2.3,60.0660504317327,
8,14,14,999,0.5,0:10,3,Red,None,0,0,1,15:50,./completed_changuitos/montage_flzhn_131.6_149.79.jpg,right,0,0,0,0,,,,,0,9,9,9,,,,,,,,,0,0,0,0,0,24,24,24,,,,,,,,,,,,,,,,,,,,,,,,,,,,,,,,484.1394801057992,None,None,1,484.1394801057992,None,,,,,,,,,,,,,,,,,,,,,,,,,,,,,,,,,,,,,,,,,,,,,,sebaapu,001,c,2019_Nov_15_2326,Experimento,3.2.3,60.0660504317327,
8,14,14,999,0.5,0:10,3,Magenta,['space'],0,0,1,15:50,./completed_changuitos/montage_flzhn_131.6_149.79.jpg,right,0,0,0,0,,,,,0,9,9,9,,,,,,,,,0,0,0,0,0,25,25,25,,,,,,,,,,,,,,,,,,,,,,,,,,,,,,,,484.1394801057992,None,None,0,484.1394801057992,None,,,,,,,,,,,,,,,,,,,,,,,,,,,,,,,,,,,,,,,,,,,,,,sebaapu,001,c,2019_Nov_15_2326,Experimento,3.2.3,60.0660504317327,
8,14,14,999,0.5,0:10,3,Red,['space'],0,0,1,15:50,./completed_changuitos/montage_flzhn_131.6_149.79.jpg,right,0,0,0,0,,,,,0,9,9,9,,,,,,,,,0,0,0,0,0,26,26,26,,,,,,,,,,,,,,,,,,,,,,,,,,,,,,,,484.1394801057992,None,None,0,484.1394801057992,None,,,,,,,,,,,,,,,,,,,,,,,,,,,,,,,,,,,,,,,,,,,,,,sebaapu,001,c,2019_Nov_15_2326,Experimento,3.2.3,60.0660504317327,
8,14,14,999,0.5,0:10,3,Yellow,None,0,0,1,15:50,./completed_changuitos/montage_flzhn_131.6_149.79.jpg,right,0,0,0,0,,,,,0,9,9,9,,,,,,,,,0,0,0,0,0,27,27,27,,,,,,,,,,,,,,,,,,,,,,,,,,,,,,,,484.1394801057992,None,None,1,484.1394801057992,None,,,,,,,,,,,,,,,,,,,,,,,,,,,,,,,,,,,,,,,,,,,,,,sebaapu,001,c,2019_Nov_15_2326,Experimento,3.2.3,60.0660504317327,
8,14,14,999,0.5,0:10,3,Cyan,None,0,0,1,15:50,./completed_changuitos/montage_flzhn_131.6_149.79.jpg,right,0,0,0,0,,,,,0,9,9,9,,,,,,,,,0,0,0,0,0,28,28,28,,,,,,,,,,,,,,,,,,,,,,,,,,,,,,,,484.1394801057992,None,None,1,484.1394801057992,None,,,,,,,,,,,,,,,,,,,,,,,,,,,,,,,,,,,,,,,,,,,,,,sebaapu,001,c,2019_Nov_15_2326,Experimento,3.2.3,60.0660504317327,
8,14,14,999,0.5,0:10,3,Green,None,0,0,1,15:50,./completed_changuitos/montage_flzhn_131.6_149.79.jpg,right,0,0,0,0,,,,,0,9,9,9,,,,,,,,,0,0,0,0,0,29,29,29,,,,,,,,,,,,,,,,,,,,,,,,,,,,,,,,484.1394801057992,None,None,1,484.1394801057992,None,,,,,,,,,,,,,,,,,,,,,,,,,,,,,,,,,,,,,,,,,,,,,,sebaapu,001,c,2019_Nov_15_2326,Experimento,3.2.3,60.0660504317327,
8,14,14,999,0.5,0:10,3,White,None,0,0,1,15:50,./completed_changuitos/montage_flzhn_131.6_149.79.jpg,right,0,0,0,0,,,,,0,9,9,9,,,,,,,,,0,0,0,0,0,30,30,30,,,,,,,,,,,,,,,,,,,,,,,,,,,,,,,,484.1394801057992,None,None,1,484.1394801057992,None,,,,,,,,,,,,,,,,,,,,,,,,,,,,,,,,,,,,,,,,,,,,,,sebaapu,001,c,2019_Nov_15_2326,Experimento,3.2.3,60.0660504317327,
8,14,14,999,0.5,0:10,3,Green,['space'],0,0,1,15:50,./completed_changuitos/montage_flzhn_131.6_149.79.jpg,right,0,0,0,0,,,,,0,9,9,9,,,,,,,,,0,0,0,0,0,31,31,31,,,,,,,,,,,,,,,,,,,,,,,,,,,,,,,,484.1394801057992,None,None,0,484.1394801057992,None,,,,,,,,,,,,,,,,,,,,,,,,,,,,,,,,,,,,,,,,,,,,,,sebaapu,001,c,2019_Nov_15_2326,Experimento,3.2.3,60.0660504317327,
8,14,14,999,0.5,0:10,3,Red,None,0,0,1,15:50,./completed_changuitos/montage_flzhn_131.6_149.79.jpg,right,0,0,0,0,,,,,0,9,9,9,,,,,,,,,0,0,0,0,0,32,32,32,,,,,,,,,,,,,,,,,,,,,,,,,,,,,,,,484.1394801057992,None,None,1,484.1394801057992,None,,,,,,,,,,,,,,,,,,,,,,,,,,,,,,,,,,,,,,,,,,,,,,sebaapu,001,c,2019_Nov_15_2326,Experimento,3.2.3,60.0660504317327,
8,14,14,999,0.5,0:10,3,Blue,None,0,0,1,15:50,./completed_changuitos/montage_flzhn_131.6_149.79.jpg,right,0,0,0,0,,,,,0,9,9,9,,,,,,,,,0,0,0,0,0,33,33,33,,,,,,,,,,,,,,,,,,,,,,,,,,,,,,,,484.15615172769907,None,None,1,484.15615172769907,None,,,,,,,,,,,,,,,,,,,,,,,,,,,,,,,,,,,,,,,,,,,,,,sebaapu,001,c,2019_Nov_15_2326,Experimento,3.2.3,60.0660504317327,
8,14,14,999,0.5,0:10,3,Green,None,0,0,1,15:50,./completed_changuitos/montage_flzhn_131.6_149.79.jpg,right,0,0,0,0,,,,,0,9,9,9,,,,,,,,,0,0,0,0,0,34,34,34,,,,,,,,,,,,,,,,,,,,,,,,,,,,,,,,484.15615172769907,None,None,1,484.15615172769907,None,,,,,,,,,,,,,,,,,,,,,,,,,,,,,,,,,,,,,,,,,,,,,,sebaapu,001,c,2019_Nov_15_2326,Experimento,3.2.3,60.0660504317327,
8,14,14,999,0.5,0:10,3,,,0,0,1,15:50,./completed_changuitos/montage_flzhn_131.6_149.79.jpg,right,0,0,0,0,,,,,0,9,9,9,,,,,,,,,0,0,0,0,,,,,,,,,,,,,,,,,,,,,,,,,,,,,,,,,,,,,,,,,,484.18394591000106,None,left,0,1.9539769100010744,484.18394591000106,None,484.18394591000106,None,,,,,,,,,,,,,,,,,,,,,,,,,,,,,,,,,,,,,sebaapu,001,c,2019_Nov_15_2326,Experimento,3.2.3,60.0660504317327,
8,14,14,999,0.5,0:10,3,,,0,0,1,15:50,,,0,0,0,0,,,,,0,9,9,9,,,,,,,,,,,,,,,,,,,,,,,,,,,,,,,,,,,,,,,,,,,,,,,,,,,,,,,,,,,,,,,,,,,,,,,,,,,,,,,,,,,,,,,,,,,,,,,,,,,sebaapu,001,c,2019_Nov_15_2326,Experimento,3.2.3,60.0660504317327,
8,14,14,999,0.5,0:10,3,,,0,1,0,25:50,./completed_changuitos/montage_lxbrt_36.29_41.75.jpg,right,0,0,0,0,,,,,0,10,10,10,,,,,0,0,0,0,,,,,,,,,,,,,,,,,,,,,486.2713884409968,487.67166287599684,487.67166287599684,495.68553886199516,495.68553886199516,509.69745162600157,right,1,1.066841486004705,509.69745162600157,None,509.69745162600157,None,509.69745162600157,None,,,,,,,,,,,,,,,,,,,,,,,,,,,,,,,,,,,,,,,,,,,,,,,,,,,,,,,,sebaapu,001,c,2019_Nov_15_2326,Experimento,3.2.3,60.0660504317327,
8,14,14,999,0.5,0:10,3,,,0,1,0,25:50,,,0,0,0,0,,,,,0,10,10,10,,,,,,,,,,,,,,,,,,,,,,,,,,,,,,,,,,,,,,,,,,,,,,,,,,,,,,,,,,,,,,,,,,,,,,,,,,,,,,,,,,,,,,,,,,,,,,,,,,,sebaapu,001,c,2019_Nov_15_2326,Experimento,3.2.3,60.0660504317327,
8,14,14,999,0.5,0:10,3,Red,None,0,0,1,28:50,./completed_changuitos/montage_ljeyz_44.95_39.59.jpg,left,0,0,0,0,,,,,0,11,11,11,,,,,,,,,0,0,0,0,0,0,0,0,,,,,,,,,,,,,,,,,,,,,,,,,,,,510.8795962110016,514.6457516899973,514.6457516899973,None,522.6636208029959,523.1761838469974,None,1,522.6636208029959,None,,,,,,,,,,,,,,,,,,,,,,,,,,,,,,,,,,,,,,,,,,,,,,sebaapu,001,c,2019_Nov_15_2326,Experimento,3.2.3,60.0660504317327,
8,14,14,999,0.5,0:10,3,Magenta,['space'],0,0,1,28:50,./completed_changuitos/montage_ljeyz_44.95_39.59.jpg,left,0,0,0,0,,,,,0,11,11,11,,,,,,,,,0,0,0,0,0,1,1,1,,,,,,,,,,,,,,,,,,,,,,,,,,,,,,,,524.6756871949983,525.1754969190006,None,0,524.6756871949983,524.6756871949983,,,,,,,,,,,,,,,,,,,,,,,,,,,,,,,,,,,,,,,,,,,,,,sebaapu,001,c,2019_Nov_15_2326,Experimento,3.2.3,60.0660504317327,
8,14,14,999,0.5,0:10,3,Green,None,0,0,1,28:50,./completed_changuitos/montage_ljeyz_44.95_39.59.jpg,left,0,0,0,0,,,,,0,11,11,11,,,,,,,,,0,0,0,0,0,2,2,2,,,,,,,,,,,,,,,,,,,,,,,,,,,,,,,,526.6916565520005,527.1914287199979,None,1,526.6916565520005,526.6916565520005,,,,,,,,,,,,,,,,,,,,,,,,,,,,,,,,,,,,,,,,,,,,,,sebaapu,001,c,2019_Nov_15_2326,Experimento,3.2.3,60.0660504317327,
8,14,14,999,0.5,0:10,3,Yellow,['space'],0,0,1,28:50,./completed_changuitos/montage_ljeyz_44.95_39.59.jpg,left,0,0,0,0,,,,,0,11,11,11,,,,,,,,,0,0,0,0,0,3,3,3,,,,,,,,,,,,,,,,,,,,,,,,,,,,,,,,528.6909548859985,529.1907343810017,None,0,528.6909548859985,528.6909548859985,,,,,,,,,,,,,,,,,,,,,,,,,,,,,,,,,,,,,,,,,,,,,,sebaapu,001,c,2019_Nov_15_2326,Experimento,3.2.3,60.0660504317327,
8,14,14,999,0.5,0:10,3,Blue,None,0,0,1,28:50,./completed_changuitos/montage_ljeyz_44.95_39.59.jpg,left,0,0,0,0,,,,,0,11,11,11,,,,,,,,,0,0,0,0,0,4,4,4,,,,,,,,,,,,,,,,,,,,,,,,,,,,,,,,530.6902578549998,531.1900689190006,None,1,530.6902578549998,530.6902578549998,,,,,,,,,,,,,,,,,,,,,,,,,,,,,,,,,,,,,,,,,,,,,,sebaapu,001,c,2019_Nov_15_2326,Experimento,3.2.3,60.0660504317327,
8,14,14,999,0.5,0:10,3,Cyan,None,0,0,1,28:50,./completed_changuitos/montage_ljeyz_44.95_39.59.jpg,left,0,0,0,0,,,,,0,11,11,11,,,,,,,,,0,0,0,0,0,5,5,5,,,,,,,,,,,,,,,,,,,,,,,,,,,,,,,,532.6895820259961,533.1894096399992,None,1,532.6895820259961,532.6895820259961,,,,,,,,,,,,,,,,,,,,,,,,,,,,,,,,,,,,,,,,,,,,,,sebaapu,001,c,2019_Nov_15_2326,Experimento,3.2.3,60.0660504317327,
8,14,14,999,0.5,0:10,3,Blue,['space'],0,0,1,28:50,./completed_changuitos/montage_ljeyz_44.95_39.59.jpg,left,0,0,0,0,,,,,0,11,11,11,,,,,,,,,0,0,0,0,0,6,6,6,,,,,,,,,,,,,,,,,,,,,,,,,,,,,,,,534.6888698019975,535.1887405019952,['return'],0,534.6888698019975,534.6888698019975,,,,,,,,,,[0.6004006259972812],,,,,,,,,,,,,,,,,,,,,,,,,,,,,,,,,,,,sebaapu,001,c,2019_Nov_15_2326,Experimento,3.2.3,60.0660504317327,
8,14,14,999,0.5,0:10,3,Yellow,None,0,0,1,28:50,./completed_changuitos/montage_ljeyz_44.95_39.59.jpg,left,0,0,0,0,,,,,0,11,11,11,,,,,,,,,0,0,0,0,0,7,7,7,,,,,,,,,,,,,,,,,,,,,,,,,,,,,,,,536.6715941529008,None,None,1,536.6715941529008,None,,,,,,,,,,,,,,,,,,,,,,,,,,,,,,,,,,,,,,,,,,,,,,sebaapu,001,c,2019_Nov_15_2326,Experimento,3.2.3,60.0660504317327,
8,14,14,999,0.5,0:10,3,Cyan,None,0,0,1,28:50,./completed_changuitos/montage_ljeyz_44.95_39.59.jpg,left,0,0,0,0,,,,,0,11,11,11,,,,,,,,,0,0,0,0,0,8,8,8,,,,,,,,,,,,,,,,,,,,,,,,,,,,,,,,536.6715941529008,None,None,1,536.6715941529008,None,,,,,,,,,,,,,,,,,,,,,,,,,,,,,,,,,,,,,,,,,,,,,,sebaapu,001,c,2019_Nov_15_2326,Experimento,3.2.3,60.0660504317327,
8,14,14,999,0.5,0:10,3,Yellow,['space'],0,0,1,28:50,./completed_changuitos/montage_ljeyz_44.95_39.59.jpg,left,0,0,0,0,,,,,0,11,11,11,,,,,,,,,0,0,0,0,0,9,9,9,,,,,,,,,,,,,,,,,,,,,,,,,,,,,,,,536.6715941529008,None,None,0,536.6715941529008,None,,,,,,,,,,,,,,,,,,,,,,,,,,,,,,,,,,,,,,,,,,,,,,sebaapu,001,c,2019_Nov_15_2326,Experimento,3.2.3,60.0660504317327,
8,14,14,999,0.5,0:10,3,Magenta,None,0,0,1,28:50,./completed_changuitos/montage_ljeyz_44.95_39.59.jpg,left,0,0,0,0,,,,,0,11,11,11,,,,,,,,,0,0,0,0,0,10,10,10,,,,,,,,,,,,,,,,,,,,,,,,,,,,,,,,536.6715941529008,None,None,1,536.6715941529008,None,,,,,,,,,,,,,,,,,,,,,,,,,,,,,,,,,,,,,,,,,,,,,,sebaapu,001,c,2019_Nov_15_2326,Experimento,3.2.3,60.0660504317327,
8,14,14,999,0.5,0:10,3,Red,None,0,0,1,28:50,./completed_changuitos/montage_ljeyz_44.95_39.59.jpg,left,0,0,0,0,,,,,0,11,11,11,,,,,,,,,0,0,0,0,0,11,11,11,,,,,,,,,,,,,,,,,,,,,,,,,,,,,,,,536.6715941529008,None,None,1,536.6715941529008,None,,,,,,,,,,,,,,,,,,,,,,,,,,,,,,,,,,,,,,,,,,,,,,sebaapu,001,c,2019_Nov_15_2326,Experimento,3.2.3,60.0660504317327,
8,14,14,999,0.5,0:10,3,Magenta,['space'],0,0,1,28:50,./completed_changuitos/montage_ljeyz_44.95_39.59.jpg,left,0,0,0,0,,,,,0,11,11,11,,,,,,,,,0,0,0,0,0,12,12,12,,,,,,,,,,,,,,,,,,,,,,,,,,,,,,,,536.6715941529008,None,None,0,536.6715941529008,None,,,,,,,,,,,,,,,,,,,,,,,,,,,,,,,,,,,,,,,,,,,,,,sebaapu,001,c,2019_Nov_15_2326,Experimento,3.2.3,60.0660504317327,
8,14,14,999,0.5,0:10,3,Red,['space'],0,0,1,28:50,./completed_changuitos/montage_ljeyz_44.95_39.59.jpg,left,0,0,0,0,,,,,0,11,11,11,,,,,,,,,0,0,0,0,0,13,13,13,,,,,,,,,,,,,,,,,,,,,,,,,,,,,,,,536.6715941529008,None,None,0,536.6715941529008,None,,,,,,,,,,,,,,,,,,,,,,,,,,,,,,,,,,,,,,,,,,,,,,sebaapu,001,c,2019_Nov_15_2326,Experimento,3.2.3,60.0660504317327,
8,14,14,999,0.5,0:10,3,Yellow,None,0,0,1,28:50,./completed_changuitos/montage_ljeyz_44.95_39.59.jpg,left,0,0,0,0,,,,,0,11,11,11,,,,,,,,,0,0,0,0,0,14,14,14,,,,,,,,,,,,,,,,,,,,,,,,,,,,,,,,536.6715941529008,None,None,1,536.6715941529008,None,,,,,,,,,,,,,,,,,,,,,,,,,,,,,,,,,,,,,,,,,,,,,,sebaapu,001,c,2019_Nov_15_2326,Experimento,3.2.3,60.0660504317327,
8,14,14,999,0.5,0:10,3,Cyan,None,0,0,1,28:50,./completed_changuitos/montage_ljeyz_44.95_39.59.jpg,left,0,0,0,0,,,,,0,11,11,11,,,,,,,,,0,0,0,0,0,15,15,15,,,,,,,,,,,,,,,,,,,,,,,,,,,,,,,,536.6715941529008,None,None,1,536.6715941529008,None,,,,,,,,,,,,,,,,,,,,,,,,,,,,,,,,,,,,,,,,,,,,,,sebaapu,001,c,2019_Nov_15_2326,Experimento,3.2.3,60.0660504317327,
8,14,14,999,0.5,0:10,3,Green,None,0,0,1,28:50,./completed_changuitos/montage_ljeyz_44.95_39.59.jpg,left,0,0,0,0,,,,,0,11,11,11,,,,,,,,,0,0,0,0,0,16,16,16,,,,,,,,,,,,,,,,,,,,,,,,,,,,,,,,536.6715941529008,None,None,1,536.6715941529008,None,,,,,,,,,,,,,,,,,,,,,,,,,,,,,,,,,,,,,,,,,,,,,,sebaapu,001,c,2019_Nov_15_2326,Experimento,3.2.3,60.0660504317327,
8,14,14,999,0.5,0:10,3,White,None,0,0,1,28:50,./completed_changuitos/montage_ljeyz_44.95_39.59.jpg,left,0,0,0,0,,,,,0,11,11,11,,,,,,,,,0,0,0,0,0,17,17,17,,,,,,,,,,,,,,,,,,,,,,,,,,,,,,,,536.6882657748006,None,None,1,536.6882657748006,None,,,,,,,,,,,,,,,,,,,,,,,,,,,,,,,,,,,,,,,,,,,,,,sebaapu,001,c,2019_Nov_15_2326,Experimento,3.2.3,60.0660504317327,
8,14,14,999,0.5,0:10,3,Green,['space'],0,0,1,28:50,./completed_changuitos/montage_ljeyz_44.95_39.59.jpg,left,0,0,0,0,,,,,0,11,11,11,,,,,,,,,0,0,0,0,0,18,18,18,,,,,,,,,,,,,,,,,,,,,,,,,,,,,,,,536.6882657748006,None,None,0,536.6882657748006,None,,,,,,,,,,,,,,,,,,,,,,,,,,,,,,,,,,,,,,,,,,,,,,sebaapu,001,c,2019_Nov_15_2326,Experimento,3.2.3,60.0660504317327,
8,14,14,999,0.5,0:10,3,Red,None,0,0,1,28:50,./completed_changuitos/montage_ljeyz_44.95_39.59.jpg,left,0,0,0,0,,,,,0,11,11,11,,,,,,,,,0,0,0,0,0,19,19,19,,,,,,,,,,,,,,,,,,,,,,,,,,,,,,,,536.6882657748006,None,None,1,536.6882657748006,None,,,,,,,,,,,,,,,,,,,,,,,,,,,,,,,,,,,,,,,,,,,,,,sebaapu,001,c,2019_Nov_15_2326,Experimento,3.2.3,60.0660504317327,
8,14,14,999,0.5,0:10,3,Blue,None,0,0,1,28:50,./completed_changuitos/montage_ljeyz_44.95_39.59.jpg,left,0,0,0,0,,,,,0,11,11,11,,,,,,,,,0,0,0,0,0,20,20,20,,,,,,,,,,,,,,,,,,,,,,,,,,,,,,,,536.6882657748006,None,None,1,536.6882657748006,None,,,,,,,,,,,,,,,,,,,,,,,,,,,,,,,,,,,,,,,,,,,,,,sebaapu,001,c,2019_Nov_15_2326,Experimento,3.2.3,60.0660504317327,
8,14,14,999,0.5,0:10,3,Green,None,0,0,1,28:50,./completed_changuitos/montage_ljeyz_44.95_39.59.jpg,left,0,0,0,0,,,,,0,11,11,11,,,,,,,,,0,0,0,0,0,21,21,21,,,,,,,,,,,,,,,,,,,,,,,,,,,,,,,,536.6882657748006,None,None,1,536.6882657748006,None,,,,,,,,,,,,,,,,,,,,,,,,,,,,,,,,,,,,,,,,,,,,,,sebaapu,001,c,2019_Nov_15_2326,Experimento,3.2.3,60.0660504317327,
8,14,14,999,0.5,0:10,3,,,0,0,1,28:50,./completed_changuitos/montage_ljeyz_44.95_39.59.jpg,left,0,0,0,0,,,,,0,11,11,11,,,,,,,,,0,0,0,0,,,,,,,,,,,,,,,,,,,,,,,,,,,,,,,,,,,,,,,,,,536.7214568240015,None,right,0,2.615662459997111,536.7214568240015,None,536.7214568240015,None,,,,,,,,,,,,,,,,,,,,,,,,,,,,,,,,,,,,,sebaapu,001,c,2019_Nov_15_2326,Experimento,3.2.3,60.0660504317327,
8,14,14,999,0.5,0:10,3,,,0,0,1,28:50,,,0,0,0,0,,,,,0,11,11,11,,,,,,,,,,,,,,,,,,,,,,,,,,,,,,,,,,,,,,,,,,,,,,,,,,,,,,,,,,,,,,,,,,,,,,,,,,,,,,,,,,,,,,,,,,,,,,,,,,,sebaapu,001,c,2019_Nov_15_2326,Experimento,3.2.3,60.0660504317327,
8,14,14,999,0.5,0:10,3,,,1,0,0,30:50,./completed_changuitos/montage_jdwdw_122.95_146.59.jpg,right,0,0,0,0,,,,,0,12,12,12,0,0,0,0,,,,,,,,,,,,,,,,,,,,,,,,,,,,,,,,,,,,,,,,,,,,,,,,,,,,,,,,,,,,539.9537785489956,541.5032401649951,541.5032401649951,549.517135877999,left,0,0.0003153159996145405,549.517135877999,None,549.517135877999,None,549.517135877999,None,,,,,,,,,,,,,,,,,,,,,,,sebaapu,001,c,2019_Nov_15_2326,Experimento,3.2.3,60.0660504317327,
8,14,14,999,0.5,0:10,3,,,1,0,0,30:50,,,0,0,0,0,,,,,0,12,12,12,,,,,,,,,,,,,,,,,,,,,,,,,,,,,,,,,,,,,,,,,,,,,,,,,,,,,,,,,,,,,,,,,,,,,,,,,,,,,,,,,,,,,,,,,,,,,,,,,,,sebaapu,001,c,2019_Nov_15_2326,Experimento,3.2.3,60.0660504317327,
8,14,14,999,0.5,0:10,3,,,1,0,0,32:50,./completed_changuitos/montage_isexl_191.55_162.69.jpg,left,0,0,0,0,,,,,0,13,13,13,0,0,0,0,,,,,,,,,,,,,,,,,,,,,,,,,,,,,,,,,,,,,,,,,,,,,,,,,,,,,,,,,,,,550.1668985159995,556.214903782995,556.214903782995,564.2284869259965,left,1,0.00014259399904403836,564.2284869259965,None,564.2284869259965,None,564.2284869259965,None,,,,,,,,,,,,,,,,,,,,,,,sebaapu,001,c,2019_Nov_15_2326,Experimento,3.2.3,60.0660504317327,
8,14,14,999,0.5,0:10,3,,,1,0,0,32:50,,,0,0,0,0,,,,,0,13,13,13,,,,,,,,,,,,,,,,,,,,,,,,,,,,,,,,,,,,,,,,,,,,,,,,,,,,,,,,,,,,,,,,,,,,,,,,,,,,,,,,,,,,,,,,,,,,,,,,,,,sebaapu,001,c,2019_Nov_15_2326,Experimento,3.2.3,60.0660504317327,
8,14,14,999,0.5,0:10,3,,,1,0,0,34:50,./completed_changuitos/montage_sxcov_36.55_32.1.jpg,left,0,0,0,0,,,,,0,14,14,14,0,0,0,0,,,,,,,,,,,,,,,,,,,,,,,,,,,,,,,,,,,,,,,,,,,,,,,,,,,,,,,,,,,,564.8619475259984,566.6114025009956,566.6114025009956,574.6252267960008,left,1,0.00030514399986714125,574.6252267960008,None,574.6252267960008,None,574.6252267960008,None,,,,,,,,,,,,,,,,,,,,,,,sebaapu,001,c,2019_Nov_15_2326,Experimento,3.2.3,60.0660504317327,
8,14,14,999,0.5,0:10,3,,,1,0,0,34:50,,,0,0,0,0,,,,,0,14,14,14,,,,,,,,,,,,,,,,,,,,,,,,,,,,,,,,,,,,,,,,,,,,,,,,,,,,,,,,,,,,,,,,,,,,,,,,,,,,,,,,,,,,,,,,,,,,,,,,,,,sebaapu,001,c,2019_Nov_15_2326,Experimento,3.2.3,60.0660504317327,
8,14,14,999,0.5,0:10,3,,,1,0,0,30:50,./completed_changuitos/montage_dgzhn_150.89_133.95.jpg,left,0,0,0,0,,,,,0,15,15,15,0,0,0,0,,,,,,,,,,,,,,,,,,,,,,,,,,,,,,,,,,,,,,,,,,,,,,,,,,,,,,,,,,,,575.2417394559961,579.1570799420006,579.1570799420006,587.170946831,right,0,0.0003040830051759258,587.170946831,None,587.170946831,None,587.170946831,None,,,,,,,,,,,,,,,,,,,,,,,sebaapu,001,c,2019_Nov_15_2326,Experimento,3.2.3,60.0660504317327,
8,14,14,999,0.5,0:10,3,,,1,0,0,30:50,,,0,0,0,0,,,,,0,15,15,15,,,,,,,,,,,,,,,,,,,,,,,,,,,,,,,,,,,,,,,,,,,,,,,,,,,,,,,,,,,,,,,,,,,,,,,,,,,,,,,,,,,,,,,,,,,,,,,,,,,sebaapu,001,c,2019_Nov_15_2326,Experimento,3.2.3,60.0660504317327,
8,14,14,999,0.5,0:10,3,,,1,0,0,32:50,./completed_changuitos/montage_aypce_119.85_106.99.jpg,left,0,0,0,0,,,,,0,16,16,16,0,0,0,0,,,,,,,,,,,,,,,,,,,,,,,,,,,,,,,,,,,,,,,,,,,,,,,,,,,,,,,,,,,,587.8207836649963,589.3036102339975,589.3036102339975,597.3175410350013,left,1,0.00032276500132866204,597.3175410350013,None,597.3175410350013,None,597.3175410350013,None,,,,,,,,,,,,,,,,,,,,,,,sebaapu,001,c,2019_Nov_15_2326,Experimento,3.2.3,60.0660504317327,
8,14,14,999,0.5,0:10,3,,,1,0,0,32:50,,,0,0,0,0,,,,,0,16,16,16,,,,,,,,,,,,,,,,,,,,,,,,,,,,,,,,,,,,,,,,,,,,,,,,,,,,,,,,,,,,,,,,,,,,,,,,,,,,,,,,,,,,,,,,,,,,,,,,,,,sebaapu,001,c,2019_Nov_15_2326,Experimento,3.2.3,60.0660504317327,
8,14,14,999,0.5,0:10,3,,,1,0,0,34:50,./completed_changuitos/montage_wildj_90.95_79.19.jpg,left,0,0,0,0,,,,,0,17,17,17,0,0,0,0,,,,,,,,,,,,,,,,,,,,,,,,,,,,,,,,,,,,,,,,,,,,,,,,,,,,,,,,,,,,597.9673217759992,598.8000123469974,598.8000123469974,606.8142975539959,left,1,0.00030807799339527264,606.8142975539959,None,606.8142975539959,None,606.8142975539959,None,,,,,,,,,,,,,,,,,,,,,,,sebaapu,001,c,2019_Nov_15_2326,Experimento,3.2.3,60.0660504317327,
8,14,14,999,0.5,0:10,3,,,1,0,0,34:50,,,0,0,0,0,,,,,0,17,17,17,,,,,,,,,,,,,,,,,,,,,,,,,,,,,,,,,,,,,,,,,,,,,,,,,,,,,,,,,,,,,,,,,,,,,,,,,,,,,,,,,,,,,,,,,,,,,,,,,,,sebaapu,001,c,2019_Nov_15_2326,Experimento,3.2.3,60.0660504317327,
8,14,14,999,0.5,0:10,3,,,,,,,,,0,0,0,0,,,,,,,,,,,,,,,,,,,,,,,,,,,,,,,,,,,,,,,,,,,,,,,,,,,,,,,,,,,,,,,,,,,,,,,,,,,,,,,,,,,,,606.8864924090012,611.9125754990018,1,42.33611334800662,611.9125754990018,None,611.9125754990018,None,c,13.345933696997236,654.2648610510005,None,654.2648610510005,None,654.2648610510005,None,667.6265820479966,None,6,10.630510873001185,667.6265820479966,None,sebaapu,001,c,2019_Nov_15_2326,Experimento,3.2.3,60.0660504317327,
