changuito_time_to_show,time_to_think,time_to_play,total_items,nback_stimulus_time,nback_training,time_to_show_tiny_stimulus,colourtest,corresp,inmediato,consciente,inconsciente,nback_slice,imagen,correcta,trials_5.thisRepN,trials_5.thisTrialN,trials_5.thisN,trials_5.thisIndex,nback_train.thisRepN,nback_train.thisTrialN,nback_train.thisN,nback_train.thisIndex,treatment_order.thisRepN,treatment_order.thisTrialN,treatment_order.thisN,treatment_order.thisIndex,trials.thisRepN,trials.thisTrialN,trials.thisN,trials.thisIndex,trials_2.thisRepN,trials_2.thisTrialN,trials_2.thisN,trials_2.thisIndex,trials_3.thisRepN,trials_3.thisTrialN,trials_3.thisN,trials_3.thisIndex,trials_4.thisRepN,trials_4.thisTrialN,trials_4.thisN,trials_4.thisIndex,Presentacion.started,Presentacion.stopped,Juego.started,Juego.stopped,image_6.started,image_6.stopped,polygon.started,polygon.stopped,nback_train_resp.keys,nback_train_resp.corr,nback_train_resp.started,nback_train_resp.stopped,nback_train_resp.rt,hola.started,hola.stopped,image_2.started,image_2.stopped,tiempo_para_pensar.started,tiempo_para_pensar.stopped,respuesta_consciente.keys,respuesta_consciente.corr,respuesta_consciente.rt,respuesta_consciente.started,respuesta_consciente.stopped,cual_es_la_mas_barata.started,cual_es_la_mas_barata.stopped,image_4.started,image_4.stopped,holi.started,holi.stopped,image_3.started,image_3.stopped,polygon_2.started,polygon_2.stopped,nback_train_resp_2.keys,nback_train_resp_2.corr,nback_train_resp_2.started,nback_train_resp_2.stopped,text_2.started,text_2.stopped,key_resp.keys,key_resp.corr,key_resp.rt,key_resp.started,key_resp.stopped,image_5.started,image_5.stopped,nback_train_resp_2.rt,text.started,text.stopped,image.started,image.stopped,respuesta_inmediato.keys,respuesta_inmediato.corr,respuesta_inmediato.rt,respuesta_inmediato.started,respuesta_inmediato.stopped,pregunta_cual_es_el_mas_barato.started,pregunta_cual_es_el_mas_barato.stopped,short_stim1.started,short_stim1.stopped,gracias.started,gracias.stopped,respuesta1.keys,respuesta1.rt,respuesta1.started,respuesta1.stopped,pregunta1.started,pregunta1.stopped,respuesta3bis_3.keys,respuesta3bis_3.rt,respuesta3bis_3.started,respuesta3bis_3.stopped,pregunta3_3.started,pregunta3_3.stopped,productoCon3RANGOSabc_3.started,productoCon3RANGOSabc_3.stopped,text_3.started,text_3.stopped,key_resp_2.keys,key_resp_2.rt,key_resp_2.started,key_resp_2.stopped,participant,session,group,date,expName,psychopyVersion,frameRate,
8,14,14,999,0.5,0:10,3,White,None,,,,,,,0,0,0,0,0,0,0,0,,,,,,,,,,,,,,,,,,,,,339.25589958700584,None,353.73816418700153,None,353.73816418700153,None,368.91872482300096,369.4323605940008,None,1,368.91872482300096,None,,,,,,,,,,,,,,,,,,,,,,,,,,,,,,,,,,,,,,,,,,,,,,,,,,,,,,,,,,,,,,,,,,,,,,,,solC,001,a,2019_Oct_10_1438,Experimento,3.2.3,60.088799466809625,
8,14,14,999,0.5,0:10,3,Red,None,,,,,,,0,0,0,0,0,1,1,1,,,,,,,,,,,,,,,,,,,,,,,,,,,370.9317690839962,371.4316903699946,None,1,370.9317690839962,370.9317690839962,,,,,,,,,,,,,,,,,,,,,,,,,,,,,,,,,,,,,,,,,,,,,,,,,,,,,,,,,,,,,,,,,,,,,,,,solC,001,a,2019_Oct_10_1438,Experimento,3.2.3,60.088799466809625,
8,14,14,999,0.5,0:10,3,Magenta,None,,,,,,,0,0,0,0,0,2,2,2,,,,,,,,,,,,,,,,,,,,,,,,,,,372.93122199800564,373.4310332830064,None,1,372.93122199800564,372.93122199800564,,,,,,,,,,,,,,,,,,,,,,,,,,,,,,,,,,,,,,,,,,,,,,,,,,,,,,,,,,,,,,,,,,,,,,,,solC,001,a,2019_Oct_10_1438,Experimento,3.2.3,60.088799466809625,
8,14,14,999,0.5,0:10,3,Cyan,None,,,,,,,0,0,0,0,0,3,3,3,,,,,,,,,,,,,,,,,,,,,,,,,,,374.9304826440057,375.42994759099383,None,1,374.9304826440057,374.9304826440057,,,,,,,,,,,,,,,,,,,,,,,,,,,,,,,,,,,,,,,,,,,,,,,,,,,,,,,,,,,,,,,,,,,,,,,,solC,001,a,2019_Oct_10_1438,Experimento,3.2.3,60.088799466809625,
8,14,14,999,0.5,0:10,3,Magenta,['space'],,,,,,,0,0,0,0,0,4,4,4,,,,,,,,,,,,,,,,,,,,,,,,,,,376.929739943007,377.4296752049995,['return'],0,376.929739943007,376.929739943007,[0.9003968110046117],,,,,,,,,,,,,,,,,,,,,,,,,,,,,,,,,,,,,,,,,,,,,,,,,,,,,,,,,,,,,,,,,,,,,,,solC,001,a,2019_Oct_10_1438,Experimento,3.2.3,60.088799466809625,
8,14,14,999,0.5,0:10,3,Green,None,,,,,,,0,0,0,0,0,5,5,5,,,,,,,,,,,,,,,,,,,,,,,,,,,378.92873411900655,379.42896251700586,None,1,378.92873411900655,378.92873411900655,,,,,,,,,,,,,,,,,,,,,,,,,,,,,,,,,,,,,,,,,,,,,,,,,,,,,,,,,,,,,,,,,,,,,,,,solC,001,a,2019_Oct_10_1438,Experimento,3.2.3,60.088799466809625,
8,14,14,999,0.5,0:10,3,White,None,,,,,,,0,0,0,0,0,6,6,6,,,,,,,,,,,,,,,,,,,,,,,,,,,380.9284214799991,381.4283184619999,None,1,380.9284214799991,380.9284214799991,,,,,,,,,,,,,,,,,,,,,,,,,,,,,,,,,,,,,,,,,,,,,,,,,,,,,,,,,,,,,,,,,,,,,,,,solC,001,a,2019_Oct_10_1438,Experimento,3.2.3,60.088799466809625,
8,14,14,999,0.5,0:10,3,Green,['space'],,,,,,,0,0,0,0,0,7,7,7,,,,,,,,,,,,,,,,,,,,,,,,,,,382.9277485180064,383.42762384799425,['return'],0,382.9277485180064,382.9277485180064,[1.89995941700181],,,,,,,,,,,,,,,,,,,,,,,,,,,,,,,,,,,,,,,,,,,,,,,,,,,,,,,,,,,,,,,,,,,,,,,solC,001,a,2019_Oct_10_1438,Experimento,3.2.3,60.088799466809625,
8,14,14,999,0.5,0:10,3,Blue,None,,,,,,,0,0,0,0,0,8,8,8,,,,,,,,,,,,,,,,,,,,,,,,,,,384.9270417939988,385.4267515410029,None,1,384.9270417939988,384.9270417939988,,,,,,,,,,,,,,,,,,,,,,,,,,,,,,,,,,,,,,,,,,,,,,,,,,,,,,,,,,,,,,,,,,,,,,,,solC,001,a,2019_Oct_10_1438,Experimento,3.2.3,60.088799466809625,
8,14,14,999,0.5,0:10,3,Green,['space'],,,,,,,0,0,0,0,0,9,9,9,,,,,,,,,,,,,,,,,,,,,,,,,,,386.92637073200603,387.42627943899424,None,0,386.92637073200603,386.92637073200603,,,,,,,,,,,,,,,,,,,,,,,,,,,,,,,,,,,,,,,,,,,,,,,,,,,,,,,,,,,,,,,,,,,,,,,,solC,001,a,2019_Oct_10_1438,Experimento,3.2.3,60.088799466809625,
8,14,14,999,0.5,0:10,3,,,0,1,0,10:50,./completed_changuitos/montage_finma_138.49_119.85.jpg,left,0,0,0,0,,,,,0,0,0,0,,,,,0,0,0,0,,,,,,,,,,,,,,,,,,,,,,389.17895656300243,394.1406080809975,394.1406080809975,402.15456588199595,402.15456588199595,416.16609560699726,right,0,3.866139193007257,416.16609560699726,None,416.16609560699726,None,416.16609560699726,419.1653508080053,,,,,,,,,,,,,,,,,,,,,,,,,,,,,,,,,,,,,,,,,,,,,,,,,,,,,,,,solC,001,a,2019_Oct_10_1438,Experimento,3.2.3,60.088799466809625,
8,14,14,999,0.5,0:10,3,,,0,1,0,10:50,,,0,0,0,0,,,,,0,0,0,0,,,,,,,,,,,,,,,,,,,,,,,,,,,,,,,,,,,,,,,,,,,,,,,,,,,,,,,,,,,,,,,,,,,,,,,,,,,,,,,,,,,,,,,,,,,,,,,,,,,,solC,001,a,2019_Oct_10_1438,Experimento,3.2.3,60.088799466809625,
8,14,14,999,0.5,0:10,3,Yellow,None,0,0,1,15:50,./completed_changuitos/montage_elnwo_236.49_203.3.jpg,left,0,0,0,0,,,,,0,1,1,1,,,,,,,,,0,0,0,0,0,0,0,0,,,,,,,,,,,,,,,,,,,,,,,,,,,,,420.16956475899497,422.79729422699893,422.79729422699893,None,430.8393886709964,431.3441396200069,None,1,430.8393886709964,None,,,,,,,,,,,,,,,,,,,,,,,,,,,,,,,,,,,,,,,,,,,,,,solC,001,a,2019_Oct_10_1438,Experimento,3.2.3,60.088799466809625,
8,14,14,999,0.5,0:10,3,White,['space'],0,0,1,15:50,./completed_changuitos/montage_elnwo_236.49_203.3.jpg,left,0,0,0,0,,,,,0,1,1,1,,,,,,,,,0,0,0,0,0,1,1,1,,,,,,,,,,,,,,,,,,,,,,,,,,,,,,,,,432.8436547540041,433.343852334001,None,0,432.8436547540041,432.8436547540041,,,,,,,,,,,,,,,,,,,,,,,,,,,,,,,,,,,,,,,,,,,,,,solC,001,a,2019_Oct_10_1438,Experimento,3.2.3,60.088799466809625,
8,14,14,999,0.5,0:10,3,Magenta,None,0,0,1,15:50,./completed_changuitos/montage_elnwo_236.49_203.3.jpg,left,0,0,0,0,,,,,0,1,1,1,,,,,,,,,0,0,0,0,0,2,2,2,,,,,,,,,,,,,,,,,,,,,,,,,,,,,,,,,434.8430575060047,435.34318428099505,None,1,434.8430575060047,434.8430575060047,,,,,,,,,,,,,,,,,,,,,,,,,,,,,,,,,,,,,,,,,,,,,,solC,001,a,2019_Oct_10_1438,Experimento,3.2.3,60.088799466809625,
8,14,14,999,0.5,0:10,3,Cyan,None,0,0,1,15:50,./completed_changuitos/montage_elnwo_236.49_203.3.jpg,left,0,0,0,0,,,,,0,1,1,1,,,,,,,,,0,0,0,0,0,3,3,3,,,,,,,,,,,,,,,,,,,,,,,,,,,,,,,,,436.84270726999966,437.3425366379961,None,1,436.84270726999966,436.84270726999966,,,,,,,,,,,,,,,,,,,,,,,,,,,,,,,,,,,,,,,,,,,,,,solC,001,a,2019_Oct_10_1438,Experimento,3.2.3,60.088799466809625,
8,14,14,999,0.5,0:10,3,Blue,None,0,0,1,15:50,./completed_changuitos/montage_elnwo_236.49_203.3.jpg,left,0,0,0,0,,,,,0,1,1,1,,,,,,,,,0,0,0,0,0,4,4,4,,,,,,,,,,,,,,,,,,,,,,,,,,,,,,,,,438.8582758450066,439.3584358210064,None,1,438.8582758450066,438.8582758450066,,,,,,,,,,,,,,,,,,,,,,,,,,,,,,,,,,,,,,,,,,,,,,solC,001,a,2019_Oct_10_1438,Experimento,3.2.3,60.088799466809625,
8,14,14,999,0.5,0:10,3,Magenta,None,0,0,1,15:50,./completed_changuitos/montage_elnwo_236.49_203.3.jpg,left,0,0,0,0,,,,,0,1,1,1,,,,,,,,,0,0,0,0,0,5,5,5,,,,,,,,,,,,,,,,,,,,,,,,,,,,,,,,,440.857806429005,441.35782190000464,None,1,440.857806429005,440.857806429005,,,,,,,,,,,,,,,,,,,,,,,,,,,,,,,,,,,,,,,,,,,,,,solC,001,a,2019_Oct_10_1438,Experimento,3.2.3,60.088799466809625,
8,14,14,999,0.5,0:10,3,Blue,['space'],0,0,1,15:50,./completed_changuitos/montage_elnwo_236.49_203.3.jpg,left,0,0,0,0,,,,,0,1,1,1,,,,,,,,,0,0,0,0,0,6,6,6,,,,,,,,,,,,,,,,,,,,,,,,,,,,,,,,,442.8573077119945,443.3571038060036,None,0,442.8573077119945,442.8573077119945,,,,,,,,,,,,,,,,,,,,,,,,,,,,,,,,,,,,,,,,,,,,,,solC,001,a,2019_Oct_10_1438,Experimento,3.2.3,60.088799466809625,
8,14,14,999,0.5,0:10,3,Cyan,None,0,0,1,15:50,./completed_changuitos/montage_elnwo_236.49_203.3.jpg,left,0,0,0,0,,,,,0,1,1,1,,,,,,,,,0,0,0,0,0,7,7,7,,,,,,,,,,,,,,,,,,,,,,,,,,,,,,,,,444.8233418456992,None,None,1,444.8233418456992,None,,,,,,,,,,,,,,,,,,,,,,,,,,,,,,,,,,,,,,,,,,,,,,solC,001,a,2019_Oct_10_1438,Experimento,3.2.3,60.088799466809625,
8,14,14,999,0.5,0:10,3,Yellow,None,0,0,1,15:50,./completed_changuitos/montage_elnwo_236.49_203.3.jpg,left,0,0,0,0,,,,,0,1,1,1,,,,,,,,,0,0,0,0,0,8,8,8,,,,,,,,,,,,,,,,,,,,,,,,,,,,,,,,,444.8233418456992,None,None,1,444.8233418456992,None,,,,,,,,,,,,,,,,,,,,,,,,,,,,,,,,,,,,,,,,,,,,,,solC,001,a,2019_Oct_10_1438,Experimento,3.2.3,60.088799466809625,
8,14,14,999,0.5,0:10,3,Cyan,None,0,0,1,15:50,./completed_changuitos/montage_elnwo_236.49_203.3.jpg,left,0,0,0,0,,,,,0,1,1,1,,,,,,,,,0,0,0,0,0,9,9,9,,,,,,,,,,,,,,,,,,,,,,,,,,,,,,,,,444.8233418456992,None,None,1,444.8233418456992,None,,,,,,,,,,,,,,,,,,,,,,,,,,,,,,,,,,,,,,,,,,,,,,solC,001,a,2019_Oct_10_1438,Experimento,3.2.3,60.088799466809625,
8,14,14,999,0.5,0:10,3,Blue,None,0,0,1,15:50,./completed_changuitos/montage_elnwo_236.49_203.3.jpg,left,0,0,0,0,,,,,0,1,1,1,,,,,,,,,0,0,0,0,0,10,10,10,,,,,,,,,,,,,,,,,,,,,,,,,,,,,,,,,444.8233418456992,None,None,1,444.8233418456992,None,,,,,,,,,,,,,,,,,,,,,,,,,,,,,,,,,,,,,,,,,,,,,,solC,001,a,2019_Oct_10_1438,Experimento,3.2.3,60.088799466809625,
8,14,14,999,0.5,0:10,3,Cyan,['space'],0,0,1,15:50,./completed_changuitos/montage_elnwo_236.49_203.3.jpg,left,0,0,0,0,,,,,0,1,1,1,,,,,,,,,0,0,0,0,0,11,11,11,,,,,,,,,,,,,,,,,,,,,,,,,,,,,,,,,444.8400026563992,None,None,0,444.8400026563992,None,,,,,,,,,,,,,,,,,,,,,,,,,,,,,,,,,,,,,,,,,,,,,,solC,001,a,2019_Oct_10_1438,Experimento,3.2.3,60.088799466809625,
8,14,14,999,0.5,0:10,3,Magenta,None,0,0,1,15:50,./completed_changuitos/montage_elnwo_236.49_203.3.jpg,left,0,0,0,0,,,,,0,1,1,1,,,,,,,,,0,0,0,0,0,12,12,12,,,,,,,,,,,,,,,,,,,,,,,,,,,,,,,,,444.8400026563992,None,None,1,444.8400026563992,None,,,,,,,,,,,,,,,,,,,,,,,,,,,,,,,,,,,,,,,,,,,,,,solC,001,a,2019_Oct_10_1438,Experimento,3.2.3,60.088799466809625,
8,14,14,999,0.5,0:10,3,Red,None,0,0,1,15:50,./completed_changuitos/montage_elnwo_236.49_203.3.jpg,left,0,0,0,0,,,,,0,1,1,1,,,,,,,,,0,0,0,0,0,13,13,13,,,,,,,,,,,,,,,,,,,,,,,,,,,,,,,,,444.8400026563992,None,None,1,444.8400026563992,None,,,,,,,,,,,,,,,,,,,,,,,,,,,,,,,,,,,,,,,,,,,,,,solC,001,a,2019_Oct_10_1438,Experimento,3.2.3,60.088799466809625,
8,14,14,999,0.5,0:10,3,Magenta,['space'],0,0,1,15:50,./completed_changuitos/montage_elnwo_236.49_203.3.jpg,left,0,0,0,0,,,,,0,1,1,1,,,,,,,,,0,0,0,0,0,14,14,14,,,,,,,,,,,,,,,,,,,,,,,,,,,,,,,,,444.8400026563992,None,None,0,444.8400026563992,None,,,,,,,,,,,,,,,,,,,,,,,,,,,,,,,,,,,,,,,,,,,,,,solC,001,a,2019_Oct_10_1438,Experimento,3.2.3,60.088799466809625,
8,14,14,999,0.5,0:10,3,Green,None,0,0,1,15:50,./completed_changuitos/montage_elnwo_236.49_203.3.jpg,left,0,0,0,0,,,,,0,1,1,1,,,,,,,,,0,0,0,0,0,15,15,15,,,,,,,,,,,,,,,,,,,,,,,,,,,,,,,,,444.8400026563992,None,None,1,444.8400026563992,None,,,,,,,,,,,,,,,,,,,,,,,,,,,,,,,,,,,,,,,,,,,,,,solC,001,a,2019_Oct_10_1438,Experimento,3.2.3,60.088799466809625,
8,14,14,999,0.5,0:10,3,Yellow,['space'],0,0,1,15:50,./completed_changuitos/montage_elnwo_236.49_203.3.jpg,left,0,0,0,0,,,,,0,1,1,1,,,,,,,,,0,0,0,0,0,16,16,16,,,,,,,,,,,,,,,,,,,,,,,,,,,,,,,,,444.8400026563992,None,None,0,444.8400026563992,None,,,,,,,,,,,,,,,,,,,,,,,,,,,,,,,,,,,,,,,,,,,,,,solC,001,a,2019_Oct_10_1438,Experimento,3.2.3,60.088799466809625,
8,14,14,999,0.5,0:10,3,Blue,None,0,0,1,15:50,./completed_changuitos/montage_elnwo_236.49_203.3.jpg,left,0,0,0,0,,,,,0,1,1,1,,,,,,,,,0,0,0,0,0,17,17,17,,,,,,,,,,,,,,,,,,,,,,,,,,,,,,,,,444.85666346709917,None,None,1,444.85666346709917,None,,,,,,,,,,,,,,,,,,,,,,,,,,,,,,,,,,,,,,,,,,,,,,solC,001,a,2019_Oct_10_1438,Experimento,3.2.3,60.088799466809625,
8,14,14,999,0.5,0:10,3,Cyan,None,0,0,1,15:50,./completed_changuitos/montage_elnwo_236.49_203.3.jpg,left,0,0,0,0,,,,,0,1,1,1,,,,,,,,,0,0,0,0,0,18,18,18,,,,,,,,,,,,,,,,,,,,,,,,,,,,,,,,,444.85666346709917,None,None,1,444.85666346709917,None,,,,,,,,,,,,,,,,,,,,,,,,,,,,,,,,,,,,,,,,,,,,,,solC,001,a,2019_Oct_10_1438,Experimento,3.2.3,60.088799466809625,
8,14,14,999,0.5,0:10,3,Blue,['space'],0,0,1,15:50,./completed_changuitos/montage_elnwo_236.49_203.3.jpg,left,0,0,0,0,,,,,0,1,1,1,,,,,,,,,0,0,0,0,0,19,19,19,,,,,,,,,,,,,,,,,,,,,,,,,,,,,,,,,444.85666346709917,None,None,0,444.85666346709917,None,,,,,,,,,,,,,,,,,,,,,,,,,,,,,,,,,,,,,,,,,,,,,,solC,001,a,2019_Oct_10_1438,Experimento,3.2.3,60.088799466809625,
8,14,14,999,0.5,0:10,3,Yellow,None,0,0,1,15:50,./completed_changuitos/montage_elnwo_236.49_203.3.jpg,left,0,0,0,0,,,,,0,1,1,1,,,,,,,,,0,0,0,0,0,20,20,20,,,,,,,,,,,,,,,,,,,,,,,,,,,,,,,,,444.85666346709917,None,None,1,444.85666346709917,None,,,,,,,,,,,,,,,,,,,,,,,,,,,,,,,,,,,,,,,,,,,,,,solC,001,a,2019_Oct_10_1438,Experimento,3.2.3,60.088799466809625,
8,14,14,999,0.5,0:10,3,Cyan,None,0,0,1,15:50,./completed_changuitos/montage_elnwo_236.49_203.3.jpg,left,0,0,0,0,,,,,0,1,1,1,,,,,,,,,0,0,0,0,0,21,21,21,,,,,,,,,,,,,,,,,,,,,,,,,,,,,,,,,444.85666346709917,None,None,1,444.85666346709917,None,,,,,,,,,,,,,,,,,,,,,,,,,,,,,,,,,,,,,,,,,,,,,,solC,001,a,2019_Oct_10_1438,Experimento,3.2.3,60.088799466809625,
8,14,14,999,0.5,0:10,3,Yellow,['space'],0,0,1,15:50,./completed_changuitos/montage_elnwo_236.49_203.3.jpg,left,0,0,0,0,,,,,0,1,1,1,,,,,,,,,0,0,0,0,0,22,22,22,,,,,,,,,,,,,,,,,,,,,,,,,,,,,,,,,444.85666346709917,None,None,0,444.85666346709917,None,,,,,,,,,,,,,,,,,,,,,,,,,,,,,,,,,,,,,,,,,,,,,,solC,001,a,2019_Oct_10_1438,Experimento,3.2.3,60.088799466809625,
8,14,14,999,0.5,0:10,3,Magenta,None,0,0,1,15:50,./completed_changuitos/montage_elnwo_236.49_203.3.jpg,left,0,0,0,0,,,,,0,1,1,1,,,,,,,,,0,0,0,0,0,23,23,23,,,,,,,,,,,,,,,,,,,,,,,,,,,,,,,,,444.85666346709917,None,None,1,444.85666346709917,None,,,,,,,,,,,,,,,,,,,,,,,,,,,,,,,,,,,,,,,,,,,,,,solC,001,a,2019_Oct_10_1438,Experimento,3.2.3,60.088799466809625,
8,14,14,999,0.5,0:10,3,Red,None,0,0,1,15:50,./completed_changuitos/montage_elnwo_236.49_203.3.jpg,left,0,0,0,0,,,,,0,1,1,1,,,,,,,,,0,0,0,0,0,24,24,24,,,,,,,,,,,,,,,,,,,,,,,,,,,,,,,,,444.85666346709917,None,None,1,444.85666346709917,None,,,,,,,,,,,,,,,,,,,,,,,,,,,,,,,,,,,,,,,,,,,,,,solC,001,a,2019_Oct_10_1438,Experimento,3.2.3,60.088799466809625,
8,14,14,999,0.5,0:10,3,Magenta,['space'],0,0,1,15:50,./completed_changuitos/montage_elnwo_236.49_203.3.jpg,left,0,0,0,0,,,,,0,1,1,1,,,,,,,,,0,0,0,0,0,25,25,25,,,,,,,,,,,,,,,,,,,,,,,,,,,,,,,,,444.85666346709917,None,None,0,444.85666346709917,None,,,,,,,,,,,,,,,,,,,,,,,,,,,,,,,,,,,,,,,,,,,,,,solC,001,a,2019_Oct_10_1438,Experimento,3.2.3,60.088799466809625,
8,14,14,999,0.5,0:10,3,Red,['space'],0,0,1,15:50,./completed_changuitos/montage_elnwo_236.49_203.3.jpg,left,0,0,0,0,,,,,0,1,1,1,,,,,,,,,0,0,0,0,0,26,26,26,,,,,,,,,,,,,,,,,,,,,,,,,,,,,,,,,444.85666346709917,None,None,0,444.85666346709917,None,,,,,,,,,,,,,,,,,,,,,,,,,,,,,,,,,,,,,,,,,,,,,,solC,001,a,2019_Oct_10_1438,Experimento,3.2.3,60.088799466809625,
8,14,14,999,0.5,0:10,3,Yellow,None,0,0,1,15:50,./completed_changuitos/montage_elnwo_236.49_203.3.jpg,left,0,0,0,0,,,,,0,1,1,1,,,,,,,,,0,0,0,0,0,27,27,27,,,,,,,,,,,,,,,,,,,,,,,,,,,,,,,,,444.85666346709917,None,None,1,444.85666346709917,None,,,,,,,,,,,,,,,,,,,,,,,,,,,,,,,,,,,,,,,,,,,,,,solC,001,a,2019_Oct_10_1438,Experimento,3.2.3,60.088799466809625,
8,14,14,999,0.5,0:10,3,Cyan,None,0,0,1,15:50,./completed_changuitos/montage_elnwo_236.49_203.3.jpg,left,0,0,0,0,,,,,0,1,1,1,,,,,,,,,0,0,0,0,0,28,28,28,,,,,,,,,,,,,,,,,,,,,,,,,,,,,,,,,444.85666346709917,None,None,1,444.85666346709917,None,,,,,,,,,,,,,,,,,,,,,,,,,,,,,,,,,,,,,,,,,,,,,,solC,001,a,2019_Oct_10_1438,Experimento,3.2.3,60.088799466809625,
8,14,14,999,0.5,0:10,3,Green,None,0,0,1,15:50,./completed_changuitos/montage_elnwo_236.49_203.3.jpg,left,0,0,0,0,,,,,0,1,1,1,,,,,,,,,0,0,0,0,0,29,29,29,,,,,,,,,,,,,,,,,,,,,,,,,,,,,,,,,444.85666346709917,None,None,1,444.85666346709917,None,,,,,,,,,,,,,,,,,,,,,,,,,,,,,,,,,,,,,,,,,,,,,,solC,001,a,2019_Oct_10_1438,Experimento,3.2.3,60.088799466809625,
8,14,14,999,0.5,0:10,3,White,None,0,0,1,15:50,./completed_changuitos/montage_elnwo_236.49_203.3.jpg,left,0,0,0,0,,,,,0,1,1,1,,,,,,,,,0,0,0,0,0,30,30,30,,,,,,,,,,,,,,,,,,,,,,,,,,,,,,,,,444.8733242777991,None,None,1,444.8733242777991,None,,,,,,,,,,,,,,,,,,,,,,,,,,,,,,,,,,,,,,,,,,,,,,solC,001,a,2019_Oct_10_1438,Experimento,3.2.3,60.088799466809625,
8,14,14,999,0.5,0:10,3,Green,['space'],0,0,1,15:50,./completed_changuitos/montage_elnwo_236.49_203.3.jpg,left,0,0,0,0,,,,,0,1,1,1,,,,,,,,,0,0,0,0,0,31,31,31,,,,,,,,,,,,,,,,,,,,,,,,,,,,,,,,,444.8733242777991,None,None,0,444.8733242777991,None,,,,,,,,,,,,,,,,,,,,,,,,,,,,,,,,,,,,,,,,,,,,,,solC,001,a,2019_Oct_10_1438,Experimento,3.2.3,60.088799466809625,
8,14,14,999,0.5,0:10,3,Red,None,0,0,1,15:50,./completed_changuitos/montage_elnwo_236.49_203.3.jpg,left,0,0,0,0,,,,,0,1,1,1,,,,,,,,,0,0,0,0,0,32,32,32,,,,,,,,,,,,,,,,,,,,,,,,,,,,,,,,,444.8733242777991,None,None,1,444.8733242777991,None,,,,,,,,,,,,,,,,,,,,,,,,,,,,,,,,,,,,,,,,,,,,,,solC,001,a,2019_Oct_10_1438,Experimento,3.2.3,60.088799466809625,
8,14,14,999,0.5,0:10,3,Blue,None,0,0,1,15:50,./completed_changuitos/montage_elnwo_236.49_203.3.jpg,left,0,0,0,0,,,,,0,1,1,1,,,,,,,,,0,0,0,0,0,33,33,33,,,,,,,,,,,,,,,,,,,,,,,,,,,,,,,,,444.8733242777991,None,None,1,444.8733242777991,None,,,,,,,,,,,,,,,,,,,,,,,,,,,,,,,,,,,,,,,,,,,,,,solC,001,a,2019_Oct_10_1438,Experimento,3.2.3,60.088799466809625,
8,14,14,999,0.5,0:10,3,Green,None,0,0,1,15:50,./completed_changuitos/montage_elnwo_236.49_203.3.jpg,left,0,0,0,0,,,,,0,1,1,1,,,,,,,,,0,0,0,0,0,34,34,34,,,,,,,,,,,,,,,,,,,,,,,,,,,,,,,,,444.8733242777991,None,None,1,444.8733242777991,None,,,,,,,,,,,,,,,,,,,,,,,,,,,,,,,,,,,,,,,,,,,,,,solC,001,a,2019_Oct_10_1438,Experimento,3.2.3,60.088799466809625,
8,14,14,999,0.5,0:10,3,,,0,0,1,15:50,./completed_changuitos/montage_elnwo_236.49_203.3.jpg,left,0,0,0,0,,,,,0,1,1,1,,,,,,,,,0,0,0,0,,,,,,,,,,,,,,,,,,,,,,,,,,,,,,,,,,,,,,,,,,,444.90655881499697,None,right,0,2.6316917719959747,444.90655881499697,None,444.90655881499697,None,,,,,,,,,,,,,,,,,,,,,,,,,,,,,,,,,,,,,solC,001,a,2019_Oct_10_1438,Experimento,3.2.3,60.088799466809625,
8,14,14,999,0.5,0:10,3,,,0,0,1,15:50,,,0,0,0,0,,,,,0,1,1,1,,,,,,,,,,,,,,,,,,,,,,,,,,,,,,,,,,,,,,,,,,,,,,,,,,,,,,,,,,,,,,,,,,,,,,,,,,,,,,,,,,,,,,,,,,,,,,,,,,,,solC,001,a,2019_Oct_10_1438,Experimento,3.2.3,60.088799466809625,
8,14,14,999,0.5,0:10,3,,,0,1,0,19:50,./completed_changuitos/montage_uqwmb_27.85_32.09.jpg,right,0,0,0,0,,,,,0,2,2,2,,,,,0,0,0,0,,,,,,,,,,,,,,,,,,,,,,447.68240537399834,448.58866406200104,448.58866406200104,456.60255754800164,456.60255754800164,470.61404344100447,left,0,1.8336783139966428,470.61404344100447,None,470.61404344100447,None,470.61404344100447,None,,,,,,,,,,,,,,,,,,,,,,,,,,,,,,,,,,,,,,,,,,,,,,,,,,,,,,,,solC,001,a,2019_Oct_10_1438,Experimento,3.2.3,60.088799466809625,
8,14,14,999,0.5,0:10,3,,,0,1,0,19:50,,,0,0,0,0,,,,,0,2,2,2,,,,,,,,,,,,,,,,,,,,,,,,,,,,,,,,,,,,,,,,,,,,,,,,,,,,,,,,,,,,,,,,,,,,,,,,,,,,,,,,,,,,,,,,,,,,,,,,,,,,solC,001,a,2019_Oct_10_1438,Experimento,3.2.3,60.088799466809625,
8,14,14,999,0.5,0:10,3,Magenta,None,0,0,1,20:50,./completed_changuitos/montage_tdscj_266.45_235.29.jpg,left,0,0,0,0,,,,,0,3,3,3,,,,,,,,,0,0,0,0,0,0,0,0,,,,,,,,,,,,,,,,,,,,,,,,,,,,,472.58756424099556,474.1799123899982,474.1799123899982,None,482.2218283889961,482.72697310100193,None,1,482.2218283889961,None,,,,,,,,,,,,,,,,,,,,,,,,,,,,,,,,,,,,,,,,,,,,,,solC,001,a,2019_Oct_10_1438,Experimento,3.2.3,60.088799466809625,
8,14,14,999,0.5,0:10,3,Blue,['space'],0,0,1,20:50,./completed_changuitos/montage_tdscj_266.45_235.29.jpg,left,0,0,0,0,,,,,0,3,3,3,,,,,,,,,0,0,0,0,0,1,1,1,,,,,,,,,,,,,,,,,,,,,,,,,,,,,,,,,484.22633649200725,484.72591832399485,None,0,484.22633649200725,484.22633649200725,,,,,,,,,,,,,,,,,,,,,,,,,,,,,,,,,,,,,,,,,,,,,,solC,001,a,2019_Oct_10_1438,Experimento,3.2.3,60.088799466809625,
8,14,14,999,0.5,0:10,3,Cyan,None,0,0,1,20:50,./completed_changuitos/montage_tdscj_266.45_235.29.jpg,left,0,0,0,0,,,,,0,3,3,3,,,,,,,,,0,0,0,0,0,2,2,2,,,,,,,,,,,,,,,,,,,,,,,,,,,,,,,,,486.22571615599736,486.72560469699965,None,1,486.22571615599736,486.22571615599736,,,,,,,,,,,,,,,,,,,,,,,,,,,,,,,,,,,,,,,,,,,,,,solC,001,a,2019_Oct_10_1438,Experimento,3.2.3,60.088799466809625,
8,14,14,999,0.5,0:10,3,Yellow,None,0,0,1,20:50,./completed_changuitos/montage_tdscj_266.45_235.29.jpg,left,0,0,0,0,,,,,0,3,3,3,,,,,,,,,0,0,0,0,0,3,3,3,,,,,,,,,,,,,,,,,,,,,,,,,,,,,,,,,488.2250006740069,488.7249291909975,None,1,488.2250006740069,488.2250006740069,,,,,,,,,,,,,,,,,,,,,,,,,,,,,,,,,,,,,,,,,,,,,,solC,001,a,2019_Oct_10_1438,Experimento,3.2.3,60.088799466809625,
8,14,14,999,0.5,0:10,3,Cyan,None,0,0,1,20:50,./completed_changuitos/montage_tdscj_266.45_235.29.jpg,left,0,0,0,0,,,,,0,3,3,3,,,,,,,,,0,0,0,0,0,4,4,4,,,,,,,,,,,,,,,,,,,,,,,,,,,,,,,,,490.2244094869966,490.7242658689938,['return'],0,490.2244094869966,490.2244094869966,,,,,,,,,,[0.63472893400467],,,,,,,,,,,,,,,,,,,,,,,,,,,,,,,,,,,,solC,001,a,2019_Oct_10_1438,Experimento,3.2.3,60.088799466809625,
8,14,14,999,0.5,0:10,3,Blue,None,0,0,1,20:50,./completed_changuitos/montage_tdscj_266.45_235.29.jpg,left,0,0,0,0,,,,,0,3,3,3,,,,,,,,,0,0,0,0,0,5,5,5,,,,,,,,,,,,,,,,,,,,,,,,,,,,,,,,,492.2236096599954,492.72355853200133,['return'],0,492.2236096599954,492.2236096599954,,,,,,,,,,[0.7671426220040303],,,,,,,,,,,,,,,,,,,,,,,,,,,,,,,,,,,,solC,001,a,2019_Oct_10_1438,Experimento,3.2.3,60.088799466809625,
8,14,14,999,0.5,0:10,3,Cyan,['space'],0,0,1,20:50,./completed_changuitos/montage_tdscj_266.45_235.29.jpg,left,0,0,0,0,,,,,0,3,3,3,,,,,,,,,0,0,0,0,0,6,6,6,,,,,,,,,,,,,,,,,,,,,,,,,,,,,,,,,494.2230045339966,494.7228730039933,['return'],0,494.2230045339966,494.2230045339966,,,,,,,,,,[1.4001476959965657],,,,,,,,,,,,,,,,,,,,,,,,,,,,,,,,,,,,solC,001,a,2019_Oct_10_1438,Experimento,3.2.3,60.088799466809625,
8,14,14,999,0.5,0:10,3,Magenta,None,0,0,1,20:50,./completed_changuitos/montage_tdscj_266.45_235.29.jpg,left,0,0,0,0,,,,,0,3,3,3,,,,,,,,,0,0,0,0,0,7,7,7,,,,,,,,,,,,,,,,,,,,,,,,,,,,,,,,,496.2057287627002,None,None,1,496.2057287627002,None,,,,,,,,,,,,,,,,,,,,,,,,,,,,,,,,,,,,,,,,,,,,,,solC,001,a,2019_Oct_10_1438,Experimento,3.2.3,60.088799466809625,
8,14,14,999,0.5,0:10,3,Red,None,0,0,1,20:50,./completed_changuitos/montage_tdscj_266.45_235.29.jpg,left,0,0,0,0,,,,,0,3,3,3,,,,,,,,,0,0,0,0,0,8,8,8,,,,,,,,,,,,,,,,,,,,,,,,,,,,,,,,,496.2057287627002,None,None,1,496.2057287627002,None,,,,,,,,,,,,,,,,,,,,,,,,,,,,,,,,,,,,,,,,,,,,,,solC,001,a,2019_Oct_10_1438,Experimento,3.2.3,60.088799466809625,
8,14,14,999,0.5,0:10,3,Magenta,['space'],0,0,1,20:50,./completed_changuitos/montage_tdscj_266.45_235.29.jpg,left,0,0,0,0,,,,,0,3,3,3,,,,,,,,,0,0,0,0,0,9,9,9,,,,,,,,,,,,,,,,,,,,,,,,,,,,,,,,,496.2057287627002,None,None,0,496.2057287627002,None,,,,,,,,,,,,,,,,,,,,,,,,,,,,,,,,,,,,,,,,,,,,,,solC,001,a,2019_Oct_10_1438,Experimento,3.2.3,60.088799466809625,
8,14,14,999,0.5,0:10,3,Green,None,0,0,1,20:50,./completed_changuitos/montage_tdscj_266.45_235.29.jpg,left,0,0,0,0,,,,,0,3,3,3,,,,,,,,,0,0,0,0,0,10,10,10,,,,,,,,,,,,,,,,,,,,,,,,,,,,,,,,,496.2057287627002,None,None,1,496.2057287627002,None,,,,,,,,,,,,,,,,,,,,,,,,,,,,,,,,,,,,,,,,,,,,,,solC,001,a,2019_Oct_10_1438,Experimento,3.2.3,60.088799466809625,
8,14,14,999,0.5,0:10,3,Yellow,['space'],0,0,1,20:50,./completed_changuitos/montage_tdscj_266.45_235.29.jpg,left,0,0,0,0,,,,,0,3,3,3,,,,,,,,,0,0,0,0,0,11,11,11,,,,,,,,,,,,,,,,,,,,,,,,,,,,,,,,,496.22238957340016,None,None,0,496.22238957340016,None,,,,,,,,,,,,,,,,,,,,,,,,,,,,,,,,,,,,,,,,,,,,,,solC,001,a,2019_Oct_10_1438,Experimento,3.2.3,60.088799466809625,
8,14,14,999,0.5,0:10,3,Blue,None,0,0,1,20:50,./completed_changuitos/montage_tdscj_266.45_235.29.jpg,left,0,0,0,0,,,,,0,3,3,3,,,,,,,,,0,0,0,0,0,12,12,12,,,,,,,,,,,,,,,,,,,,,,,,,,,,,,,,,496.22238957340016,None,None,1,496.22238957340016,None,,,,,,,,,,,,,,,,,,,,,,,,,,,,,,,,,,,,,,,,,,,,,,solC,001,a,2019_Oct_10_1438,Experimento,3.2.3,60.088799466809625,
8,14,14,999,0.5,0:10,3,Cyan,None,0,0,1,20:50,./completed_changuitos/montage_tdscj_266.45_235.29.jpg,left,0,0,0,0,,,,,0,3,3,3,,,,,,,,,0,0,0,0,0,13,13,13,,,,,,,,,,,,,,,,,,,,,,,,,,,,,,,,,496.22238957340016,None,None,1,496.22238957340016,None,,,,,,,,,,,,,,,,,,,,,,,,,,,,,,,,,,,,,,,,,,,,,,solC,001,a,2019_Oct_10_1438,Experimento,3.2.3,60.088799466809625,
8,14,14,999,0.5,0:10,3,Blue,['space'],0,0,1,20:50,./completed_changuitos/montage_tdscj_266.45_235.29.jpg,left,0,0,0,0,,,,,0,3,3,3,,,,,,,,,0,0,0,0,0,14,14,14,,,,,,,,,,,,,,,,,,,,,,,,,,,,,,,,,496.22238957340016,None,None,0,496.22238957340016,None,,,,,,,,,,,,,,,,,,,,,,,,,,,,,,,,,,,,,,,,,,,,,,solC,001,a,2019_Oct_10_1438,Experimento,3.2.3,60.088799466809625,
8,14,14,999,0.5,0:10,3,Yellow,None,0,0,1,20:50,./completed_changuitos/montage_tdscj_266.45_235.29.jpg,left,0,0,0,0,,,,,0,3,3,3,,,,,,,,,0,0,0,0,0,15,15,15,,,,,,,,,,,,,,,,,,,,,,,,,,,,,,,,,496.22238957340016,None,None,1,496.22238957340016,None,,,,,,,,,,,,,,,,,,,,,,,,,,,,,,,,,,,,,,,,,,,,,,solC,001,a,2019_Oct_10_1438,Experimento,3.2.3,60.088799466809625,
8,14,14,999,0.5,0:10,3,Cyan,None,0,0,1,20:50,./completed_changuitos/montage_tdscj_266.45_235.29.jpg,left,0,0,0,0,,,,,0,3,3,3,,,,,,,,,0,0,0,0,0,16,16,16,,,,,,,,,,,,,,,,,,,,,,,,,,,,,,,,,496.22238957340016,None,None,1,496.22238957340016,None,,,,,,,,,,,,,,,,,,,,,,,,,,,,,,,,,,,,,,,,,,,,,,solC,001,a,2019_Oct_10_1438,Experimento,3.2.3,60.088799466809625,
8,14,14,999,0.5,0:10,3,Yellow,['space'],0,0,1,20:50,./completed_changuitos/montage_tdscj_266.45_235.29.jpg,left,0,0,0,0,,,,,0,3,3,3,,,,,,,,,0,0,0,0,0,17,17,17,,,,,,,,,,,,,,,,,,,,,,,,,,,,,,,,,496.23905038410015,None,None,0,496.23905038410015,None,,,,,,,,,,,,,,,,,,,,,,,,,,,,,,,,,,,,,,,,,,,,,,solC,001,a,2019_Oct_10_1438,Experimento,3.2.3,60.088799466809625,
8,14,14,999,0.5,0:10,3,Magenta,None,0,0,1,20:50,./completed_changuitos/montage_tdscj_266.45_235.29.jpg,left,0,0,0,0,,,,,0,3,3,3,,,,,,,,,0,0,0,0,0,18,18,18,,,,,,,,,,,,,,,,,,,,,,,,,,,,,,,,,496.23905038410015,None,None,1,496.23905038410015,None,,,,,,,,,,,,,,,,,,,,,,,,,,,,,,,,,,,,,,,,,,,,,,solC,001,a,2019_Oct_10_1438,Experimento,3.2.3,60.088799466809625,
8,14,14,999,0.5,0:10,3,Red,None,0,0,1,20:50,./completed_changuitos/montage_tdscj_266.45_235.29.jpg,left,0,0,0,0,,,,,0,3,3,3,,,,,,,,,0,0,0,0,0,19,19,19,,,,,,,,,,,,,,,,,,,,,,,,,,,,,,,,,496.23905038410015,None,None,1,496.23905038410015,None,,,,,,,,,,,,,,,,,,,,,,,,,,,,,,,,,,,,,,,,,,,,,,solC,001,a,2019_Oct_10_1438,Experimento,3.2.3,60.088799466809625,
8,14,14,999,0.5,0:10,3,Magenta,['space'],0,0,1,20:50,./completed_changuitos/montage_tdscj_266.45_235.29.jpg,left,0,0,0,0,,,,,0,3,3,3,,,,,,,,,0,0,0,0,0,20,20,20,,,,,,,,,,,,,,,,,,,,,,,,,,,,,,,,,496.23905038410015,None,None,0,496.23905038410015,None,,,,,,,,,,,,,,,,,,,,,,,,,,,,,,,,,,,,,,,,,,,,,,solC,001,a,2019_Oct_10_1438,Experimento,3.2.3,60.088799466809625,
8,14,14,999,0.5,0:10,3,Red,['space'],0,0,1,20:50,./completed_changuitos/montage_tdscj_266.45_235.29.jpg,left,0,0,0,0,,,,,0,3,3,3,,,,,,,,,0,0,0,0,0,21,21,21,,,,,,,,,,,,,,,,,,,,,,,,,,,,,,,,,496.23905038410015,None,None,0,496.23905038410015,None,,,,,,,,,,,,,,,,,,,,,,,,,,,,,,,,,,,,,,,,,,,,,,solC,001,a,2019_Oct_10_1438,Experimento,3.2.3,60.088799466809625,
8,14,14,999,0.5,0:10,3,Yellow,None,0,0,1,20:50,./completed_changuitos/montage_tdscj_266.45_235.29.jpg,left,0,0,0,0,,,,,0,3,3,3,,,,,,,,,0,0,0,0,0,22,22,22,,,,,,,,,,,,,,,,,,,,,,,,,,,,,,,,,496.23905038410015,None,None,1,496.23905038410015,None,,,,,,,,,,,,,,,,,,,,,,,,,,,,,,,,,,,,,,,,,,,,,,solC,001,a,2019_Oct_10_1438,Experimento,3.2.3,60.088799466809625,
8,14,14,999,0.5,0:10,3,Cyan,None,0,0,1,20:50,./completed_changuitos/montage_tdscj_266.45_235.29.jpg,left,0,0,0,0,,,,,0,3,3,3,,,,,,,,,0,0,0,0,0,23,23,23,,,,,,,,,,,,,,,,,,,,,,,,,,,,,,,,,496.23905038410015,None,None,1,496.23905038410015,None,,,,,,,,,,,,,,,,,,,,,,,,,,,,,,,,,,,,,,,,,,,,,,solC,001,a,2019_Oct_10_1438,Experimento,3.2.3,60.088799466809625,
8,14,14,999,0.5,0:10,3,Green,None,0,0,1,20:50,./completed_changuitos/montage_tdscj_266.45_235.29.jpg,left,0,0,0,0,,,,,0,3,3,3,,,,,,,,,0,0,0,0,0,24,24,24,,,,,,,,,,,,,,,,,,,,,,,,,,,,,,,,,496.23905038410015,None,None,1,496.23905038410015,None,,,,,,,,,,,,,,,,,,,,,,,,,,,,,,,,,,,,,,,,,,,,,,solC,001,a,2019_Oct_10_1438,Experimento,3.2.3,60.088799466809625,
8,14,14,999,0.5,0:10,3,White,None,0,0,1,20:50,./completed_changuitos/montage_tdscj_266.45_235.29.jpg,left,0,0,0,0,,,,,0,3,3,3,,,,,,,,,0,0,0,0,0,25,25,25,,,,,,,,,,,,,,,,,,,,,,,,,,,,,,,,,496.23905038410015,None,None,1,496.23905038410015,None,,,,,,,,,,,,,,,,,,,,,,,,,,,,,,,,,,,,,,,,,,,,,,solC,001,a,2019_Oct_10_1438,Experimento,3.2.3,60.088799466809625,
8,14,14,999,0.5,0:10,3,Green,['space'],0,0,1,20:50,./completed_changuitos/montage_tdscj_266.45_235.29.jpg,left,0,0,0,0,,,,,0,3,3,3,,,,,,,,,0,0,0,0,0,26,26,26,,,,,,,,,,,,,,,,,,,,,,,,,,,,,,,,,496.23905038410015,None,None,0,496.23905038410015,None,,,,,,,,,,,,,,,,,,,,,,,,,,,,,,,,,,,,,,,,,,,,,,solC,001,a,2019_Oct_10_1438,Experimento,3.2.3,60.088799466809625,
8,14,14,999,0.5,0:10,3,Red,None,0,0,1,20:50,./completed_changuitos/montage_tdscj_266.45_235.29.jpg,left,0,0,0,0,,,,,0,3,3,3,,,,,,,,,0,0,0,0,0,27,27,27,,,,,,,,,,,,,,,,,,,,,,,,,,,,,,,,,496.23905038410015,None,None,1,496.23905038410015,None,,,,,,,,,,,,,,,,,,,,,,,,,,,,,,,,,,,,,,,,,,,,,,solC,001,a,2019_Oct_10_1438,Experimento,3.2.3,60.088799466809625,
8,14,14,999,0.5,0:10,3,Blue,None,0,0,1,20:50,./completed_changuitos/montage_tdscj_266.45_235.29.jpg,left,0,0,0,0,,,,,0,3,3,3,,,,,,,,,0,0,0,0,0,28,28,28,,,,,,,,,,,,,,,,,,,,,,,,,,,,,,,,,496.23905038410015,None,None,1,496.23905038410015,None,,,,,,,,,,,,,,,,,,,,,,,,,,,,,,,,,,,,,,,,,,,,,,solC,001,a,2019_Oct_10_1438,Experimento,3.2.3,60.088799466809625,
8,14,14,999,0.5,0:10,3,Green,None,0,0,1,20:50,./completed_changuitos/montage_tdscj_266.45_235.29.jpg,left,0,0,0,0,,,,,0,3,3,3,,,,,,,,,0,0,0,0,0,29,29,29,,,,,,,,,,,,,,,,,,,,,,,,,,,,,,,,,496.23905038410015,None,None,1,496.23905038410015,None,,,,,,,,,,,,,,,,,,,,,,,,,,,,,,,,,,,,,,,,,,,,,,solC,001,a,2019_Oct_10_1438,Experimento,3.2.3,60.088799466809625,
8,14,14,999,0.5,0:10,3,,,0,0,1,20:50,./completed_changuitos/montage_tdscj_266.45_235.29.jpg,left,0,0,0,0,,,,,0,3,3,3,,,,,,,,,0,0,0,0,,,,,,,,,,,,,,,,,,,,,,,,,,,,,,,,,,,,,,,,,,,496.28116428200155,None,left,1,1.5074033090058947,496.28116428200155,None,496.28116428200155,None,,,,,,,,,,,,,,,,,,,,,,,,,,,,,,,,,,,,,solC,001,a,2019_Oct_10_1438,Experimento,3.2.3,60.088799466809625,
8,14,14,999,0.5,0:10,3,,,0,0,1,20:50,,,0,0,0,0,,,,,0,3,3,3,,,,,,,,,,,,,,,,,,,,,,,,,,,,,,,,,,,,,,,,,,,,,,,,,,,,,,,,,,,,,,,,,,,,,,,,,,,,,,,,,,,,,,,,,,,,,,,,,,,,solC,001,a,2019_Oct_10_1438,Experimento,3.2.3,60.088799466809625,
8,14,14,999,0.5,0:10,3,,,0,1,0,25:50,./completed_changuitos/montage_iznjr_28.9_32.75.jpg,right,0,0,0,0,,,,,0,4,4,4,,,,,0,0,0,0,,,,,,,,,,,,,,,,,,,,,,497.92879991600057,499.3379680229991,499.3379680229991,507.3522309849941,507.3522309849941,521.3637575299945,right,1,0.6336440259910887,521.3637575299945,None,521.3637575299945,None,521.3637575299945,None,,,,,,,,,,,,,,,,,,,,,,,,,,,,,,,,,,,,,,,,,,,,,,,,,,,,,,,,solC,001,a,2019_Oct_10_1438,Experimento,3.2.3,60.088799466809625,
8,14,14,999,0.5,0:10,3,,,0,1,0,25:50,,,0,0,0,0,,,,,0,4,4,4,,,,,,,,,,,,,,,,,,,,,,,,,,,,,,,,,,,,,,,,,,,,,,,,,,,,,,,,,,,,,,,,,,,,,,,,,,,,,,,,,,,,,,,,,,,,,,,,,,,,solC,001,a,2019_Oct_10_1438,Experimento,3.2.3,60.088799466809625,
8,14,14,999,0.5,0:10,3,Red,None,0,0,1,28:50,./completed_changuitos/montage_ttwnp_42.79_49.25.jpg,right,0,0,0,0,,,,,0,5,5,5,,,,,,,,,0,0,0,0,0,0,0,0,,,,,,,,,,,,,,,,,,,,,,,,,,,,,522.1423010620056,523.9295555809949,523.9295555809949,None,531.9711916520027,532.4766529659973,None,1,531.9711916520027,None,,,,,,,,,,,,,,,,,,,,,,,,,,,,,,,,,,,,,,,,,,,,,,solC,001,a,2019_Oct_10_1438,Experimento,3.2.3,60.088799466809625,
8,14,14,999,0.5,0:10,3,Magenta,['space'],0,0,1,28:50,./completed_changuitos/montage_ttwnp_42.79_49.25.jpg,right,0,0,0,0,,,,,0,5,5,5,,,,,,,,,0,0,0,0,0,1,1,1,,,,,,,,,,,,,,,,,,,,,,,,,,,,,,,,,533.9759822490014,534.4759398780006,None,0,533.9759822490014,533.9759822490014,,,,,,,,,,,,,,,,,,,,,,,,,,,,,,,,,,,,,,,,,,,,,,solC,001,a,2019_Oct_10_1438,Experimento,3.2.3,60.088799466809625,
8,14,14,999,0.5,0:10,3,Green,None,0,0,1,28:50,./completed_changuitos/montage_ttwnp_42.79_49.25.jpg,right,0,0,0,0,,,,,0,5,5,5,,,,,,,,,0,0,0,0,0,2,2,2,,,,,,,,,,,,,,,,,,,,,,,,,,,,,,,,,535.975453563995,536.4753201400017,None,1,535.975453563995,535.975453563995,,,,,,,,,,,,,,,,,,,,,,,,,,,,,,,,,,,,,,,,,,,,,,solC,001,a,2019_Oct_10_1438,Experimento,3.2.3,60.088799466809625,
8,14,14,999,0.5,0:10,3,Yellow,['space'],0,0,1,28:50,./completed_changuitos/montage_ttwnp_42.79_49.25.jpg,right,0,0,0,0,,,,,0,5,5,5,,,,,,,,,0,0,0,0,0,3,3,3,,,,,,,,,,,,,,,,,,,,,,,,,,,,,,,,,537.9747372270067,538.4747412750003,None,0,537.9747372270067,537.9747372270067,,,,,,,,,,,,,,,,,,,,,,,,,,,,,,,,,,,,,,,,,,,,,,solC,001,a,2019_Oct_10_1438,Experimento,3.2.3,60.088799466809625,
8,14,14,999,0.5,0:10,3,Blue,None,0,0,1,28:50,./completed_changuitos/montage_ttwnp_42.79_49.25.jpg,right,0,0,0,0,,,,,0,5,5,5,,,,,,,,,0,0,0,0,0,4,4,4,,,,,,,,,,,,,,,,,,,,,,,,,,,,,,,,,539.9740306309977,540.4739276670007,None,1,539.9740306309977,539.9740306309977,,,,,,,,,,,,,,,,,,,,,,,,,,,,,,,,,,,,,,,,,,,,,,solC,001,a,2019_Oct_10_1438,Experimento,3.2.3,60.088799466809625,
8,14,14,999,0.5,0:10,3,Cyan,None,0,0,1,28:50,./completed_changuitos/montage_ttwnp_42.79_49.25.jpg,right,0,0,0,0,,,,,0,5,5,5,,,,,,,,,0,0,0,0,0,5,5,5,,,,,,,,,,,,,,,,,,,,,,,,,,,,,,,,,541.9733831850026,542.4732203830063,None,1,541.9733831850026,541.9733831850026,,,,,,,,,,,,,,,,,,,,,,,,,,,,,,,,,,,,,,,,,,,,,,solC,001,a,2019_Oct_10_1438,Experimento,3.2.3,60.088799466809625,
8,14,14,999,0.5,0:10,3,Blue,['space'],0,0,1,28:50,./completed_changuitos/montage_ttwnp_42.79_49.25.jpg,right,0,0,0,0,,,,,0,5,5,5,,,,,,,,,0,0,0,0,0,6,6,6,,,,,,,,,,,,,,,,,,,,,,,,,,,,,,,,,543.9726674809936,544.4725335779949,['return'],0,543.9726674809936,543.9726674809936,,,,,,,,,,[0.7004081899940502],,,,,,,,,,,,,,,,,,,,,,,,,,,,,,,,,,,,solC,001,a,2019_Oct_10_1438,Experimento,3.2.3,60.088799466809625,
8,14,14,999,0.5,0:10,3,Yellow,None,0,0,1,28:50,./completed_changuitos/montage_ttwnp_42.79_49.25.jpg,right,0,0,0,0,,,,,0,5,5,5,,,,,,,,,0,0,0,0,0,7,7,7,,,,,,,,,,,,,,,,,,,,,,,,,,,,,,,,,545.9550324997006,None,None,1,545.9550324997006,None,,,,,,,,,,,,,,,,,,,,,,,,,,,,,,,,,,,,,,,,,,,,,,solC,001,a,2019_Oct_10_1438,Experimento,3.2.3,60.088799466809625,
8,14,14,999,0.5,0:10,3,Cyan,None,0,0,1,28:50,./completed_changuitos/montage_ttwnp_42.79_49.25.jpg,right,0,0,0,0,,,,,0,5,5,5,,,,,,,,,0,0,0,0,0,8,8,8,,,,,,,,,,,,,,,,,,,,,,,,,,,,,,,,,545.9550324997006,None,None,1,545.9550324997006,None,,,,,,,,,,,,,,,,,,,,,,,,,,,,,,,,,,,,,,,,,,,,,,solC,001,a,2019_Oct_10_1438,Experimento,3.2.3,60.088799466809625,
8,14,14,999,0.5,0:10,3,Yellow,['space'],0,0,1,28:50,./completed_changuitos/montage_ttwnp_42.79_49.25.jpg,right,0,0,0,0,,,,,0,5,5,5,,,,,,,,,0,0,0,0,0,9,9,9,,,,,,,,,,,,,,,,,,,,,,,,,,,,,,,,,545.9550324997006,None,None,0,545.9550324997006,None,,,,,,,,,,,,,,,,,,,,,,,,,,,,,,,,,,,,,,,,,,,,,,solC,001,a,2019_Oct_10_1438,Experimento,3.2.3,60.088799466809625,
8,14,14,999,0.5,0:10,3,Magenta,None,0,0,1,28:50,./completed_changuitos/montage_ttwnp_42.79_49.25.jpg,right,0,0,0,0,,,,,0,5,5,5,,,,,,,,,0,0,0,0,0,10,10,10,,,,,,,,,,,,,,,,,,,,,,,,,,,,,,,,,545.9550324997006,None,None,1,545.9550324997006,None,,,,,,,,,,,,,,,,,,,,,,,,,,,,,,,,,,,,,,,,,,,,,,solC,001,a,2019_Oct_10_1438,Experimento,3.2.3,60.088799466809625,
8,14,14,999,0.5,0:10,3,Red,None,0,0,1,28:50,./completed_changuitos/montage_ttwnp_42.79_49.25.jpg,right,0,0,0,0,,,,,0,5,5,5,,,,,,,,,0,0,0,0,0,11,11,11,,,,,,,,,,,,,,,,,,,,,,,,,,,,,,,,,545.9550324997006,None,None,1,545.9550324997006,None,,,,,,,,,,,,,,,,,,,,,,,,,,,,,,,,,,,,,,,,,,,,,,solC,001,a,2019_Oct_10_1438,Experimento,3.2.3,60.088799466809625,
8,14,14,999,0.5,0:10,3,Magenta,['space'],0,0,1,28:50,./completed_changuitos/montage_ttwnp_42.79_49.25.jpg,right,0,0,0,0,,,,,0,5,5,5,,,,,,,,,0,0,0,0,0,12,12,12,,,,,,,,,,,,,,,,,,,,,,,,,,,,,,,,,545.9550324997006,None,None,0,545.9550324997006,None,,,,,,,,,,,,,,,,,,,,,,,,,,,,,,,,,,,,,,,,,,,,,,solC,001,a,2019_Oct_10_1438,Experimento,3.2.3,60.088799466809625,
8,14,14,999,0.5,0:10,3,Red,['space'],0,0,1,28:50,./completed_changuitos/montage_ttwnp_42.79_49.25.jpg,right,0,0,0,0,,,,,0,5,5,5,,,,,,,,,0,0,0,0,0,13,13,13,,,,,,,,,,,,,,,,,,,,,,,,,,,,,,,,,545.9550324997006,None,None,0,545.9550324997006,None,,,,,,,,,,,,,,,,,,,,,,,,,,,,,,,,,,,,,,,,,,,,,,solC,001,a,2019_Oct_10_1438,Experimento,3.2.3,60.088799466809625,
8,14,14,999,0.5,0:10,3,Yellow,None,0,0,1,28:50,./completed_changuitos/montage_ttwnp_42.79_49.25.jpg,right,0,0,0,0,,,,,0,5,5,5,,,,,,,,,0,0,0,0,0,14,14,14,,,,,,,,,,,,,,,,,,,,,,,,,,,,,,,,,545.9550324997006,None,None,1,545.9550324997006,None,,,,,,,,,,,,,,,,,,,,,,,,,,,,,,,,,,,,,,,,,,,,,,solC,001,a,2019_Oct_10_1438,Experimento,3.2.3,60.088799466809625,
8,14,14,999,0.5,0:10,3,Cyan,None,0,0,1,28:50,./completed_changuitos/montage_ttwnp_42.79_49.25.jpg,right,0,0,0,0,,,,,0,5,5,5,,,,,,,,,0,0,0,0,0,15,15,15,,,,,,,,,,,,,,,,,,,,,,,,,,,,,,,,,545.9550324997006,None,None,1,545.9550324997006,None,,,,,,,,,,,,,,,,,,,,,,,,,,,,,,,,,,,,,,,,,,,,,,solC,001,a,2019_Oct_10_1438,Experimento,3.2.3,60.088799466809625,
8,14,14,999,0.5,0:10,3,Green,None,0,0,1,28:50,./completed_changuitos/montage_ttwnp_42.79_49.25.jpg,right,0,0,0,0,,,,,0,5,5,5,,,,,,,,,0,0,0,0,0,16,16,16,,,,,,,,,,,,,,,,,,,,,,,,,,,,,,,,,545.9550324997006,None,None,1,545.9550324997006,None,,,,,,,,,,,,,,,,,,,,,,,,,,,,,,,,,,,,,,,,,,,,,,solC,001,a,2019_Oct_10_1438,Experimento,3.2.3,60.088799466809625,
8,14,14,999,0.5,0:10,3,White,None,0,0,1,28:50,./completed_changuitos/montage_ttwnp_42.79_49.25.jpg,right,0,0,0,0,,,,,0,5,5,5,,,,,,,,,0,0,0,0,0,17,17,17,,,,,,,,,,,,,,,,,,,,,,,,,,,,,,,,,545.9550324997006,None,None,1,545.9550324997006,None,,,,,,,,,,,,,,,,,,,,,,,,,,,,,,,,,,,,,,,,,,,,,,solC,001,a,2019_Oct_10_1438,Experimento,3.2.3,60.088799466809625,
8,14,14,999,0.5,0:10,3,Green,['space'],0,0,1,28:50,./completed_changuitos/montage_ttwnp_42.79_49.25.jpg,right,0,0,0,0,,,,,0,5,5,5,,,,,,,,,0,0,0,0,0,18,18,18,,,,,,,,,,,,,,,,,,,,,,,,,,,,,,,,,545.9550324997006,None,None,0,545.9550324997006,None,,,,,,,,,,,,,,,,,,,,,,,,,,,,,,,,,,,,,,,,,,,,,,solC,001,a,2019_Oct_10_1438,Experimento,3.2.3,60.088799466809625,
8,14,14,999,0.5,0:10,3,Red,None,0,0,1,28:50,./completed_changuitos/montage_ttwnp_42.79_49.25.jpg,right,0,0,0,0,,,,,0,5,5,5,,,,,,,,,0,0,0,0,0,19,19,19,,,,,,,,,,,,,,,,,,,,,,,,,,,,,,,,,545.9716933104005,None,None,1,545.9716933104005,None,,,,,,,,,,,,,,,,,,,,,,,,,,,,,,,,,,,,,,,,,,,,,,solC,001,a,2019_Oct_10_1438,Experimento,3.2.3,60.088799466809625,
8,14,14,999,0.5,0:10,3,Blue,None,0,0,1,28:50,./completed_changuitos/montage_ttwnp_42.79_49.25.jpg,right,0,0,0,0,,,,,0,5,5,5,,,,,,,,,0,0,0,0,0,20,20,20,,,,,,,,,,,,,,,,,,,,,,,,,,,,,,,,,545.9716933104005,None,None,1,545.9716933104005,None,,,,,,,,,,,,,,,,,,,,,,,,,,,,,,,,,,,,,,,,,,,,,,solC,001,a,2019_Oct_10_1438,Experimento,3.2.3,60.088799466809625,
8,14,14,999,0.5,0:10,3,Green,None,0,0,1,28:50,./completed_changuitos/montage_ttwnp_42.79_49.25.jpg,right,0,0,0,0,,,,,0,5,5,5,,,,,,,,,0,0,0,0,0,21,21,21,,,,,,,,,,,,,,,,,,,,,,,,,,,,,,,,,545.9716933104005,None,None,1,545.9716933104005,None,,,,,,,,,,,,,,,,,,,,,,,,,,,,,,,,,,,,,,,,,,,,,,solC,001,a,2019_Oct_10_1438,Experimento,3.2.3,60.088799466809625,
8,14,14,999,0.5,0:10,3,,,0,0,1,28:50,./completed_changuitos/montage_ttwnp_42.79_49.25.jpg,right,0,0,0,0,,,,,0,5,5,5,,,,,,,,,0,0,0,0,,,,,,,,,,,,,,,,,,,,,,,,,,,,,,,,,,,,,,,,,,,546.0098275290075,None,left,0,1.677615620996221,546.0098275290075,None,546.0098275290075,None,,,,,,,,,,,,,,,,,,,,,,,,,,,,,,,,,,,,,solC,001,a,2019_Oct_10_1438,Experimento,3.2.3,60.088799466809625,
8,14,14,999,0.5,0:10,3,,,0,0,1,28:50,,,0,0,0,0,,,,,0,5,5,5,,,,,,,,,,,,,,,,,,,,,,,,,,,,,,,,,,,,,,,,,,,,,,,,,,,,,,,,,,,,,,,,,,,,,,,,,,,,,,,,,,,,,,,,,,,,,,,,,,,,solC,001,a,2019_Oct_10_1438,Experimento,3.2.3,60.088799466809625,
8,14,14,999,0.5,0:10,3,,,0,1,0,10:50,./completed_changuitos/montage_pvfrn_117.69_102.65.jpg,left,0,0,0,0,,,,,0,6,6,6,,,,,0,0,0,0,,,,,,,,,,,,,,,,,,,,,,547.8066695640009,548.8877363140055,548.8877363140055,556.9016766449931,556.9016766449931,570.9135021179973,right,0,0.6503287859959528,570.9135021179973,None,570.9135021179973,None,570.9135021179973,None,,,,,,,,,,,,,,,,,,,,,,,,,,,,,,,,,,,,,,,,,,,,,,,,,,,,,,,,solC,001,a,2019_Oct_10_1438,Experimento,3.2.3,60.088799466809625,
8,14,14,999,0.5,0:10,3,,,0,1,0,10:50,,,0,0,0,0,,,,,0,6,6,6,,,,,,,,,,,,,,,,,,,,,,,,,,,,,,,,,,,,,,,,,,,,,,,,,,,,,,,,,,,,,,,,,,,,,,,,,,,,,,,,,,,,,,,,,,,,,,,,,,,,solC,001,a,2019_Oct_10_1438,Experimento,3.2.3,60.088799466809625,
8,14,14,999,0.5,0:10,3,Yellow,None,0,0,1,15:50,./completed_changuitos/montage_kufts_88.85_76.49.jpg,left,0,0,0,0,,,,,0,7,7,7,,,,,,,,,0,0,0,0,0,0,0,0,,,,,,,,,,,,,,,,,,,,,,,,,,,,,571.6965052720043,573.5788311200013,573.5788311200013,None,581.5981580399966,582.111698734996,None,1,581.5981580399966,None,,,,,,,,,,,,,,,,,,,,,,,,,,,,,,,,,,,,,,,,,,,,,,solC,001,a,2019_Oct_10_1438,Experimento,3.2.3,60.088799466809625,
8,14,14,999,0.5,0:10,3,White,['space'],0,0,1,15:50,./completed_changuitos/montage_kufts_88.85_76.49.jpg,left,0,0,0,0,,,,,0,7,7,7,,,,,,,,,0,0,0,0,0,1,1,1,,,,,,,,,,,,,,,,,,,,,,,,,,,,,,,,,583.608831466001,584.1085645790008,None,0,583.608831466001,583.608831466001,,,,,,,,,,,,,,,,,,,,,,,,,,,,,,,,,,,,,,,,,,,,,,solC,001,a,2019_Oct_10_1438,Experimento,3.2.3,60.088799466809625,
8,14,14,999,0.5,0:10,3,Magenta,None,0,0,1,15:50,./completed_changuitos/montage_kufts_88.85_76.49.jpg,left,0,0,0,0,,,,,0,7,7,7,,,,,,,,,0,0,0,0,0,2,2,2,,,,,,,,,,,,,,,,,,,,,,,,,,,,,,,,,585.608605854999,586.107906499994,None,1,585.608605854999,585.608605854999,,,,,,,,,,,,,,,,,,,,,,,,,,,,,,,,,,,,,,,,,,,,,,solC,001,a,2019_Oct_10_1438,Experimento,3.2.3,60.088799466809625,
8,14,14,999,0.5,0:10,3,Cyan,None,0,0,1,15:50,./completed_changuitos/montage_kufts_88.85_76.49.jpg,left,0,0,0,0,,,,,0,7,7,7,,,,,,,,,0,0,0,0,0,3,3,3,,,,,,,,,,,,,,,,,,,,,,,,,,,,,,,,,587.6240260439954,588.1240754640021,None,1,587.6240260439954,587.6240260439954,,,,,,,,,,,,,,,,,,,,,,,,,,,,,,,,,,,,,,,,,,,,,,solC,001,a,2019_Oct_10_1438,Experimento,3.2.3,60.088799466809625,
8,14,14,999,0.5,0:10,3,Blue,None,0,0,1,15:50,./completed_changuitos/montage_kufts_88.85_76.49.jpg,left,0,0,0,0,,,,,0,7,7,7,,,,,,,,,0,0,0,0,0,4,4,4,,,,,,,,,,,,,,,,,,,,,,,,,,,,,,,,,589.6233513189945,590.1232120710047,None,1,589.6233513189945,589.6233513189945,,,,,,,,,,,,,,,,,,,,,,,,,,,,,,,,,,,,,,,,,,,,,,solC,001,a,2019_Oct_10_1438,Experimento,3.2.3,60.088799466809625,
8,14,14,999,0.5,0:10,3,Magenta,None,0,0,1,15:50,./completed_changuitos/montage_kufts_88.85_76.49.jpg,left,0,0,0,0,,,,,0,7,7,7,,,,,,,,,0,0,0,0,0,5,5,5,,,,,,,,,,,,,,,,,,,,,,,,,,,,,,,,,591.6226728330075,592.1225037060067,['return'],0,591.6226728330075,591.6226728330075,,,,,,,,,,[0.5506318340048892],,,,,,,,,,,,,,,,,,,,,,,,,,,,,,,,,,,,solC,001,a,2019_Oct_10_1438,Experimento,3.2.3,60.088799466809625,
8,14,14,999,0.5,0:10,3,Blue,['space'],0,0,1,15:50,./completed_changuitos/montage_kufts_88.85_76.49.jpg,left,0,0,0,0,,,,,0,7,7,7,,,,,,,,,0,0,0,0,0,6,6,6,,,,,,,,,,,,,,,,,,,,,,,,,,,,,,,,,593.6219809439935,594.1218392449955,['return'],0,593.6219809439935,593.6219809439935,,,,,,,,,,[0.6832794950023526],,,,,,,,,,,,,,,,,,,,,,,,,,,,,,,,,,,,solC,001,a,2019_Oct_10_1438,Experimento,3.2.3,60.088799466809625,
8,14,14,999,0.5,0:10,3,Cyan,None,0,0,1,15:50,./completed_changuitos/montage_kufts_88.85_76.49.jpg,left,0,0,0,0,,,,,0,7,7,7,,,,,,,,,0,0,0,0,0,7,7,7,,,,,,,,,,,,,,,,,,,,,,,,,,,,,,,,,595.6046421696999,None,None,1,595.6046421696999,None,,,,,,,,,,,,,,,,,,,,,,,,,,,,,,,,,,,,,,,,,,,,,,solC,001,a,2019_Oct_10_1438,Experimento,3.2.3,60.088799466809625,
8,14,14,999,0.5,0:10,3,Yellow,None,0,0,1,15:50,./completed_changuitos/montage_kufts_88.85_76.49.jpg,left,0,0,0,0,,,,,0,7,7,7,,,,,,,,,0,0,0,0,0,8,8,8,,,,,,,,,,,,,,,,,,,,,,,,,,,,,,,,,595.6046421696999,None,None,1,595.6046421696999,None,,,,,,,,,,,,,,,,,,,,,,,,,,,,,,,,,,,,,,,,,,,,,,solC,001,a,2019_Oct_10_1438,Experimento,3.2.3,60.088799466809625,
8,14,14,999,0.5,0:10,3,Cyan,None,0,0,1,15:50,./completed_changuitos/montage_kufts_88.85_76.49.jpg,left,0,0,0,0,,,,,0,7,7,7,,,,,,,,,0,0,0,0,0,9,9,9,,,,,,,,,,,,,,,,,,,,,,,,,,,,,,,,,595.6046421696999,None,None,1,595.6046421696999,None,,,,,,,,,,,,,,,,,,,,,,,,,,,,,,,,,,,,,,,,,,,,,,solC,001,a,2019_Oct_10_1438,Experimento,3.2.3,60.088799466809625,
8,14,14,999,0.5,0:10,3,Blue,None,0,0,1,15:50,./completed_changuitos/montage_kufts_88.85_76.49.jpg,left,0,0,0,0,,,,,0,7,7,7,,,,,,,,,0,0,0,0,0,10,10,10,,,,,,,,,,,,,,,,,,,,,,,,,,,,,,,,,595.6046421696999,None,None,1,595.6046421696999,None,,,,,,,,,,,,,,,,,,,,,,,,,,,,,,,,,,,,,,,,,,,,,,solC,001,a,2019_Oct_10_1438,Experimento,3.2.3,60.088799466809625,
8,14,14,999,0.5,0:10,3,Cyan,['space'],0,0,1,15:50,./completed_changuitos/montage_kufts_88.85_76.49.jpg,left,0,0,0,0,,,,,0,7,7,7,,,,,,,,,0,0,0,0,0,11,11,11,,,,,,,,,,,,,,,,,,,,,,,,,,,,,,,,,595.6046421696999,None,None,0,595.6046421696999,None,,,,,,,,,,,,,,,,,,,,,,,,,,,,,,,,,,,,,,,,,,,,,,solC,001,a,2019_Oct_10_1438,Experimento,3.2.3,60.088799466809625,
8,14,14,999,0.5,0:10,3,Magenta,None,0,0,1,15:50,./completed_changuitos/montage_kufts_88.85_76.49.jpg,left,0,0,0,0,,,,,0,7,7,7,,,,,,,,,0,0,0,0,0,12,12,12,,,,,,,,,,,,,,,,,,,,,,,,,,,,,,,,,595.6046421696999,None,None,1,595.6046421696999,None,,,,,,,,,,,,,,,,,,,,,,,,,,,,,,,,,,,,,,,,,,,,,,solC,001,a,2019_Oct_10_1438,Experimento,3.2.3,60.088799466809625,
8,14,14,999,0.5,0:10,3,Red,None,0,0,1,15:50,./completed_changuitos/montage_kufts_88.85_76.49.jpg,left,0,0,0,0,,,,,0,7,7,7,,,,,,,,,0,0,0,0,0,13,13,13,,,,,,,,,,,,,,,,,,,,,,,,,,,,,,,,,595.6046421696999,None,None,1,595.6046421696999,None,,,,,,,,,,,,,,,,,,,,,,,,,,,,,,,,,,,,,,,,,,,,,,solC,001,a,2019_Oct_10_1438,Experimento,3.2.3,60.088799466809625,
8,14,14,999,0.5,0:10,3,Magenta,['space'],0,0,1,15:50,./completed_changuitos/montage_kufts_88.85_76.49.jpg,left,0,0,0,0,,,,,0,7,7,7,,,,,,,,,0,0,0,0,0,14,14,14,,,,,,,,,,,,,,,,,,,,,,,,,,,,,,,,,595.6046421696999,None,None,0,595.6046421696999,None,,,,,,,,,,,,,,,,,,,,,,,,,,,,,,,,,,,,,,,,,,,,,,solC,001,a,2019_Oct_10_1438,Experimento,3.2.3,60.088799466809625,
8,14,14,999,0.5,0:10,3,Green,None,0,0,1,15:50,./completed_changuitos/montage_kufts_88.85_76.49.jpg,left,0,0,0,0,,,,,0,7,7,7,,,,,,,,,0,0,0,0,0,15,15,15,,,,,,,,,,,,,,,,,,,,,,,,,,,,,,,,,595.6046421696999,None,None,1,595.6046421696999,None,,,,,,,,,,,,,,,,,,,,,,,,,,,,,,,,,,,,,,,,,,,,,,solC,001,a,2019_Oct_10_1438,Experimento,3.2.3,60.088799466809625,
8,14,14,999,0.5,0:10,3,Yellow,['space'],0,0,1,15:50,./completed_changuitos/montage_kufts_88.85_76.49.jpg,left,0,0,0,0,,,,,0,7,7,7,,,,,,,,,0,0,0,0,0,16,16,16,,,,,,,,,,,,,,,,,,,,,,,,,,,,,,,,,595.6046421696999,None,None,0,595.6046421696999,None,,,,,,,,,,,,,,,,,,,,,,,,,,,,,,,,,,,,,,,,,,,,,,solC,001,a,2019_Oct_10_1438,Experimento,3.2.3,60.088799466809625,
8,14,14,999,0.5,0:10,3,Blue,None,0,0,1,15:50,./completed_changuitos/montage_kufts_88.85_76.49.jpg,left,0,0,0,0,,,,,0,7,7,7,,,,,,,,,0,0,0,0,0,17,17,17,,,,,,,,,,,,,,,,,,,,,,,,,,,,,,,,,595.6046421696999,None,None,1,595.6046421696999,None,,,,,,,,,,,,,,,,,,,,,,,,,,,,,,,,,,,,,,,,,,,,,,solC,001,a,2019_Oct_10_1438,Experimento,3.2.3,60.088799466809625,
8,14,14,999,0.5,0:10,3,Cyan,None,0,0,1,15:50,./completed_changuitos/montage_kufts_88.85_76.49.jpg,left,0,0,0,0,,,,,0,7,7,7,,,,,,,,,0,0,0,0,0,18,18,18,,,,,,,,,,,,,,,,,,,,,,,,,,,,,,,,,595.6046421696999,None,None,1,595.6046421696999,None,,,,,,,,,,,,,,,,,,,,,,,,,,,,,,,,,,,,,,,,,,,,,,solC,001,a,2019_Oct_10_1438,Experimento,3.2.3,60.088799466809625,
8,14,14,999,0.5,0:10,3,Blue,['space'],0,0,1,15:50,./completed_changuitos/montage_kufts_88.85_76.49.jpg,left,0,0,0,0,,,,,0,7,7,7,,,,,,,,,0,0,0,0,0,19,19,19,,,,,,,,,,,,,,,,,,,,,,,,,,,,,,,,,595.6046421696999,None,None,0,595.6046421696999,None,,,,,,,,,,,,,,,,,,,,,,,,,,,,,,,,,,,,,,,,,,,,,,solC,001,a,2019_Oct_10_1438,Experimento,3.2.3,60.088799466809625,
8,14,14,999,0.5,0:10,3,Yellow,None,0,0,1,15:50,./completed_changuitos/montage_kufts_88.85_76.49.jpg,left,0,0,0,0,,,,,0,7,7,7,,,,,,,,,0,0,0,0,0,20,20,20,,,,,,,,,,,,,,,,,,,,,,,,,,,,,,,,,595.6046421696999,None,None,1,595.6046421696999,None,,,,,,,,,,,,,,,,,,,,,,,,,,,,,,,,,,,,,,,,,,,,,,solC,001,a,2019_Oct_10_1438,Experimento,3.2.3,60.088799466809625,
8,14,14,999,0.5,0:10,3,Cyan,None,0,0,1,15:50,./completed_changuitos/montage_kufts_88.85_76.49.jpg,left,0,0,0,0,,,,,0,7,7,7,,,,,,,,,0,0,0,0,0,21,21,21,,,,,,,,,,,,,,,,,,,,,,,,,,,,,,,,,595.6046421696999,None,None,1,595.6046421696999,None,,,,,,,,,,,,,,,,,,,,,,,,,,,,,,,,,,,,,,,,,,,,,,solC,001,a,2019_Oct_10_1438,Experimento,3.2.3,60.088799466809625,
8,14,14,999,0.5,0:10,3,Yellow,['space'],0,0,1,15:50,./completed_changuitos/montage_kufts_88.85_76.49.jpg,left,0,0,0,0,,,,,0,7,7,7,,,,,,,,,0,0,0,0,0,22,22,22,,,,,,,,,,,,,,,,,,,,,,,,,,,,,,,,,595.6213029803998,None,None,0,595.6213029803998,None,,,,,,,,,,,,,,,,,,,,,,,,,,,,,,,,,,,,,,,,,,,,,,solC,001,a,2019_Oct_10_1438,Experimento,3.2.3,60.088799466809625,
8,14,14,999,0.5,0:10,3,Magenta,None,0,0,1,15:50,./completed_changuitos/montage_kufts_88.85_76.49.jpg,left,0,0,0,0,,,,,0,7,7,7,,,,,,,,,0,0,0,0,0,23,23,23,,,,,,,,,,,,,,,,,,,,,,,,,,,,,,,,,595.6213029803998,None,None,1,595.6213029803998,None,,,,,,,,,,,,,,,,,,,,,,,,,,,,,,,,,,,,,,,,,,,,,,solC,001,a,2019_Oct_10_1438,Experimento,3.2.3,60.088799466809625,
8,14,14,999,0.5,0:10,3,Red,None,0,0,1,15:50,./completed_changuitos/montage_kufts_88.85_76.49.jpg,left,0,0,0,0,,,,,0,7,7,7,,,,,,,,,0,0,0,0,0,24,24,24,,,,,,,,,,,,,,,,,,,,,,,,,,,,,,,,,595.6213029803998,None,None,1,595.6213029803998,None,,,,,,,,,,,,,,,,,,,,,,,,,,,,,,,,,,,,,,,,,,,,,,solC,001,a,2019_Oct_10_1438,Experimento,3.2.3,60.088799466809625,
8,14,14,999,0.5,0:10,3,Magenta,['space'],0,0,1,15:50,./completed_changuitos/montage_kufts_88.85_76.49.jpg,left,0,0,0,0,,,,,0,7,7,7,,,,,,,,,0,0,0,0,0,25,25,25,,,,,,,,,,,,,,,,,,,,,,,,,,,,,,,,,595.6213029803998,None,None,0,595.6213029803998,None,,,,,,,,,,,,,,,,,,,,,,,,,,,,,,,,,,,,,,,,,,,,,,solC,001,a,2019_Oct_10_1438,Experimento,3.2.3,60.088799466809625,
8,14,14,999,0.5,0:10,3,Red,['space'],0,0,1,15:50,./completed_changuitos/montage_kufts_88.85_76.49.jpg,left,0,0,0,0,,,,,0,7,7,7,,,,,,,,,0,0,0,0,0,26,26,26,,,,,,,,,,,,,,,,,,,,,,,,,,,,,,,,,595.6213029803998,None,None,0,595.6213029803998,None,,,,,,,,,,,,,,,,,,,,,,,,,,,,,,,,,,,,,,,,,,,,,,solC,001,a,2019_Oct_10_1438,Experimento,3.2.3,60.088799466809625,
8,14,14,999,0.5,0:10,3,Yellow,None,0,0,1,15:50,./completed_changuitos/montage_kufts_88.85_76.49.jpg,left,0,0,0,0,,,,,0,7,7,7,,,,,,,,,0,0,0,0,0,27,27,27,,,,,,,,,,,,,,,,,,,,,,,,,,,,,,,,,595.6213029803998,None,None,1,595.6213029803998,None,,,,,,,,,,,,,,,,,,,,,,,,,,,,,,,,,,,,,,,,,,,,,,solC,001,a,2019_Oct_10_1438,Experimento,3.2.3,60.088799466809625,
8,14,14,999,0.5,0:10,3,Cyan,None,0,0,1,15:50,./completed_changuitos/montage_kufts_88.85_76.49.jpg,left,0,0,0,0,,,,,0,7,7,7,,,,,,,,,0,0,0,0,0,28,28,28,,,,,,,,,,,,,,,,,,,,,,,,,,,,,,,,,595.6213029803998,None,None,1,595.6213029803998,None,,,,,,,,,,,,,,,,,,,,,,,,,,,,,,,,,,,,,,,,,,,,,,solC,001,a,2019_Oct_10_1438,Experimento,3.2.3,60.088799466809625,
8,14,14,999,0.5,0:10,3,Green,None,0,0,1,15:50,./completed_changuitos/montage_kufts_88.85_76.49.jpg,left,0,0,0,0,,,,,0,7,7,7,,,,,,,,,0,0,0,0,0,29,29,29,,,,,,,,,,,,,,,,,,,,,,,,,,,,,,,,,595.6213029803998,None,None,1,595.6213029803998,None,,,,,,,,,,,,,,,,,,,,,,,,,,,,,,,,,,,,,,,,,,,,,,solC,001,a,2019_Oct_10_1438,Experimento,3.2.3,60.088799466809625,
8,14,14,999,0.5,0:10,3,White,None,0,0,1,15:50,./completed_changuitos/montage_kufts_88.85_76.49.jpg,left,0,0,0,0,,,,,0,7,7,7,,,,,,,,,0,0,0,0,0,30,30,30,,,,,,,,,,,,,,,,,,,,,,,,,,,,,,,,,595.6213029803998,None,None,1,595.6213029803998,None,,,,,,,,,,,,,,,,,,,,,,,,,,,,,,,,,,,,,,,,,,,,,,solC,001,a,2019_Oct_10_1438,Experimento,3.2.3,60.088799466809625,
8,14,14,999,0.5,0:10,3,Green,['space'],0,0,1,15:50,./completed_changuitos/montage_kufts_88.85_76.49.jpg,left,0,0,0,0,,,,,0,7,7,7,,,,,,,,,0,0,0,0,0,31,31,31,,,,,,,,,,,,,,,,,,,,,,,,,,,,,,,,,595.6213029803998,None,None,0,595.6213029803998,None,,,,,,,,,,,,,,,,,,,,,,,,,,,,,,,,,,,,,,,,,,,,,,solC,001,a,2019_Oct_10_1438,Experimento,3.2.3,60.088799466809625,
8,14,14,999,0.5,0:10,3,Red,None,0,0,1,15:50,./completed_changuitos/montage_kufts_88.85_76.49.jpg,left,0,0,0,0,,,,,0,7,7,7,,,,,,,,,0,0,0,0,0,32,32,32,,,,,,,,,,,,,,,,,,,,,,,,,,,,,,,,,595.6213029803998,None,None,1,595.6213029803998,None,,,,,,,,,,,,,,,,,,,,,,,,,,,,,,,,,,,,,,,,,,,,,,solC,001,a,2019_Oct_10_1438,Experimento,3.2.3,60.088799466809625,
8,14,14,999,0.5,0:10,3,Blue,None,0,0,1,15:50,./completed_changuitos/montage_kufts_88.85_76.49.jpg,left,0,0,0,0,,,,,0,7,7,7,,,,,,,,,0,0,0,0,0,33,33,33,,,,,,,,,,,,,,,,,,,,,,,,,,,,,,,,,595.6213029803998,None,None,1,595.6213029803998,None,,,,,,,,,,,,,,,,,,,,,,,,,,,,,,,,,,,,,,,,,,,,,,solC,001,a,2019_Oct_10_1438,Experimento,3.2.3,60.088799466809625,
8,14,14,999,0.5,0:10,3,Green,None,0,0,1,15:50,./completed_changuitos/montage_kufts_88.85_76.49.jpg,left,0,0,0,0,,,,,0,7,7,7,,,,,,,,,0,0,0,0,0,34,34,34,,,,,,,,,,,,,,,,,,,,,,,,,,,,,,,,,595.6213029803998,None,None,1,595.6213029803998,None,,,,,,,,,,,,,,,,,,,,,,,,,,,,,,,,,,,,,,,,,,,,,,solC,001,a,2019_Oct_10_1438,Experimento,3.2.3,60.088799466809625,
8,14,14,999,0.5,0:10,3,,,0,0,1,15:50,./completed_changuitos/montage_kufts_88.85_76.49.jpg,left,0,0,0,0,,,,,0,7,7,7,,,,,,,,,0,0,0,0,,,,,,,,,,,,,,,,,,,,,,,,,,,,,,,,,,,,,,,,,,,595.6614176659932,None,left,1,1.508862472997862,595.6614176659932,None,595.6614176659932,None,,,,,,,,,,,,,,,,,,,,,,,,,,,,,,,,,,,,,solC,001,a,2019_Oct_10_1438,Experimento,3.2.3,60.088799466809625,
8,14,14,999,0.5,0:10,3,,,0,0,1,15:50,,,0,0,0,0,,,,,0,7,7,7,,,,,,,,,,,,,,,,,,,,,,,,,,,,,,,,,,,,,,,,,,,,,,,,,,,,,,,,,,,,,,,,,,,,,,,,,,,,,,,,,,,,,,,,,,,,,,,,,,,,solC,001,a,2019_Oct_10_1438,Experimento,3.2.3,60.088799466809625,
8,14,14,999,0.5,0:10,3,,,0,1,0,19:50,./completed_changuitos/montage_vthoz_217.2_247.19.jpg,right,0,0,0,0,,,,,0,8,8,8,,,,,0,0,0,0,,,,,,,,,,,,,,,,,,,,,,597.2927532600006,598.1541275399941,598.1541275399941,606.168128270001,606.168128270001,620.1799851810065,left,0,0.9002085980027914,620.1799851810065,None,620.1799851810065,None,620.1799851810065,None,,,,,,,,,,,,,,,,,,,,,,,,,,,,,,,,,,,,,,,,,,,,,,,,,,,,,,,,solC,001,a,2019_Oct_10_1438,Experimento,3.2.3,60.088799466809625,
8,14,14,999,0.5,0:10,3,,,0,1,0,19:50,,,0,0,0,0,,,,,0,8,8,8,,,,,,,,,,,,,,,,,,,,,,,,,,,,,,,,,,,,,,,,,,,,,,,,,,,,,,,,,,,,,,,,,,,,,,,,,,,,,,,,,,,,,,,,,,,,,,,,,,,,solC,001,a,2019_Oct_10_1438,Experimento,3.2.3,60.088799466809625,
8,14,14,999,0.5,0:10,3,Magenta,None,0,0,1,20:50,./completed_changuitos/montage_qymbc_59.9_67.95.jpg,right,0,0,0,0,,,,,0,9,9,9,,,,,,,,,0,0,0,0,0,0,0,0,,,,,,,,,,,,,,,,,,,,,,,,,,,,,621.2174804620008,622.2292798410053,622.2292798410053,None,630.2712278270046,630.7764043299976,None,1,630.2712278270046,None,,,,,,,,,,,,,,,,,,,,,,,,,,,,,,,,,,,,,,,,,,,,,,solC,001,a,2019_Oct_10_1438,Experimento,3.2.3,60.088799466809625,
8,14,14,999,0.5,0:10,3,Blue,['space'],0,0,1,20:50,./completed_changuitos/montage_qymbc_59.9_67.95.jpg,right,0,0,0,0,,,,,0,9,9,9,,,,,,,,,0,0,0,0,0,1,1,1,,,,,,,,,,,,,,,,,,,,,,,,,,,,,,,,,632.2757370979962,632.7757219180057,None,0,632.2757370979962,632.2757370979962,,,,,,,,,,,,,,,,,,,,,,,,,,,,,,,,,,,,,,,,,,,,,,solC,001,a,2019_Oct_10_1438,Experimento,3.2.3,60.088799466809625,
8,14,14,999,0.5,0:10,3,Cyan,None,0,0,1,20:50,./completed_changuitos/montage_qymbc_59.9_67.95.jpg,right,0,0,0,0,,,,,0,9,9,9,,,,,,,,,0,0,0,0,0,2,2,2,,,,,,,,,,,,,,,,,,,,,,,,,,,,,,,,,634.2751298499934,634.7750161349977,None,1,634.2751298499934,634.2751298499934,,,,,,,,,,,,,,,,,,,,,,,,,,,,,,,,,,,,,,,,,,,,,,solC,001,a,2019_Oct_10_1438,Experimento,3.2.3,60.088799466809625,
8,14,14,999,0.5,0:10,3,Yellow,None,0,0,1,20:50,./completed_changuitos/montage_qymbc_59.9_67.95.jpg,right,0,0,0,0,,,,,0,9,9,9,,,,,,,,,0,0,0,0,0,3,3,3,,,,,,,,,,,,,,,,,,,,,,,,,,,,,,,,,636.2744489619945,636.7743663919973,None,1,636.2744489619945,636.2744489619945,,,,,,,,,,,,,,,,,,,,,,,,,,,,,,,,,,,,,,,,,,,,,,solC,001,a,2019_Oct_10_1438,Experimento,3.2.3,60.088799466809625,
8,14,14,999,0.5,0:10,3,Cyan,None,0,0,1,20:50,./completed_changuitos/montage_qymbc_59.9_67.95.jpg,right,0,0,0,0,,,,,0,9,9,9,,,,,,,,,0,0,0,0,0,4,4,4,,,,,,,,,,,,,,,,,,,,,,,,,,,,,,,,,638.2737790319952,638.773623903995,['return'],0,638.2737790319952,638.2737790319952,,,,,,,,,,[0.5670890300098108],,,,,,,,,,,,,,,,,,,,,,,,,,,,,,,,,,,,solC,001,a,2019_Oct_10_1438,Experimento,3.2.3,60.088799466809625,
8,14,14,999,0.5,0:10,3,Blue,None,0,0,1,20:50,./completed_changuitos/montage_qymbc_59.9_67.95.jpg,right,0,0,0,0,,,,,0,9,9,9,,,,,,,,,0,0,0,0,0,5,5,5,,,,,,,,,,,,,,,,,,,,,,,,,,,,,,,,,640.2893837409938,640.7896666769957,['return'],0,640.2893837409938,640.2893837409938,,,,,,,,,,[0.767462431002059],,,,,,,,,,,,,,,,,,,,,,,,,,,,,,,,,,,,solC,001,a,2019_Oct_10_1438,Experimento,3.2.3,60.088799466809625,
8,14,14,999,0.5,0:10,3,Cyan,['space'],0,0,1,20:50,./completed_changuitos/montage_qymbc_59.9_67.95.jpg,right,0,0,0,0,,,,,0,9,9,9,,,,,,,,,0,0,0,0,0,6,6,6,,,,,,,,,,,,,,,,,,,,,,,,,,,,,,,,,642.2890797900036,642.7889122990018,['return'],0,642.2890797900036,642.2890797900036,,,,,,,,,,[0.9660865860059857],,,,,,,,,,,,,,,,,,,,,,,,,,,,,,,,,,,,solC,001,a,2019_Oct_10_1438,Experimento,3.2.3,60.088799466809625,
8,14,14,999,0.5,0:10,3,Magenta,None,0,0,1,20:50,./completed_changuitos/montage_qymbc_59.9_67.95.jpg,right,0,0,0,0,,,,,0,9,9,9,,,,,,,,,0,0,0,0,0,7,7,7,,,,,,,,,,,,,,,,,,,,,,,,,,,,,,,,,644.2547091696949,None,None,1,644.2547091696949,None,,,,,,,,,,,,,,,,,,,,,,,,,,,,,,,,,,,,,,,,,,,,,,solC,001,a,2019_Oct_10_1438,Experimento,3.2.3,60.088799466809625,
8,14,14,999,0.5,0:10,3,Red,None,0,0,1,20:50,./completed_changuitos/montage_qymbc_59.9_67.95.jpg,right,0,0,0,0,,,,,0,9,9,9,,,,,,,,,0,0,0,0,0,8,8,8,,,,,,,,,,,,,,,,,,,,,,,,,,,,,,,,,644.2547091696949,None,None,1,644.2547091696949,None,,,,,,,,,,,,,,,,,,,,,,,,,,,,,,,,,,,,,,,,,,,,,,solC,001,a,2019_Oct_10_1438,Experimento,3.2.3,60.088799466809625,
8,14,14,999,0.5,0:10,3,Magenta,['space'],0,0,1,20:50,./completed_changuitos/montage_qymbc_59.9_67.95.jpg,right,0,0,0,0,,,,,0,9,9,9,,,,,,,,,0,0,0,0,0,9,9,9,,,,,,,,,,,,,,,,,,,,,,,,,,,,,,,,,644.2547091696949,None,None,0,644.2547091696949,None,,,,,,,,,,,,,,,,,,,,,,,,,,,,,,,,,,,,,,,,,,,,,,solC,001,a,2019_Oct_10_1438,Experimento,3.2.3,60.088799466809625,
8,14,14,999,0.5,0:10,3,Green,None,0,0,1,20:50,./completed_changuitos/montage_qymbc_59.9_67.95.jpg,right,0,0,0,0,,,,,0,9,9,9,,,,,,,,,0,0,0,0,0,10,10,10,,,,,,,,,,,,,,,,,,,,,,,,,,,,,,,,,644.2547091696949,None,None,1,644.2547091696949,None,,,,,,,,,,,,,,,,,,,,,,,,,,,,,,,,,,,,,,,,,,,,,,solC,001,a,2019_Oct_10_1438,Experimento,3.2.3,60.088799466809625,
8,14,14,999,0.5,0:10,3,Yellow,['space'],0,0,1,20:50,./completed_changuitos/montage_qymbc_59.9_67.95.jpg,right,0,0,0,0,,,,,0,9,9,9,,,,,,,,,0,0,0,0,0,11,11,11,,,,,,,,,,,,,,,,,,,,,,,,,,,,,,,,,644.2547091696949,None,None,0,644.2547091696949,None,,,,,,,,,,,,,,,,,,,,,,,,,,,,,,,,,,,,,,,,,,,,,,solC,001,a,2019_Oct_10_1438,Experimento,3.2.3,60.088799466809625,
8,14,14,999,0.5,0:10,3,Blue,None,0,0,1,20:50,./completed_changuitos/montage_qymbc_59.9_67.95.jpg,right,0,0,0,0,,,,,0,9,9,9,,,,,,,,,0,0,0,0,0,12,12,12,,,,,,,,,,,,,,,,,,,,,,,,,,,,,,,,,644.2547091696949,None,None,1,644.2547091696949,None,,,,,,,,,,,,,,,,,,,,,,,,,,,,,,,,,,,,,,,,,,,,,,solC,001,a,2019_Oct_10_1438,Experimento,3.2.3,60.088799466809625,
8,14,14,999,0.5,0:10,3,Cyan,None,0,0,1,20:50,./completed_changuitos/montage_qymbc_59.9_67.95.jpg,right,0,0,0,0,,,,,0,9,9,9,,,,,,,,,0,0,0,0,0,13,13,13,,,,,,,,,,,,,,,,,,,,,,,,,,,,,,,,,644.2547091696949,None,None,1,644.2547091696949,None,,,,,,,,,,,,,,,,,,,,,,,,,,,,,,,,,,,,,,,,,,,,,,solC,001,a,2019_Oct_10_1438,Experimento,3.2.3,60.088799466809625,
8,14,14,999,0.5,0:10,3,Blue,['space'],0,0,1,20:50,./completed_changuitos/montage_qymbc_59.9_67.95.jpg,right,0,0,0,0,,,,,0,9,9,9,,,,,,,,,0,0,0,0,0,14,14,14,,,,,,,,,,,,,,,,,,,,,,,,,,,,,,,,,644.2547091696949,None,None,0,644.2547091696949,None,,,,,,,,,,,,,,,,,,,,,,,,,,,,,,,,,,,,,,,,,,,,,,solC,001,a,2019_Oct_10_1438,Experimento,3.2.3,60.088799466809625,
8,14,14,999,0.5,0:10,3,Yellow,None,0,0,1,20:50,./completed_changuitos/montage_qymbc_59.9_67.95.jpg,right,0,0,0,0,,,,,0,9,9,9,,,,,,,,,0,0,0,0,0,15,15,15,,,,,,,,,,,,,,,,,,,,,,,,,,,,,,,,,644.2547091696949,None,None,1,644.2547091696949,None,,,,,,,,,,,,,,,,,,,,,,,,,,,,,,,,,,,,,,,,,,,,,,solC,001,a,2019_Oct_10_1438,Experimento,3.2.3,60.088799466809625,
8,14,14,999,0.5,0:10,3,Cyan,None,0,0,1,20:50,./completed_changuitos/montage_qymbc_59.9_67.95.jpg,right,0,0,0,0,,,,,0,9,9,9,,,,,,,,,0,0,0,0,0,16,16,16,,,,,,,,,,,,,,,,,,,,,,,,,,,,,,,,,644.2547091696949,None,None,1,644.2547091696949,None,,,,,,,,,,,,,,,,,,,,,,,,,,,,,,,,,,,,,,,,,,,,,,solC,001,a,2019_Oct_10_1438,Experimento,3.2.3,60.088799466809625,
8,14,14,999,0.5,0:10,3,Yellow,['space'],0,0,1,20:50,./completed_changuitos/montage_qymbc_59.9_67.95.jpg,right,0,0,0,0,,,,,0,9,9,9,,,,,,,,,0,0,0,0,0,17,17,17,,,,,,,,,,,,,,,,,,,,,,,,,,,,,,,,,644.2547091696949,None,None,0,644.2547091696949,None,,,,,,,,,,,,,,,,,,,,,,,,,,,,,,,,,,,,,,,,,,,,,,solC,001,a,2019_Oct_10_1438,Experimento,3.2.3,60.088799466809625,
8,14,14,999,0.5,0:10,3,Magenta,None,0,0,1,20:50,./completed_changuitos/montage_qymbc_59.9_67.95.jpg,right,0,0,0,0,,,,,0,9,9,9,,,,,,,,,0,0,0,0,0,18,18,18,,,,,,,,,,,,,,,,,,,,,,,,,,,,,,,,,644.2547091696949,None,None,1,644.2547091696949,None,,,,,,,,,,,,,,,,,,,,,,,,,,,,,,,,,,,,,,,,,,,,,,solC,001,a,2019_Oct_10_1438,Experimento,3.2.3,60.088799466809625,
8,14,14,999,0.5,0:10,3,Red,None,0,0,1,20:50,./completed_changuitos/montage_qymbc_59.9_67.95.jpg,right,0,0,0,0,,,,,0,9,9,9,,,,,,,,,0,0,0,0,0,19,19,19,,,,,,,,,,,,,,,,,,,,,,,,,,,,,,,,,644.2547091696949,None,None,1,644.2547091696949,None,,,,,,,,,,,,,,,,,,,,,,,,,,,,,,,,,,,,,,,,,,,,,,solC,001,a,2019_Oct_10_1438,Experimento,3.2.3,60.088799466809625,
8,14,14,999,0.5,0:10,3,Magenta,['space'],0,0,1,20:50,./completed_changuitos/montage_qymbc_59.9_67.95.jpg,right,0,0,0,0,,,,,0,9,9,9,,,,,,,,,0,0,0,0,0,20,20,20,,,,,,,,,,,,,,,,,,,,,,,,,,,,,,,,,644.2547091696949,None,None,0,644.2547091696949,None,,,,,,,,,,,,,,,,,,,,,,,,,,,,,,,,,,,,,,,,,,,,,,solC,001,a,2019_Oct_10_1438,Experimento,3.2.3,60.088799466809625,
8,14,14,999,0.5,0:10,3,Red,['space'],0,0,1,20:50,./completed_changuitos/montage_qymbc_59.9_67.95.jpg,right,0,0,0,0,,,,,0,9,9,9,,,,,,,,,0,0,0,0,0,21,21,21,,,,,,,,,,,,,,,,,,,,,,,,,,,,,,,,,644.2547091696949,None,None,0,644.2547091696949,None,,,,,,,,,,,,,,,,,,,,,,,,,,,,,,,,,,,,,,,,,,,,,,solC,001,a,2019_Oct_10_1438,Experimento,3.2.3,60.088799466809625,
8,14,14,999,0.5,0:10,3,Yellow,None,0,0,1,20:50,./completed_changuitos/montage_qymbc_59.9_67.95.jpg,right,0,0,0,0,,,,,0,9,9,9,,,,,,,,,0,0,0,0,0,22,22,22,,,,,,,,,,,,,,,,,,,,,,,,,,,,,,,,,644.2547091696949,None,None,1,644.2547091696949,None,,,,,,,,,,,,,,,,,,,,,,,,,,,,,,,,,,,,,,,,,,,,,,solC,001,a,2019_Oct_10_1438,Experimento,3.2.3,60.088799466809625,
8,14,14,999,0.5,0:10,3,Cyan,None,0,0,1,20:50,./completed_changuitos/montage_qymbc_59.9_67.95.jpg,right,0,0,0,0,,,,,0,9,9,9,,,,,,,,,0,0,0,0,0,23,23,23,,,,,,,,,,,,,,,,,,,,,,,,,,,,,,,,,644.2713699803949,None,None,1,644.2713699803949,None,,,,,,,,,,,,,,,,,,,,,,,,,,,,,,,,,,,,,,,,,,,,,,solC,001,a,2019_Oct_10_1438,Experimento,3.2.3,60.088799466809625,
8,14,14,999,0.5,0:10,3,Green,None,0,0,1,20:50,./completed_changuitos/montage_qymbc_59.9_67.95.jpg,right,0,0,0,0,,,,,0,9,9,9,,,,,,,,,0,0,0,0,0,24,24,24,,,,,,,,,,,,,,,,,,,,,,,,,,,,,,,,,644.2713699803949,None,None,1,644.2713699803949,None,,,,,,,,,,,,,,,,,,,,,,,,,,,,,,,,,,,,,,,,,,,,,,solC,001,a,2019_Oct_10_1438,Experimento,3.2.3,60.088799466809625,
8,14,14,999,0.5,0:10,3,White,None,0,0,1,20:50,./completed_changuitos/montage_qymbc_59.9_67.95.jpg,right,0,0,0,0,,,,,0,9,9,9,,,,,,,,,0,0,0,0,0,25,25,25,,,,,,,,,,,,,,,,,,,,,,,,,,,,,,,,,644.2713699803949,None,None,1,644.2713699803949,None,,,,,,,,,,,,,,,,,,,,,,,,,,,,,,,,,,,,,,,,,,,,,,solC,001,a,2019_Oct_10_1438,Experimento,3.2.3,60.088799466809625,
8,14,14,999,0.5,0:10,3,Green,['space'],0,0,1,20:50,./completed_changuitos/montage_qymbc_59.9_67.95.jpg,right,0,0,0,0,,,,,0,9,9,9,,,,,,,,,0,0,0,0,0,26,26,26,,,,,,,,,,,,,,,,,,,,,,,,,,,,,,,,,644.2713699803949,None,None,0,644.2713699803949,None,,,,,,,,,,,,,,,,,,,,,,,,,,,,,,,,,,,,,,,,,,,,,,solC,001,a,2019_Oct_10_1438,Experimento,3.2.3,60.088799466809625,
8,14,14,999,0.5,0:10,3,Red,None,0,0,1,20:50,./completed_changuitos/montage_qymbc_59.9_67.95.jpg,right,0,0,0,0,,,,,0,9,9,9,,,,,,,,,0,0,0,0,0,27,27,27,,,,,,,,,,,,,,,,,,,,,,,,,,,,,,,,,644.2713699803949,None,None,1,644.2713699803949,None,,,,,,,,,,,,,,,,,,,,,,,,,,,,,,,,,,,,,,,,,,,,,,solC,001,a,2019_Oct_10_1438,Experimento,3.2.3,60.088799466809625,
8,14,14,999,0.5,0:10,3,Blue,None,0,0,1,20:50,./completed_changuitos/montage_qymbc_59.9_67.95.jpg,right,0,0,0,0,,,,,0,9,9,9,,,,,,,,,0,0,0,0,0,28,28,28,,,,,,,,,,,,,,,,,,,,,,,,,,,,,,,,,644.2713699803949,None,None,1,644.2713699803949,None,,,,,,,,,,,,,,,,,,,,,,,,,,,,,,,,,,,,,,,,,,,,,,solC,001,a,2019_Oct_10_1438,Experimento,3.2.3,60.088799466809625,
8,14,14,999,0.5,0:10,3,Green,None,0,0,1,20:50,./completed_changuitos/montage_qymbc_59.9_67.95.jpg,right,0,0,0,0,,,,,0,9,9,9,,,,,,,,,0,0,0,0,0,29,29,29,,,,,,,,,,,,,,,,,,,,,,,,,,,,,,,,,644.2713699803949,None,None,1,644.2713699803949,None,,,,,,,,,,,,,,,,,,,,,,,,,,,,,,,,,,,,,,,,,,,,,,solC,001,a,2019_Oct_10_1438,Experimento,3.2.3,60.088799466809625,
8,14,14,999,0.5,0:10,3,,,0,0,1,20:50,./completed_changuitos/montage_qymbc_59.9_67.95.jpg,right,0,0,0,0,,,,,0,9,9,9,,,,,,,,,0,0,0,0,,,,,,,,,,,,,,,,,,,,,,,,,,,,,,,,,,,,,,,,,,,644.3134618839977,None,right,1,1.4237508170044748,644.3134618839977,None,644.3134618839977,None,,,,,,,,,,,,,,,,,,,,,,,,,,,,,,,,,,,,,solC,001,a,2019_Oct_10_1438,Experimento,3.2.3,60.088799466809625,
8,14,14,999,0.5,0:10,3,,,0,0,1,20:50,,,0,0,0,0,,,,,0,9,9,9,,,,,,,,,,,,,,,,,,,,,,,,,,,,,,,,,,,,,,,,,,,,,,,,,,,,,,,,,,,,,,,,,,,,,,,,,,,,,,,,,,,,,,,,,,,,,,,,,,,,solC,001,a,2019_Oct_10_1438,Experimento,3.2.3,60.088799466809625,
8,14,14,999,0.5,0:10,3,,,0,1,0,25:50,./completed_changuitos/montage_yyalg_243.95_212.29.jpg,left,0,0,0,0,,,,,0,10,10,10,,,,,0,0,0,0,,,,,,,,,,,,,,,,,,,,,,645.8773995950032,646.7872833760048,646.7872833760048,654.8012174900068,654.8012174900068,668.8171890140075,right,0,1.0793831360060722,668.8171890140075,None,668.8171890140075,None,668.8171890140075,None,,,,,,,,,,,,,,,,,,,,,,,,,,,,,,,,,,,,,,,,,,,,,,,,,,,,,,,,solC,001,a,2019_Oct_10_1438,Experimento,3.2.3,60.088799466809625,
8,14,14,999,0.5,0:10,3,,,0,1,0,25:50,,,0,0,0,0,,,,,0,10,10,10,,,,,,,,,,,,,,,,,,,,,,,,,,,,,,,,,,,,,,,,,,,,,,,,,,,,,,,,,,,,,,,,,,,,,,,,,,,,,,,,,,,,,,,,,,,,,,,,,,,,solC,001,a,2019_Oct_10_1438,Experimento,3.2.3,60.088799466809625,
8,14,14,999,0.5,0:10,3,Red,None,0,0,1,28:50,./completed_changuitos/montage_rtmyc_99.9_114.49.jpg,right,0,0,0,0,,,,,0,11,11,11,,,,,,,,,0,0,0,0,0,0,0,0,,,,,,,,,,,,,,,,,,,,,,,,,,,,,670.0250935549993,671.0622067810036,671.0622067810036,None,679.1044447659951,679.6096802630054,None,1,679.1044447659951,None,,,,,,,,,,,,,,,,,,,,,,,,,,,,,,,,,,,,,,,,,,,,,,solC,001,a,2019_Oct_10_1438,Experimento,3.2.3,60.088799466809625,
8,14,14,999,0.5,0:10,3,Magenta,['space'],0,0,1,28:50,./completed_changuitos/montage_rtmyc_99.9_114.49.jpg,right,0,0,0,0,,,,,0,11,11,11,,,,,,,,,0,0,0,0,0,1,1,1,,,,,,,,,,,,,,,,,,,,,,,,,,,,,,,,,681.1090501190047,681.6089744240016,None,0,681.1090501190047,681.1090501190047,,,,,,,,,,,,,,,,,,,,,,,,,,,,,,,,,,,,,,,,,,,,,,solC,001,a,2019_Oct_10_1438,Experimento,3.2.3,60.088799466809625,
8,14,14,999,0.5,0:10,3,Green,None,0,0,1,28:50,./completed_changuitos/montage_rtmyc_99.9_114.49.jpg,right,0,0,0,0,,,,,0,11,11,11,,,,,,,,,0,0,0,0,0,2,2,2,,,,,,,,,,,,,,,,,,,,,,,,,,,,,,,,,683.1081072649977,683.607928590005,None,1,683.1081072649977,683.1081072649977,,,,,,,,,,,,,,,,,,,,,,,,,,,,,,,,,,,,,,,,,,,,,,solC,001,a,2019_Oct_10_1438,Experimento,3.2.3,60.088799466809625,
8,14,14,999,0.5,0:10,3,Yellow,['space'],0,0,1,28:50,./completed_changuitos/montage_rtmyc_99.9_114.49.jpg,right,0,0,0,0,,,,,0,11,11,11,,,,,,,,,0,0,0,0,0,3,3,3,,,,,,,,,,,,,,,,,,,,,,,,,,,,,,,,,685.1077341390046,685.607625826,None,0,685.1077341390046,685.1077341390046,,,,,,,,,,,,,,,,,,,,,,,,,,,,,,,,,,,,,,,,,,,,,,solC,001,a,2019_Oct_10_1438,Experimento,3.2.3,60.088799466809625,
8,14,14,999,0.5,0:10,3,Blue,None,0,0,1,28:50,./completed_changuitos/montage_rtmyc_99.9_114.49.jpg,right,0,0,0,0,,,,,0,11,11,11,,,,,,,,,0,0,0,0,0,4,4,4,,,,,,,,,,,,,,,,,,,,,,,,,,,,,,,,,687.108471161002,687.623581273001,None,1,687.108471161002,687.108471161002,,,,,,,,,,,,,,,,,,,,,,,,,,,,,,,,,,,,,,,,,,,,,,solC,001,a,2019_Oct_10_1438,Experimento,3.2.3,60.088799466809625,
8,14,14,999,0.5,0:10,3,Cyan,None,0,0,1,28:50,./completed_changuitos/montage_rtmyc_99.9_114.49.jpg,right,0,0,0,0,,,,,0,11,11,11,,,,,,,,,0,0,0,0,0,5,5,5,,,,,,,,,,,,,,,,,,,,,,,,,,,,,,,,,689.1229780760041,689.6229006469948,None,1,689.1229780760041,689.1229780760041,,,,,,,,,,,,,,,,,,,,,,,,,,,,,,,,,,,,,,,,,,,,,,solC,001,a,2019_Oct_10_1438,Experimento,3.2.3,60.088799466809625,
8,14,14,999,0.5,0:10,3,Blue,['space'],0,0,1,28:50,./completed_changuitos/montage_rtmyc_99.9_114.49.jpg,right,0,0,0,0,,,,,0,11,11,11,,,,,,,,,0,0,0,0,0,6,6,6,,,,,,,,,,,,,,,,,,,,,,,,,,,,,,,,,691.1223469999968,691.6222325819981,['return'],0,691.1223469999968,691.1223469999968,,,,,,,,,,[0.7670553799980553],,,,,,,,,,,,,,,,,,,,,,,,,,,,,,,,,,,,solC,001,a,2019_Oct_10_1438,Experimento,3.2.3,60.088799466809625,
8,14,14,999,0.5,0:10,3,Yellow,None,0,0,1,28:50,./completed_changuitos/montage_rtmyc_99.9_114.49.jpg,right,0,0,0,0,,,,,0,11,11,11,,,,,,,,,0,0,0,0,0,7,7,7,,,,,,,,,,,,,,,,,,,,,,,,,,,,,,,,,693.0883862327071,None,None,1,693.0883862327071,None,,,,,,,,,,,,,,,,,,,,,,,,,,,,,,,,,,,,,,,,,,,,,,solC,001,a,2019_Oct_10_1438,Experimento,3.2.3,60.088799466809625,
8,14,14,999,0.5,0:10,3,Cyan,None,0,0,1,28:50,./completed_changuitos/montage_rtmyc_99.9_114.49.jpg,right,0,0,0,0,,,,,0,11,11,11,,,,,,,,,0,0,0,0,0,8,8,8,,,,,,,,,,,,,,,,,,,,,,,,,,,,,,,,,693.0883862327071,None,None,1,693.0883862327071,None,,,,,,,,,,,,,,,,,,,,,,,,,,,,,,,,,,,,,,,,,,,,,,solC,001,a,2019_Oct_10_1438,Experimento,3.2.3,60.088799466809625,
8,14,14,999,0.5,0:10,3,Yellow,['space'],0,0,1,28:50,./completed_changuitos/montage_rtmyc_99.9_114.49.jpg,right,0,0,0,0,,,,,0,11,11,11,,,,,,,,,0,0,0,0,0,9,9,9,,,,,,,,,,,,,,,,,,,,,,,,,,,,,,,,,693.0883862327071,None,None,0,693.0883862327071,None,,,,,,,,,,,,,,,,,,,,,,,,,,,,,,,,,,,,,,,,,,,,,,solC,001,a,2019_Oct_10_1438,Experimento,3.2.3,60.088799466809625,
8,14,14,999,0.5,0:10,3,Magenta,None,0,0,1,28:50,./completed_changuitos/montage_rtmyc_99.9_114.49.jpg,right,0,0,0,0,,,,,0,11,11,11,,,,,,,,,0,0,0,0,0,10,10,10,,,,,,,,,,,,,,,,,,,,,,,,,,,,,,,,,693.0883862327071,None,None,1,693.0883862327071,None,,,,,,,,,,,,,,,,,,,,,,,,,,,,,,,,,,,,,,,,,,,,,,solC,001,a,2019_Oct_10_1438,Experimento,3.2.3,60.088799466809625,
8,14,14,999,0.5,0:10,3,Red,None,0,0,1,28:50,./completed_changuitos/montage_rtmyc_99.9_114.49.jpg,right,0,0,0,0,,,,,0,11,11,11,,,,,,,,,0,0,0,0,0,11,11,11,,,,,,,,,,,,,,,,,,,,,,,,,,,,,,,,,693.105047043407,None,None,1,693.105047043407,None,,,,,,,,,,,,,,,,,,,,,,,,,,,,,,,,,,,,,,,,,,,,,,solC,001,a,2019_Oct_10_1438,Experimento,3.2.3,60.088799466809625,
8,14,14,999,0.5,0:10,3,Magenta,['space'],0,0,1,28:50,./completed_changuitos/montage_rtmyc_99.9_114.49.jpg,right,0,0,0,0,,,,,0,11,11,11,,,,,,,,,0,0,0,0,0,12,12,12,,,,,,,,,,,,,,,,,,,,,,,,,,,,,,,,,693.105047043407,None,None,0,693.105047043407,None,,,,,,,,,,,,,,,,,,,,,,,,,,,,,,,,,,,,,,,,,,,,,,solC,001,a,2019_Oct_10_1438,Experimento,3.2.3,60.088799466809625,
8,14,14,999,0.5,0:10,3,Red,['space'],0,0,1,28:50,./completed_changuitos/montage_rtmyc_99.9_114.49.jpg,right,0,0,0,0,,,,,0,11,11,11,,,,,,,,,0,0,0,0,0,13,13,13,,,,,,,,,,,,,,,,,,,,,,,,,,,,,,,,,693.105047043407,None,None,0,693.105047043407,None,,,,,,,,,,,,,,,,,,,,,,,,,,,,,,,,,,,,,,,,,,,,,,solC,001,a,2019_Oct_10_1438,Experimento,3.2.3,60.088799466809625,
8,14,14,999,0.5,0:10,3,Yellow,None,0,0,1,28:50,./completed_changuitos/montage_rtmyc_99.9_114.49.jpg,right,0,0,0,0,,,,,0,11,11,11,,,,,,,,,0,0,0,0,0,14,14,14,,,,,,,,,,,,,,,,,,,,,,,,,,,,,,,,,693.105047043407,None,None,1,693.105047043407,None,,,,,,,,,,,,,,,,,,,,,,,,,,,,,,,,,,,,,,,,,,,,,,solC,001,a,2019_Oct_10_1438,Experimento,3.2.3,60.088799466809625,
8,14,14,999,0.5,0:10,3,Cyan,None,0,0,1,28:50,./completed_changuitos/montage_rtmyc_99.9_114.49.jpg,right,0,0,0,0,,,,,0,11,11,11,,,,,,,,,0,0,0,0,0,15,15,15,,,,,,,,,,,,,,,,,,,,,,,,,,,,,,,,,693.105047043407,None,None,1,693.105047043407,None,,,,,,,,,,,,,,,,,,,,,,,,,,,,,,,,,,,,,,,,,,,,,,solC,001,a,2019_Oct_10_1438,Experimento,3.2.3,60.088799466809625,
8,14,14,999,0.5,0:10,3,Green,None,0,0,1,28:50,./completed_changuitos/montage_rtmyc_99.9_114.49.jpg,right,0,0,0,0,,,,,0,11,11,11,,,,,,,,,0,0,0,0,0,16,16,16,,,,,,,,,,,,,,,,,,,,,,,,,,,,,,,,,693.1217078541071,None,None,1,693.1217078541071,None,,,,,,,,,,,,,,,,,,,,,,,,,,,,,,,,,,,,,,,,,,,,,,solC,001,a,2019_Oct_10_1438,Experimento,3.2.3,60.088799466809625,
8,14,14,999,0.5,0:10,3,White,None,0,0,1,28:50,./completed_changuitos/montage_rtmyc_99.9_114.49.jpg,right,0,0,0,0,,,,,0,11,11,11,,,,,,,,,0,0,0,0,0,17,17,17,,,,,,,,,,,,,,,,,,,,,,,,,,,,,,,,,693.1217078541071,None,None,1,693.1217078541071,None,,,,,,,,,,,,,,,,,,,,,,,,,,,,,,,,,,,,,,,,,,,,,,solC,001,a,2019_Oct_10_1438,Experimento,3.2.3,60.088799466809625,
8,14,14,999,0.5,0:10,3,Green,['space'],0,0,1,28:50,./completed_changuitos/montage_rtmyc_99.9_114.49.jpg,right,0,0,0,0,,,,,0,11,11,11,,,,,,,,,0,0,0,0,0,18,18,18,,,,,,,,,,,,,,,,,,,,,,,,,,,,,,,,,693.1217078541071,None,None,0,693.1217078541071,None,,,,,,,,,,,,,,,,,,,,,,,,,,,,,,,,,,,,,,,,,,,,,,solC,001,a,2019_Oct_10_1438,Experimento,3.2.3,60.088799466809625,
8,14,14,999,0.5,0:10,3,Red,None,0,0,1,28:50,./completed_changuitos/montage_rtmyc_99.9_114.49.jpg,right,0,0,0,0,,,,,0,11,11,11,,,,,,,,,0,0,0,0,0,19,19,19,,,,,,,,,,,,,,,,,,,,,,,,,,,,,,,,,693.1217078541071,None,None,1,693.1217078541071,None,,,,,,,,,,,,,,,,,,,,,,,,,,,,,,,,,,,,,,,,,,,,,,solC,001,a,2019_Oct_10_1438,Experimento,3.2.3,60.088799466809625,
8,14,14,999,0.5,0:10,3,Blue,None,0,0,1,28:50,./completed_changuitos/montage_rtmyc_99.9_114.49.jpg,right,0,0,0,0,,,,,0,11,11,11,,,,,,,,,0,0,0,0,0,20,20,20,,,,,,,,,,,,,,,,,,,,,,,,,,,,,,,,,693.1217078541071,None,None,1,693.1217078541071,None,,,,,,,,,,,,,,,,,,,,,,,,,,,,,,,,,,,,,,,,,,,,,,solC,001,a,2019_Oct_10_1438,Experimento,3.2.3,60.088799466809625,
8,14,14,999,0.5,0:10,3,Green,None,0,0,1,28:50,./completed_changuitos/montage_rtmyc_99.9_114.49.jpg,right,0,0,0,0,,,,,0,11,11,11,,,,,,,,,0,0,0,0,0,21,21,21,,,,,,,,,,,,,,,,,,,,,,,,,,,,,,,,,693.1217078541071,None,None,1,693.1217078541071,None,,,,,,,,,,,,,,,,,,,,,,,,,,,,,,,,,,,,,,,,,,,,,,solC,001,a,2019_Oct_10_1438,Experimento,3.2.3,60.088799466809625,
8,14,14,999,0.5,0:10,3,,,0,0,1,28:50,./completed_changuitos/montage_rtmyc_99.9_114.49.jpg,right,0,0,0,0,,,,,0,11,11,11,,,,,,,,,0,0,0,0,,,,,,,,,,,,,,,,,,,,,,,,,,,,,,,,,,,,,,,,,,,693.1604764450021,None,left,0,1.4774728839984164,693.1604764450021,None,693.1604764450021,None,,,,,,,,,,,,,,,,,,,,,,,,,,,,,,,,,,,,,solC,001,a,2019_Oct_10_1438,Experimento,3.2.3,60.088799466809625,
8,14,14,999,0.5,0:10,3,,,0,0,1,28:50,,,0,0,0,0,,,,,0,11,11,11,,,,,,,,,,,,,,,,,,,,,,,,,,,,,,,,,,,,,,,,,,,,,,,,,,,,,,,,,,,,,,,,,,,,,,,,,,,,,,,,,,,,,,,,,,,,,,,,,,,,solC,001,a,2019_Oct_10_1438,Experimento,3.2.3,60.088799466809625,
8,14,14,999,0.5,0:10,3,,,1,0,0,30:50,./completed_changuitos/montage_huuvc_100.49_116.09.jpg,right,0,0,0,0,,,,,0,12,12,12,0,0,0,0,,,,,,,,,,,,,,,,,,,,,,,,,,,,,,,,,,,,,,,,,,,,,,,,,,,,,,,,,,,,,695.2543520019972,696.6205248390033,696.6205248390033,704.6344523610023,right,1,1.116089823000948,704.6344523610023,None,704.6344523610023,None,704.6344523610023,None,,,,,,,,,,,,,,,,,,,,,,,solC,001,a,2019_Oct_10_1438,Experimento,3.2.3,60.088799466809625,
8,14,14,999,0.5,0:10,3,,,1,0,0,30:50,,,0,0,0,0,,,,,0,12,12,12,,,,,,,,,,,,,,,,,,,,,,,,,,,,,,,,,,,,,,,,,,,,,,,,,,,,,,,,,,,,,,,,,,,,,,,,,,,,,,,,,,,,,,,,,,,,,,,,,,,,solC,001,a,2019_Oct_10_1438,Experimento,3.2.3,60.088799466809625,
8,14,14,999,0.5,0:10,3,,,1,0,0,32:50,./completed_changuitos/montage_xdegg_96.19_113.19.jpg,right,0,0,0,0,,,,,0,13,13,13,0,0,0,0,,,,,,,,,,,,,,,,,,,,,,,,,,,,,,,,,,,,,,,,,,,,,,,,,,,,,,,,,,,,,706.3671693109936,707.3002365809953,707.3002365809953,715.3141586040001,right,1,0.6835364569997182,715.3141586040001,None,715.3141586040001,None,715.3141586040001,None,,,,,,,,,,,,,,,,,,,,,,,solC,001,a,2019_Oct_10_1438,Experimento,3.2.3,60.088799466809625,
8,14,14,999,0.5,0:10,3,,,1,0,0,32:50,,,0,0,0,0,,,,,0,13,13,13,,,,,,,,,,,,,,,,,,,,,,,,,,,,,,,,,,,,,,,,,,,,,,,,,,,,,,,,,,,,,,,,,,,,,,,,,,,,,,,,,,,,,,,,,,,,,,,,,,,,solC,001,a,2019_Oct_10_1438,Experimento,3.2.3,60.088799466809625,
8,14,14,999,0.5,0:10,3,,,1,0,0,34:50,./completed_changuitos/montage_tfanv_50.85_44.95.jpg,left,0,0,0,0,,,,,0,14,14,14,0,0,0,0,,,,,,,,,,,,,,,,,,,,,,,,,,,,,,,,,,,,,,,,,,,,,,,,,,,,,,,,,,,,,716.6304113890073,717.4633915279992,717.4633915279992,725.4773349320021,left,1,0.6831512180069694,725.4773349320021,None,725.4773349320021,None,725.4773349320021,None,,,,,,,,,,,,,,,,,,,,,,,solC,001,a,2019_Oct_10_1438,Experimento,3.2.3,60.088799466809625,
8,14,14,999,0.5,0:10,3,,,1,0,0,34:50,,,0,0,0,0,,,,,0,14,14,14,,,,,,,,,,,,,,,,,,,,,,,,,,,,,,,,,,,,,,,,,,,,,,,,,,,,,,,,,,,,,,,,,,,,,,,,,,,,,,,,,,,,,,,,,,,,,,,,,,,,solC,001,a,2019_Oct_10_1438,Experimento,3.2.3,60.088799466809625,
8,14,14,999,0.5,0:10,3,,,1,0,0,30:50,./completed_changuitos/montage_whibm_53.49_47.85.jpg,left,0,0,0,0,,,,,0,15,15,15,0,0,0,0,,,,,,,,,,,,,,,,,,,,,,,,,,,,,,,,,,,,,,,,,,,,,,,,,,,,,,,,,,,,,726.8102075350034,727.8931593820016,727.8931593820016,735.9067225900071,right,0,0.0001258690026588738,735.9067225900071,None,735.9067225900071,None,735.9067225900071,None,,,,,,,,,,,,,,,,,,,,,,,solC,001,a,2019_Oct_10_1438,Experimento,3.2.3,60.088799466809625,
8,14,14,999,0.5,0:10,3,,,1,0,0,30:50,,,0,0,0,0,,,,,0,15,15,15,,,,,,,,,,,,,,,,,,,,,,,,,,,,,,,,,,,,,,,,,,,,,,,,,,,,,,,,,,,,,,,,,,,,,,,,,,,,,,,,,,,,,,,,,,,,,,,,,,,,solC,001,a,2019_Oct_10_1438,Experimento,3.2.3,60.088799466809625,
8,14,14,999,0.5,0:10,3,,,1,0,0,32:50,./completed_changuitos/montage_ljgfg_307.65_264.19.jpg,left,0,0,0,0,,,,,0,16,16,16,0,0,0,0,,,,,,,,,,,,,,,,,,,,,,,,,,,,,,,,,,,,,,,,,,,,,,,,,,,,,,,,,,,,,736.5231585250003,737.8064385430043,737.8064385430043,745.8200523609994,left,1,0.6005859449942363,745.8200523609994,None,745.8200523609994,None,745.8200523609994,None,,,,,,,,,,,,,,,,,,,,,,,solC,001,a,2019_Oct_10_1438,Experimento,3.2.3,60.088799466809625,
8,14,14,999,0.5,0:10,3,,,1,0,0,32:50,,,0,0,0,0,,,,,0,16,16,16,,,,,,,,,,,,,,,,,,,,,,,,,,,,,,,,,,,,,,,,,,,,,,,,,,,,,,,,,,,,,,,,,,,,,,,,,,,,,,,,,,,,,,,,,,,,,,,,,,,,solC,001,a,2019_Oct_10_1438,Experimento,3.2.3,60.088799466809625,
8,14,14,999,0.5,0:10,3,,,1,0,0,34:50,./completed_changuitos/montage_dycky_116.65_100.59.jpg,left,0,0,0,0,,,,,0,17,17,17,0,0,0,0,,,,,,,,,,,,,,,,,,,,,,,,,,,,,,,,,,,,,,,,,,,,,,,,,,,,,,,,,,,,,747.0366123300046,747.969628545994,747.969628545994,755.9835706129961,left,1,0.483724956997321,755.9835706129961,None,755.9835706129961,None,755.9835706129961,None,,,,,,,,,,,,,,,,,,,,,,,solC,001,a,2019_Oct_10_1438,Experimento,3.2.3,60.088799466809625,
8,14,14,999,0.5,0:10,3,,,1,0,0,34:50,,,0,0,0,0,,,,,0,17,17,17,,,,,,,,,,,,,,,,,,,,,,,,,,,,,,,,,,,,,,,,,,,,,,,,,,,,,,,,,,,,,,,,,,,,,,,,,,,,,,,,,,,,,,,,,,,,,,,,,,,,solC,001,a,2019_Oct_10_1438,Experimento,3.2.3,60.088799466809625,
8,14,14,999,0.5,0:10,3,,,,,,,,,0,0,0,0,,,,,,,,,,,,,,,,,,,,,,,,,,,,,,,,,,,,,,,,,,,,,,,,,,,,,,,,,,,,,,,,,,,,,,,,,,,,,,,,,,,,,,756.5363124819996,757.9162152089993,3,7.214495918000466,757.9162152089993,None,757.9162152089993,None,c,5.349042803994962,765.1467636989983,None,765.1467636989983,None,765.1467636989983,None,770.5118218449934,None,4,4.5826198589929845,770.5118218449934,None,solC,001,a,2019_Oct_10_1438,Experimento,3.2.3,60.088799466809625,
