changuito_time_to_show,time_to_think,time_to_play,total_items,nback_stimulus_time,nback_training,time_to_show_tiny_stimulus,colourtest,corresp,inmediato,consciente,inconsciente,nback_slice,imagen,correcta,trials_5.thisRepN,trials_5.thisTrialN,trials_5.thisN,trials_5.thisIndex,nback_train.thisRepN,nback_train.thisTrialN,nback_train.thisN,nback_train.thisIndex,treatment_order.thisRepN,treatment_order.thisTrialN,treatment_order.thisN,treatment_order.thisIndex,trials.thisRepN,trials.thisTrialN,trials.thisN,trials.thisIndex,trials_2.thisRepN,trials_2.thisTrialN,trials_2.thisN,trials_2.thisIndex,trials_3.thisRepN,trials_3.thisTrialN,trials_3.thisN,trials_3.thisIndex,trials_4.thisRepN,trials_4.thisTrialN,trials_4.thisN,trials_4.thisIndex,Presentacion.started,Presentacion.stopped,Juego.started,Juego.stopped,image_6.started,image_6.stopped,polygon.started,polygon.stopped,nback_train_resp.keys,nback_train_resp.corr,nback_train_resp.started,nback_train_resp.stopped,nback_train_resp.rt,holi.started,holi.stopped,image_3.started,image_3.stopped,polygon_2.started,polygon_2.stopped,nback_train_resp_2.keys,nback_train_resp_2.corr,nback_train_resp_2.started,nback_train_resp_2.stopped,nback_train_resp_2.rt,text_2.started,text_2.stopped,key_resp.keys,key_resp.corr,key_resp.rt,key_resp.started,key_resp.stopped,image_5.started,image_5.stopped,hola.started,hola.stopped,image_2.started,image_2.stopped,tiempo_para_pensar.started,tiempo_para_pensar.stopped,respuesta_consciente.keys,respuesta_consciente.corr,respuesta_consciente.rt,respuesta_consciente.started,respuesta_consciente.stopped,cual_es_la_mas_barata.started,cual_es_la_mas_barata.stopped,image_4.started,image_4.stopped,text.started,text.stopped,image.started,image.stopped,respuesta_inmediato.keys,respuesta_inmediato.corr,respuesta_inmediato.rt,respuesta_inmediato.started,respuesta_inmediato.stopped,pregunta_cual_es_el_mas_barato.started,pregunta_cual_es_el_mas_barato.stopped,short_stim1.started,short_stim1.stopped,gracias.started,gracias.stopped,respuesta1.keys,respuesta1.rt,respuesta1.started,respuesta1.stopped,pregunta1.started,pregunta1.stopped,respuesta3bis_3.keys,respuesta3bis_3.rt,respuesta3bis_3.started,respuesta3bis_3.stopped,pregunta3_3.started,pregunta3_3.stopped,productoCon3RANGOSabc_3.started,productoCon3RANGOSabc_3.stopped,text_3.started,text_3.stopped,key_resp_2.keys,key_resp_2.rt,key_resp_2.started,key_resp_2.stopped,participant,session,group,date,expName,psychopyVersion,frameRate,
8,14,14,999,0.5,0:10,3,White,None,,,,,,,0,0,0,0,0,0,0,0,,,,,,,,,,,,,,,,,,,,,191.04227080800047,None,204.77395016299852,None,204.77395016299852,None,225.7970051339944,226.3000249429897,None,1,225.7970051339944,None,,,,,,,,,,,,,,,,,,,,,,,,,,,,,,,,,,,,,,,,,,,,,,,,,,,,,,,,,,,,,,,,,,,,,,,,tomasNotenson,001,d,2019_Oct_10_1423,Experimento,3.2.3,60.3027618386884,
8,14,14,999,0.5,0:10,3,Red,None,,,,,,,0,0,0,0,0,1,1,1,,,,,,,,,,,,,,,,,,,,,,,,,,,227.79939489299431,228.29891427200346,None,1,227.79939489299431,227.79939489299431,,,,,,,,,,,,,,,,,,,,,,,,,,,,,,,,,,,,,,,,,,,,,,,,,,,,,,,,,,,,,,,,,,,,,,,,tomasNotenson,001,d,2019_Oct_10_1423,Experimento,3.2.3,60.3027618386884,
8,14,14,999,0.5,0:10,3,Magenta,None,,,,,,,0,0,0,0,0,2,2,2,,,,,,,,,,,,,,,,,,,,,,,,,,,229.7987644429959,230.29858118499396,None,1,229.7987644429959,229.7987644429959,,,,,,,,,,,,,,,,,,,,,,,,,,,,,,,,,,,,,,,,,,,,,,,,,,,,,,,,,,,,,,,,,,,,,,,,tomasNotenson,001,d,2019_Oct_10_1423,Experimento,3.2.3,60.3027618386884,
8,14,14,999,0.5,0:10,3,Cyan,None,,,,,,,0,0,0,0,0,3,3,3,,,,,,,,,,,,,,,,,,,,,,,,,,,231.7980252099951,232.29790390399285,None,1,231.7980252099951,231.7980252099951,,,,,,,,,,,,,,,,,,,,,,,,,,,,,,,,,,,,,,,,,,,,,,,,,,,,,,,,,,,,,,,,,,,,,,,,tomasNotenson,001,d,2019_Oct_10_1423,Experimento,3.2.3,60.3027618386884,
8,14,14,999,0.5,0:10,3,Magenta,['space'],,,,,,,0,0,0,0,0,4,4,4,,,,,,,,,,,,,,,,,,,,,,,,,,,233.79730638799083,234.2972266919969,None,0,233.79730638799083,233.79730638799083,,,,,,,,,,,,,,,,,,,,,,,,,,,,,,,,,,,,,,,,,,,,,,,,,,,,,,,,,,,,,,,,,,,,,,,,tomasNotenson,001,d,2019_Oct_10_1423,Experimento,3.2.3,60.3027618386884,
8,14,14,999,0.5,0:10,3,Green,None,,,,,,,0,0,0,0,0,5,5,5,,,,,,,,,,,,,,,,,,,,,,,,,,,235.79670098600036,236.29655523700058,None,1,235.79670098600036,235.79670098600036,,,,,,,,,,,,,,,,,,,,,,,,,,,,,,,,,,,,,,,,,,,,,,,,,,,,,,,,,,,,,,,,,,,,,,,,tomasNotenson,001,d,2019_Oct_10_1423,Experimento,3.2.3,60.3027618386884,
8,14,14,999,0.5,0:10,3,White,None,,,,,,,0,0,0,0,0,6,6,6,,,,,,,,,,,,,,,,,,,,,,,,,,,237.7960099030024,238.2959047119948,None,1,237.7960099030024,237.7960099030024,,,,,,,,,,,,,,,,,,,,,,,,,,,,,,,,,,,,,,,,,,,,,,,,,,,,,,,,,,,,,,,,,,,,,,,,tomasNotenson,001,d,2019_Oct_10_1423,Experimento,3.2.3,60.3027618386884,
8,14,14,999,0.5,0:10,3,Green,['space'],,,,,,,0,0,0,0,0,7,7,7,,,,,,,,,,,,,,,,,,,,,,,,,,,239.79525886099145,240.29516508599045,['return'],0,239.79525886099145,239.79525886099145,[0.36723077499482315],,,,,,,,,,,,,,,,,,,,,,,,,,,,,,,,,,,,,,,,,,,,,,,,,,,,,,,,,,,,,,,,,,,,,,,tomasNotenson,001,d,2019_Oct_10_1423,Experimento,3.2.3,60.3027618386884,
8,14,14,999,0.5,0:10,3,Blue,None,,,,,,,0,0,0,0,0,8,8,8,,,,,,,,,,,,,,,,,,,,,,,,,,,241.79457993899996,242.29446886199003,None,1,241.79457993899996,241.79457993899996,,,,,,,,,,,,,,,,,,,,,,,,,,,,,,,,,,,,,,,,,,,,,,,,,,,,,,,,,,,,,,,,,,,,,,,,tomasNotenson,001,d,2019_Oct_10_1423,Experimento,3.2.3,60.3027618386884,
8,14,14,999,0.5,0:10,3,Green,['space'],,,,,,,0,0,0,0,0,9,9,9,,,,,,,,,,,,,,,,,,,,,,,,,,,243.79394720199343,244.29379489499843,['return'],0,243.79394720199343,243.79394720199343,[0.9336078740016092],,,,,,,,,,,,,,,,,,,,,,,,,,,,,,,,,,,,,,,,,,,,,,,,,,,,,,,,,,,,,,,,,,,,,,,tomasNotenson,001,d,2019_Oct_10_1423,Experimento,3.2.3,60.3027618386884,
8,14,14,999,0.5,0:10,3,Magenta,None,0,0,1,20:50,./completed_changuitos/montage_yfuxc_268.59_319.95.jpg,right,0,0,0,0,,,,,0,0,0,0,,,,,,,,,0,0,0,0,0,0,0,0,,,,,,,,,,,,,,245.91489475600247,280.14826627199363,280.14826627199363,None,288.19118667299335,288.6952892239933,None,1,288.19118667299335,None,,,,,,,,,,,,,,,,,,,,,,,,,,,,,,,,,,,,,,,,,,,,,,,,,,,,,,,,,,,,,tomasNotenson,001,d,2019_Oct_10_1423,Experimento,3.2.3,60.3027618386884,
8,14,14,999,0.5,0:10,3,Blue,['space'],0,0,1,20:50,./completed_changuitos/montage_yfuxc_268.59_319.95.jpg,right,0,0,0,0,,,,,0,0,0,0,,,,,,,,,0,0,0,0,0,1,1,1,,,,,,,,,,,,,,,,,,290.1946521889913,290.6946182340034,None,0,290.1946521889913,290.1946521889913,,,,,,,,,,,,,,,,,,,,,,,,,,,,,,,,,,,,,,,,,,,,,,,,,,,,,,,,,,,,,tomasNotenson,001,d,2019_Oct_10_1423,Experimento,3.2.3,60.3027618386884,
8,14,14,999,0.5,0:10,3,Cyan,None,0,0,1,20:50,./completed_changuitos/montage_yfuxc_268.59_319.95.jpg,right,0,0,0,0,,,,,0,0,0,0,,,,,,,,,0,0,0,0,0,2,2,2,,,,,,,,,,,,,,,,,,292.193829404001,292.6938847919955,None,1,292.193829404001,292.193829404001,,,,,,,,,,,,,,,,,,,,,,,,,,,,,,,,,,,,,,,,,,,,,,,,,,,,,,,,,,,,,tomasNotenson,001,d,2019_Oct_10_1423,Experimento,3.2.3,60.3027618386884,
8,14,14,999,0.5,0:10,3,Yellow,None,0,0,1,20:50,./completed_changuitos/montage_yfuxc_268.59_319.95.jpg,right,0,0,0,0,,,,,0,0,0,0,,,,,,,,,0,0,0,0,0,3,3,3,,,,,,,,,,,,,,,,,,294.1933844029991,294.69325359599316,None,1,294.1933844029991,294.1933844029991,,,,,,,,,,,,,,,,,,,,,,,,,,,,,,,,,,,,,,,,,,,,,,,,,,,,,,,,,,,,,tomasNotenson,001,d,2019_Oct_10_1423,Experimento,3.2.3,60.3027618386884,
8,14,14,999,0.5,0:10,3,Cyan,None,0,0,1,20:50,./completed_changuitos/montage_yfuxc_268.59_319.95.jpg,right,0,0,0,0,,,,,0,0,0,0,,,,,,,,,0,0,0,0,0,4,4,4,,,,,,,,,,,,,,,,,,296.1926424569974,296.6925630719925,['return'],0,296.1926424569974,296.1926424569974,[0.3506605699949432],,,,,,,,,,,,,,,,,,,,,,,,,,,,,,,,,,,,,,,,,,,,,,,,,,,,,,,,,,,,tomasNotenson,001,d,2019_Oct_10_1423,Experimento,3.2.3,60.3027618386884,
8,14,14,999,0.5,0:10,3,Blue,None,0,0,1,20:50,./completed_changuitos/montage_yfuxc_268.59_319.95.jpg,right,0,0,0,0,,,,,0,0,0,0,,,,,,,,,0,0,0,0,0,5,5,5,,,,,,,,,,,,,,,,,,298.1918577479955,298.6918686939898,None,1,298.1918577479955,298.1918577479955,,,,,,,,,,,,,,,,,,,,,,,,,,,,,,,,,,,,,,,,,,,,,,,,,,,,,,,,,,,,,tomasNotenson,001,d,2019_Oct_10_1423,Experimento,3.2.3,60.3027618386884,
8,14,14,999,0.5,0:10,3,Cyan,['space'],0,0,1,20:50,./completed_changuitos/montage_yfuxc_268.59_319.95.jpg,right,0,0,0,0,,,,,0,0,0,0,,,,,,,,,0,0,0,0,0,6,6,6,,,,,,,,,,,,,,,,,,300.19127721899713,300.6911883159919,['return'],0,300.19127721899713,300.19127721899713,[0.3339092370006256],,,,,,,,,,,,,,,,,,,,,,,,,,,,,,,,,,,,,,,,,,,,,,,,,,,,,,,,,,,,tomasNotenson,001,d,2019_Oct_10_1423,Experimento,3.2.3,60.3027618386884,
8,14,14,999,0.5,0:10,3,Magenta,None,0,0,1,20:50,./completed_changuitos/montage_yfuxc_268.59_319.95.jpg,right,0,0,0,0,,,,,0,0,0,0,,,,,,,,,0,0,0,0,0,7,7,7,,,,,,,,,,,,,,,,,,302.17400256089456,None,None,1,302.17400256089456,None,,,,,,,,,,,,,,,,,,,,,,,,,,,,,,,,,,,,,,,,,,,,,,,,,,,,,,,,,,,,,tomasNotenson,001,d,2019_Oct_10_1423,Experimento,3.2.3,60.3027618386884,
8,14,14,999,0.5,0:10,3,Red,None,0,0,1,20:50,./completed_changuitos/montage_yfuxc_268.59_319.95.jpg,right,0,0,0,0,,,,,0,0,0,0,,,,,,,,,0,0,0,0,0,8,8,8,,,,,,,,,,,,,,,,,,302.17400256089456,None,None,1,302.17400256089456,None,,,,,,,,,,,,,,,,,,,,,,,,,,,,,,,,,,,,,,,,,,,,,,,,,,,,,,,,,,,,,tomasNotenson,001,d,2019_Oct_10_1423,Experimento,3.2.3,60.3027618386884,
8,14,14,999,0.5,0:10,3,Magenta,['space'],0,0,1,20:50,./completed_changuitos/montage_yfuxc_268.59_319.95.jpg,right,0,0,0,0,,,,,0,0,0,0,,,,,,,,,0,0,0,0,0,9,9,9,,,,,,,,,,,,,,,,,,302.17400256089456,None,None,0,302.17400256089456,None,,,,,,,,,,,,,,,,,,,,,,,,,,,,,,,,,,,,,,,,,,,,,,,,,,,,,,,,,,,,,tomasNotenson,001,d,2019_Oct_10_1423,Experimento,3.2.3,60.3027618386884,
8,14,14,999,0.5,0:10,3,Green,None,0,0,1,20:50,./completed_changuitos/montage_yfuxc_268.59_319.95.jpg,right,0,0,0,0,,,,,0,0,0,0,,,,,,,,,0,0,0,0,0,10,10,10,,,,,,,,,,,,,,,,,,302.17400256089456,None,None,1,302.17400256089456,None,,,,,,,,,,,,,,,,,,,,,,,,,,,,,,,,,,,,,,,,,,,,,,,,,,,,,,,,,,,,,tomasNotenson,001,d,2019_Oct_10_1423,Experimento,3.2.3,60.3027618386884,
8,14,14,999,0.5,0:10,3,Yellow,['space'],0,0,1,20:50,./completed_changuitos/montage_yfuxc_268.59_319.95.jpg,right,0,0,0,0,,,,,0,0,0,0,,,,,,,,,0,0,0,0,0,11,11,11,,,,,,,,,,,,,,,,,,302.1906565937941,None,None,0,302.1906565937941,None,,,,,,,,,,,,,,,,,,,,,,,,,,,,,,,,,,,,,,,,,,,,,,,,,,,,,,,,,,,,,tomasNotenson,001,d,2019_Oct_10_1423,Experimento,3.2.3,60.3027618386884,
8,14,14,999,0.5,0:10,3,Blue,None,0,0,1,20:50,./completed_changuitos/montage_yfuxc_268.59_319.95.jpg,right,0,0,0,0,,,,,0,0,0,0,,,,,,,,,0,0,0,0,0,12,12,12,,,,,,,,,,,,,,,,,,302.1906565937941,None,None,1,302.1906565937941,None,,,,,,,,,,,,,,,,,,,,,,,,,,,,,,,,,,,,,,,,,,,,,,,,,,,,,,,,,,,,,tomasNotenson,001,d,2019_Oct_10_1423,Experimento,3.2.3,60.3027618386884,
8,14,14,999,0.5,0:10,3,Cyan,None,0,0,1,20:50,./completed_changuitos/montage_yfuxc_268.59_319.95.jpg,right,0,0,0,0,,,,,0,0,0,0,,,,,,,,,0,0,0,0,0,13,13,13,,,,,,,,,,,,,,,,,,302.1906565937941,None,None,1,302.1906565937941,None,,,,,,,,,,,,,,,,,,,,,,,,,,,,,,,,,,,,,,,,,,,,,,,,,,,,,,,,,,,,,tomasNotenson,001,d,2019_Oct_10_1423,Experimento,3.2.3,60.3027618386884,
8,14,14,999,0.5,0:10,3,Blue,['space'],0,0,1,20:50,./completed_changuitos/montage_yfuxc_268.59_319.95.jpg,right,0,0,0,0,,,,,0,0,0,0,,,,,,,,,0,0,0,0,0,14,14,14,,,,,,,,,,,,,,,,,,302.1906565937941,None,None,0,302.1906565937941,None,,,,,,,,,,,,,,,,,,,,,,,,,,,,,,,,,,,,,,,,,,,,,,,,,,,,,,,,,,,,,tomasNotenson,001,d,2019_Oct_10_1423,Experimento,3.2.3,60.3027618386884,
8,14,14,999,0.5,0:10,3,Yellow,None,0,0,1,20:50,./completed_changuitos/montage_yfuxc_268.59_319.95.jpg,right,0,0,0,0,,,,,0,0,0,0,,,,,,,,,0,0,0,0,0,15,15,15,,,,,,,,,,,,,,,,,,302.1906565937941,None,None,1,302.1906565937941,None,,,,,,,,,,,,,,,,,,,,,,,,,,,,,,,,,,,,,,,,,,,,,,,,,,,,,,,,,,,,,tomasNotenson,001,d,2019_Oct_10_1423,Experimento,3.2.3,60.3027618386884,
8,14,14,999,0.5,0:10,3,Cyan,None,0,0,1,20:50,./completed_changuitos/montage_yfuxc_268.59_319.95.jpg,right,0,0,0,0,,,,,0,0,0,0,,,,,,,,,0,0,0,0,0,16,16,16,,,,,,,,,,,,,,,,,,302.1906565937941,None,None,1,302.1906565937941,None,,,,,,,,,,,,,,,,,,,,,,,,,,,,,,,,,,,,,,,,,,,,,,,,,,,,,,,,,,,,,tomasNotenson,001,d,2019_Oct_10_1423,Experimento,3.2.3,60.3027618386884,
8,14,14,999,0.5,0:10,3,Yellow,['space'],0,0,1,20:50,./completed_changuitos/montage_yfuxc_268.59_319.95.jpg,right,0,0,0,0,,,,,0,0,0,0,,,,,,,,,0,0,0,0,0,17,17,17,,,,,,,,,,,,,,,,,,302.20731062669364,None,None,0,302.20731062669364,None,,,,,,,,,,,,,,,,,,,,,,,,,,,,,,,,,,,,,,,,,,,,,,,,,,,,,,,,,,,,,tomasNotenson,001,d,2019_Oct_10_1423,Experimento,3.2.3,60.3027618386884,
8,14,14,999,0.5,0:10,3,Magenta,None,0,0,1,20:50,./completed_changuitos/montage_yfuxc_268.59_319.95.jpg,right,0,0,0,0,,,,,0,0,0,0,,,,,,,,,0,0,0,0,0,18,18,18,,,,,,,,,,,,,,,,,,302.20731062669364,None,None,1,302.20731062669364,None,,,,,,,,,,,,,,,,,,,,,,,,,,,,,,,,,,,,,,,,,,,,,,,,,,,,,,,,,,,,,tomasNotenson,001,d,2019_Oct_10_1423,Experimento,3.2.3,60.3027618386884,
8,14,14,999,0.5,0:10,3,Red,None,0,0,1,20:50,./completed_changuitos/montage_yfuxc_268.59_319.95.jpg,right,0,0,0,0,,,,,0,0,0,0,,,,,,,,,0,0,0,0,0,19,19,19,,,,,,,,,,,,,,,,,,302.20731062669364,None,None,1,302.20731062669364,None,,,,,,,,,,,,,,,,,,,,,,,,,,,,,,,,,,,,,,,,,,,,,,,,,,,,,,,,,,,,,tomasNotenson,001,d,2019_Oct_10_1423,Experimento,3.2.3,60.3027618386884,
8,14,14,999,0.5,0:10,3,Magenta,['space'],0,0,1,20:50,./completed_changuitos/montage_yfuxc_268.59_319.95.jpg,right,0,0,0,0,,,,,0,0,0,0,,,,,,,,,0,0,0,0,0,20,20,20,,,,,,,,,,,,,,,,,,302.20731062669364,None,None,0,302.20731062669364,None,,,,,,,,,,,,,,,,,,,,,,,,,,,,,,,,,,,,,,,,,,,,,,,,,,,,,,,,,,,,,tomasNotenson,001,d,2019_Oct_10_1423,Experimento,3.2.3,60.3027618386884,
8,14,14,999,0.5,0:10,3,Red,['space'],0,0,1,20:50,./completed_changuitos/montage_yfuxc_268.59_319.95.jpg,right,0,0,0,0,,,,,0,0,0,0,,,,,,,,,0,0,0,0,0,21,21,21,,,,,,,,,,,,,,,,,,302.20731062669364,None,None,0,302.20731062669364,None,,,,,,,,,,,,,,,,,,,,,,,,,,,,,,,,,,,,,,,,,,,,,,,,,,,,,,,,,,,,,tomasNotenson,001,d,2019_Oct_10_1423,Experimento,3.2.3,60.3027618386884,
8,14,14,999,0.5,0:10,3,Yellow,None,0,0,1,20:50,./completed_changuitos/montage_yfuxc_268.59_319.95.jpg,right,0,0,0,0,,,,,0,0,0,0,,,,,,,,,0,0,0,0,0,22,22,22,,,,,,,,,,,,,,,,,,302.20731062669364,None,None,1,302.20731062669364,None,,,,,,,,,,,,,,,,,,,,,,,,,,,,,,,,,,,,,,,,,,,,,,,,,,,,,,,,,,,,,tomasNotenson,001,d,2019_Oct_10_1423,Experimento,3.2.3,60.3027618386884,
8,14,14,999,0.5,0:10,3,Cyan,None,0,0,1,20:50,./completed_changuitos/montage_yfuxc_268.59_319.95.jpg,right,0,0,0,0,,,,,0,0,0,0,,,,,,,,,0,0,0,0,0,23,23,23,,,,,,,,,,,,,,,,,,302.20731062669364,None,None,1,302.20731062669364,None,,,,,,,,,,,,,,,,,,,,,,,,,,,,,,,,,,,,,,,,,,,,,,,,,,,,,,,,,,,,,tomasNotenson,001,d,2019_Oct_10_1423,Experimento,3.2.3,60.3027618386884,
8,14,14,999,0.5,0:10,3,Green,None,0,0,1,20:50,./completed_changuitos/montage_yfuxc_268.59_319.95.jpg,right,0,0,0,0,,,,,0,0,0,0,,,,,,,,,0,0,0,0,0,24,24,24,,,,,,,,,,,,,,,,,,302.20731062669364,None,None,1,302.20731062669364,None,,,,,,,,,,,,,,,,,,,,,,,,,,,,,,,,,,,,,,,,,,,,,,,,,,,,,,,,,,,,,tomasNotenson,001,d,2019_Oct_10_1423,Experimento,3.2.3,60.3027618386884,
8,14,14,999,0.5,0:10,3,White,None,0,0,1,20:50,./completed_changuitos/montage_yfuxc_268.59_319.95.jpg,right,0,0,0,0,,,,,0,0,0,0,,,,,,,,,0,0,0,0,0,25,25,25,,,,,,,,,,,,,,,,,,302.20731062669364,None,None,1,302.20731062669364,None,,,,,,,,,,,,,,,,,,,,,,,,,,,,,,,,,,,,,,,,,,,,,,,,,,,,,,,,,,,,,tomasNotenson,001,d,2019_Oct_10_1423,Experimento,3.2.3,60.3027618386884,
8,14,14,999,0.5,0:10,3,Green,['space'],0,0,1,20:50,./completed_changuitos/montage_yfuxc_268.59_319.95.jpg,right,0,0,0,0,,,,,0,0,0,0,,,,,,,,,0,0,0,0,0,26,26,26,,,,,,,,,,,,,,,,,,302.20731062669364,None,None,0,302.20731062669364,None,,,,,,,,,,,,,,,,,,,,,,,,,,,,,,,,,,,,,,,,,,,,,,,,,,,,,,,,,,,,,tomasNotenson,001,d,2019_Oct_10_1423,Experimento,3.2.3,60.3027618386884,
8,14,14,999,0.5,0:10,3,Red,None,0,0,1,20:50,./completed_changuitos/montage_yfuxc_268.59_319.95.jpg,right,0,0,0,0,,,,,0,0,0,0,,,,,,,,,0,0,0,0,0,27,27,27,,,,,,,,,,,,,,,,,,302.20731062669364,None,None,1,302.20731062669364,None,,,,,,,,,,,,,,,,,,,,,,,,,,,,,,,,,,,,,,,,,,,,,,,,,,,,,,,,,,,,,tomasNotenson,001,d,2019_Oct_10_1423,Experimento,3.2.3,60.3027618386884,
8,14,14,999,0.5,0:10,3,Blue,None,0,0,1,20:50,./completed_changuitos/montage_yfuxc_268.59_319.95.jpg,right,0,0,0,0,,,,,0,0,0,0,,,,,,,,,0,0,0,0,0,28,28,28,,,,,,,,,,,,,,,,,,302.20731062669364,None,None,1,302.20731062669364,None,,,,,,,,,,,,,,,,,,,,,,,,,,,,,,,,,,,,,,,,,,,,,,,,,,,,,,,,,,,,,tomasNotenson,001,d,2019_Oct_10_1423,Experimento,3.2.3,60.3027618386884,
8,14,14,999,0.5,0:10,3,Green,None,0,0,1,20:50,./completed_changuitos/montage_yfuxc_268.59_319.95.jpg,right,0,0,0,0,,,,,0,0,0,0,,,,,,,,,0,0,0,0,0,29,29,29,,,,,,,,,,,,,,,,,,302.22396465959315,None,None,1,302.22396465959315,None,,,,,,,,,,,,,,,,,,,,,,,,,,,,,,,,,,,,,,,,,,,,,,,,,,,,,,,,,,,,,tomasNotenson,001,d,2019_Oct_10_1423,Experimento,3.2.3,60.3027618386884,
8,14,14,999,0.5,0:10,3,,,0,0,1,20:50,./completed_changuitos/montage_yfuxc_268.59_319.95.jpg,right,0,0,0,0,,,,,0,0,0,0,,,,,,,,,0,0,0,0,,,,,,,,,,,,,,,,,,,,,,,,,,,,,302.25425065700256,None,right,1,1.8510810209991178,302.25425065700256,None,302.25425065700256,None,,,,,,,,,,,,,,,,,,,,,,,,,,,,,,,,,,,,,,,,,,,,,,,,,,,tomasNotenson,001,d,2019_Oct_10_1423,Experimento,3.2.3,60.3027618386884,
8,14,14,999,0.5,0:10,3,,,0,0,1,20:50,,,0,0,0,0,,,,,0,0,0,0,,,,,,,,,,,,,,,,,,,,,,,,,,,,,,,,,,,,,,,,,,,,,,,,,,,,,,,,,,,,,,,,,,,,,,,,,,,,,,,,,,,,,,,,,,,,,,,,,,,,tomasNotenson,001,d,2019_Oct_10_1423,Experimento,3.2.3,60.3027618386884,
8,14,14,999,0.5,0:10,3,,,0,1,0,10:50,./completed_changuitos/montage_zkqit_176.55_148.39.jpg,left,0,0,0,0,,,,,0,1,1,1,,,,,0,0,0,0,,,,,,,,,,,,,,,,,,,,,,,,,,,,,,,,,,,,,,,,,,304.2504648769973,306.07271949200367,306.07271949200367,314.0865998549998,314.0865998549998,328.09848819099716,left,1,1.0001780309976311,328.09848819099716,None,328.09848819099716,None,328.09848819099716,None,,,,,,,,,,,,,,,,,,,,,,,,,,,,,,,,,,,,tomasNotenson,001,d,2019_Oct_10_1423,Experimento,3.2.3,60.3027618386884,
8,14,14,999,0.5,0:10,3,,,0,1,0,10:50,,,0,0,0,0,,,,,0,1,1,1,,,,,,,,,,,,,,,,,,,,,,,,,,,,,,,,,,,,,,,,,,,,,,,,,,,,,,,,,,,,,,,,,,,,,,,,,,,,,,,,,,,,,,,,,,,,,,,,,,,,tomasNotenson,001,d,2019_Oct_10_1423,Experimento,3.2.3,60.3027618386884,
8,14,14,999,0.5,0:10,3,,,0,1,0,25:50,./completed_changuitos/montage_btjac_110.75_126.99.jpg,right,0,0,0,0,,,,,0,2,2,2,,,,,0,0,0,0,,,,,,,,,,,,,,,,,,,,,,,,,,,,,,,,,,,,,,,,,,329.2539000179968,330.59762291799416,330.59762291799416,338.611356110996,338.611356110996,352.6234752290038,left,0,1.0834772590023931,352.6234752290038,None,352.6234752290038,None,352.6234752290038,None,,,,,,,,,,,,,,,,,,,,,,,,,,,,,,,,,,,,tomasNotenson,001,d,2019_Oct_10_1423,Experimento,3.2.3,60.3027618386884,
8,14,14,999,0.5,0:10,3,,,0,1,0,25:50,,,0,0,0,0,,,,,0,2,2,2,,,,,,,,,,,,,,,,,,,,,,,,,,,,,,,,,,,,,,,,,,,,,,,,,,,,,,,,,,,,,,,,,,,,,,,,,,,,,,,,,,,,,,,,,,,,,,,,,,,,tomasNotenson,001,d,2019_Oct_10_1423,Experimento,3.2.3,60.3027618386884,
8,14,14,999,0.5,0:10,3,Yellow,None,0,0,1,15:50,./completed_changuitos/montage_jljhf_41.09_46.0.jpg,right,0,0,0,0,,,,,0,3,3,3,,,,,,,,,0,0,0,0,0,0,0,0,,,,,,,,,,,,,,353.839598423001,354.9893428249925,354.9893428249925,None,363.03121065499727,363.536037561993,None,1,363.03121065499727,None,,,,,,,,,,,,,,,,,,,,,,,,,,,,,,,,,,,,,,,,,,,,,,,,,,,,,,,,,,,,,tomasNotenson,001,d,2019_Oct_10_1423,Experimento,3.2.3,60.3027618386884,
8,14,14,999,0.5,0:10,3,White,['space'],0,0,1,15:50,./completed_changuitos/montage_jljhf_41.09_46.0.jpg,right,0,0,0,0,,,,,0,3,3,3,,,,,,,,,0,0,0,0,0,1,1,1,,,,,,,,,,,,,,,,,,365.0358189510007,365.5356846509967,None,0,365.0358189510007,365.0358189510007,,,,,,,,,,,,,,,,,,,,,,,,,,,,,,,,,,,,,,,,,,,,,,,,,,,,,,,,,,,,,tomasNotenson,001,d,2019_Oct_10_1423,Experimento,3.2.3,60.3027618386884,
8,14,14,999,0.5,0:10,3,Magenta,None,0,0,1,15:50,./completed_changuitos/montage_jljhf_41.09_46.0.jpg,right,0,0,0,0,,,,,0,3,3,3,,,,,,,,,0,0,0,0,0,2,2,2,,,,,,,,,,,,,,,,,,367.0350618639932,367.5350036259915,None,1,367.0350618639932,367.0350618639932,,,,,,,,,,,,,,,,,,,,,,,,,,,,,,,,,,,,,,,,,,,,,,,,,,,,,,,,,,,,,tomasNotenson,001,d,2019_Oct_10_1423,Experimento,3.2.3,60.3027618386884,
8,14,14,999,0.5,0:10,3,Cyan,None,0,0,1,15:50,./completed_changuitos/montage_jljhf_41.09_46.0.jpg,right,0,0,0,0,,,,,0,3,3,3,,,,,,,,,0,0,0,0,0,3,3,3,,,,,,,,,,,,,,,,,,369.0344250670023,369.5343350949988,None,1,369.0344250670023,369.0344250670023,,,,,,,,,,,,,,,,,,,,,,,,,,,,,,,,,,,,,,,,,,,,,,,,,,,,,,,,,,,,,tomasNotenson,001,d,2019_Oct_10_1423,Experimento,3.2.3,60.3027618386884,
8,14,14,999,0.5,0:10,3,Blue,None,0,0,1,15:50,./completed_changuitos/montage_jljhf_41.09_46.0.jpg,right,0,0,0,0,,,,,0,3,3,3,,,,,,,,,0,0,0,0,0,4,4,4,,,,,,,,,,,,,,,,,,371.0337577619939,371.53363294499286,None,1,371.0337577619939,371.0337577619939,,,,,,,,,,,,,,,,,,,,,,,,,,,,,,,,,,,,,,,,,,,,,,,,,,,,,,,,,,,,,tomasNotenson,001,d,2019_Oct_10_1423,Experimento,3.2.3,60.3027618386884,
8,14,14,999,0.5,0:10,3,Magenta,None,0,0,1,15:50,./completed_changuitos/montage_jljhf_41.09_46.0.jpg,right,0,0,0,0,,,,,0,3,3,3,,,,,,,,,0,0,0,0,0,5,5,5,,,,,,,,,,,,,,,,,,373.0331126980018,373.53297742499853,None,1,373.0331126980018,373.0331126980018,,,,,,,,,,,,,,,,,,,,,,,,,,,,,,,,,,,,,,,,,,,,,,,,,,,,,,,,,,,,,tomasNotenson,001,d,2019_Oct_10_1423,Experimento,3.2.3,60.3027618386884,
8,14,14,999,0.5,0:10,3,Blue,['space'],0,0,1,15:50,./completed_changuitos/montage_jljhf_41.09_46.0.jpg,right,0,0,0,0,,,,,0,3,3,3,,,,,,,,,0,0,0,0,0,6,6,6,,,,,,,,,,,,,,,,,,375.0323858969932,375.53231354500167,None,0,375.0323858969932,375.0323858969932,,,,,,,,,,,,,,,,,,,,,,,,,,,,,,,,,,,,,,,,,,,,,,,,,,,,,,,,,,,,,tomasNotenson,001,d,2019_Oct_10_1423,Experimento,3.2.3,60.3027618386884,
8,14,14,999,0.5,0:10,3,Cyan,None,0,0,1,15:50,./completed_changuitos/montage_jljhf_41.09_46.0.jpg,right,0,0,0,0,,,,,0,3,3,3,,,,,,,,,0,0,0,0,0,7,7,7,,,,,,,,,,,,,,,,,,377.0150738789001,None,None,1,377.0150738789001,None,,,,,,,,,,,,,,,,,,,,,,,,,,,,,,,,,,,,,,,,,,,,,,,,,,,,,,,,,,,,,tomasNotenson,001,d,2019_Oct_10_1423,Experimento,3.2.3,60.3027618386884,
8,14,14,999,0.5,0:10,3,Yellow,None,0,0,1,15:50,./completed_changuitos/montage_jljhf_41.09_46.0.jpg,right,0,0,0,0,,,,,0,3,3,3,,,,,,,,,0,0,0,0,0,8,8,8,,,,,,,,,,,,,,,,,,377.0150738789001,None,None,1,377.0150738789001,None,,,,,,,,,,,,,,,,,,,,,,,,,,,,,,,,,,,,,,,,,,,,,,,,,,,,,,,,,,,,,tomasNotenson,001,d,2019_Oct_10_1423,Experimento,3.2.3,60.3027618386884,
8,14,14,999,0.5,0:10,3,Cyan,None,0,0,1,15:50,./completed_changuitos/montage_jljhf_41.09_46.0.jpg,right,0,0,0,0,,,,,0,3,3,3,,,,,,,,,0,0,0,0,0,9,9,9,,,,,,,,,,,,,,,,,,377.0150738789001,None,None,1,377.0150738789001,None,,,,,,,,,,,,,,,,,,,,,,,,,,,,,,,,,,,,,,,,,,,,,,,,,,,,,,,,,,,,,tomasNotenson,001,d,2019_Oct_10_1423,Experimento,3.2.3,60.3027618386884,
8,14,14,999,0.5,0:10,3,Blue,None,0,0,1,15:50,./completed_changuitos/montage_jljhf_41.09_46.0.jpg,right,0,0,0,0,,,,,0,3,3,3,,,,,,,,,0,0,0,0,0,10,10,10,,,,,,,,,,,,,,,,,,377.0150738789001,None,None,1,377.0150738789001,None,,,,,,,,,,,,,,,,,,,,,,,,,,,,,,,,,,,,,,,,,,,,,,,,,,,,,,,,,,,,,tomasNotenson,001,d,2019_Oct_10_1423,Experimento,3.2.3,60.3027618386884,
8,14,14,999,0.5,0:10,3,Cyan,['space'],0,0,1,15:50,./completed_changuitos/montage_jljhf_41.09_46.0.jpg,right,0,0,0,0,,,,,0,3,3,3,,,,,,,,,0,0,0,0,0,11,11,11,,,,,,,,,,,,,,,,,,377.03172791179963,None,None,0,377.03172791179963,None,,,,,,,,,,,,,,,,,,,,,,,,,,,,,,,,,,,,,,,,,,,,,,,,,,,,,,,,,,,,,tomasNotenson,001,d,2019_Oct_10_1423,Experimento,3.2.3,60.3027618386884,
8,14,14,999,0.5,0:10,3,Magenta,None,0,0,1,15:50,./completed_changuitos/montage_jljhf_41.09_46.0.jpg,right,0,0,0,0,,,,,0,3,3,3,,,,,,,,,0,0,0,0,0,12,12,12,,,,,,,,,,,,,,,,,,377.03172791179963,None,None,1,377.03172791179963,None,,,,,,,,,,,,,,,,,,,,,,,,,,,,,,,,,,,,,,,,,,,,,,,,,,,,,,,,,,,,,tomasNotenson,001,d,2019_Oct_10_1423,Experimento,3.2.3,60.3027618386884,
8,14,14,999,0.5,0:10,3,Red,None,0,0,1,15:50,./completed_changuitos/montage_jljhf_41.09_46.0.jpg,right,0,0,0,0,,,,,0,3,3,3,,,,,,,,,0,0,0,0,0,13,13,13,,,,,,,,,,,,,,,,,,377.03172791179963,None,None,1,377.03172791179963,None,,,,,,,,,,,,,,,,,,,,,,,,,,,,,,,,,,,,,,,,,,,,,,,,,,,,,,,,,,,,,tomasNotenson,001,d,2019_Oct_10_1423,Experimento,3.2.3,60.3027618386884,
8,14,14,999,0.5,0:10,3,Magenta,['space'],0,0,1,15:50,./completed_changuitos/montage_jljhf_41.09_46.0.jpg,right,0,0,0,0,,,,,0,3,3,3,,,,,,,,,0,0,0,0,0,14,14,14,,,,,,,,,,,,,,,,,,377.03172791179963,None,None,0,377.03172791179963,None,,,,,,,,,,,,,,,,,,,,,,,,,,,,,,,,,,,,,,,,,,,,,,,,,,,,,,,,,,,,,tomasNotenson,001,d,2019_Oct_10_1423,Experimento,3.2.3,60.3027618386884,
8,14,14,999,0.5,0:10,3,Green,None,0,0,1,15:50,./completed_changuitos/montage_jljhf_41.09_46.0.jpg,right,0,0,0,0,,,,,0,3,3,3,,,,,,,,,0,0,0,0,0,15,15,15,,,,,,,,,,,,,,,,,,377.03172791179963,None,None,1,377.03172791179963,None,,,,,,,,,,,,,,,,,,,,,,,,,,,,,,,,,,,,,,,,,,,,,,,,,,,,,,,,,,,,,tomasNotenson,001,d,2019_Oct_10_1423,Experimento,3.2.3,60.3027618386884,
8,14,14,999,0.5,0:10,3,Yellow,['space'],0,0,1,15:50,./completed_changuitos/montage_jljhf_41.09_46.0.jpg,right,0,0,0,0,,,,,0,3,3,3,,,,,,,,,0,0,0,0,0,16,16,16,,,,,,,,,,,,,,,,,,377.03172791179963,None,None,0,377.03172791179963,None,,,,,,,,,,,,,,,,,,,,,,,,,,,,,,,,,,,,,,,,,,,,,,,,,,,,,,,,,,,,,tomasNotenson,001,d,2019_Oct_10_1423,Experimento,3.2.3,60.3027618386884,
8,14,14,999,0.5,0:10,3,Blue,None,0,0,1,15:50,./completed_changuitos/montage_jljhf_41.09_46.0.jpg,right,0,0,0,0,,,,,0,3,3,3,,,,,,,,,0,0,0,0,0,17,17,17,,,,,,,,,,,,,,,,,,377.0483819446992,None,None,1,377.0483819446992,None,,,,,,,,,,,,,,,,,,,,,,,,,,,,,,,,,,,,,,,,,,,,,,,,,,,,,,,,,,,,,tomasNotenson,001,d,2019_Oct_10_1423,Experimento,3.2.3,60.3027618386884,
8,14,14,999,0.5,0:10,3,Cyan,None,0,0,1,15:50,./completed_changuitos/montage_jljhf_41.09_46.0.jpg,right,0,0,0,0,,,,,0,3,3,3,,,,,,,,,0,0,0,0,0,18,18,18,,,,,,,,,,,,,,,,,,377.0483819446992,None,None,1,377.0483819446992,None,,,,,,,,,,,,,,,,,,,,,,,,,,,,,,,,,,,,,,,,,,,,,,,,,,,,,,,,,,,,,tomasNotenson,001,d,2019_Oct_10_1423,Experimento,3.2.3,60.3027618386884,
8,14,14,999,0.5,0:10,3,Blue,['space'],0,0,1,15:50,./completed_changuitos/montage_jljhf_41.09_46.0.jpg,right,0,0,0,0,,,,,0,3,3,3,,,,,,,,,0,0,0,0,0,19,19,19,,,,,,,,,,,,,,,,,,377.0483819446992,None,None,0,377.0483819446992,None,,,,,,,,,,,,,,,,,,,,,,,,,,,,,,,,,,,,,,,,,,,,,,,,,,,,,,,,,,,,,tomasNotenson,001,d,2019_Oct_10_1423,Experimento,3.2.3,60.3027618386884,
8,14,14,999,0.5,0:10,3,Yellow,None,0,0,1,15:50,./completed_changuitos/montage_jljhf_41.09_46.0.jpg,right,0,0,0,0,,,,,0,3,3,3,,,,,,,,,0,0,0,0,0,20,20,20,,,,,,,,,,,,,,,,,,377.0483819446992,None,None,1,377.0483819446992,None,,,,,,,,,,,,,,,,,,,,,,,,,,,,,,,,,,,,,,,,,,,,,,,,,,,,,,,,,,,,,tomasNotenson,001,d,2019_Oct_10_1423,Experimento,3.2.3,60.3027618386884,
8,14,14,999,0.5,0:10,3,Cyan,None,0,0,1,15:50,./completed_changuitos/montage_jljhf_41.09_46.0.jpg,right,0,0,0,0,,,,,0,3,3,3,,,,,,,,,0,0,0,0,0,21,21,21,,,,,,,,,,,,,,,,,,377.0483819446992,None,None,1,377.0483819446992,None,,,,,,,,,,,,,,,,,,,,,,,,,,,,,,,,,,,,,,,,,,,,,,,,,,,,,,,,,,,,,tomasNotenson,001,d,2019_Oct_10_1423,Experimento,3.2.3,60.3027618386884,
8,14,14,999,0.5,0:10,3,Yellow,['space'],0,0,1,15:50,./completed_changuitos/montage_jljhf_41.09_46.0.jpg,right,0,0,0,0,,,,,0,3,3,3,,,,,,,,,0,0,0,0,0,22,22,22,,,,,,,,,,,,,,,,,,377.0483819446992,None,None,0,377.0483819446992,None,,,,,,,,,,,,,,,,,,,,,,,,,,,,,,,,,,,,,,,,,,,,,,,,,,,,,,,,,,,,,tomasNotenson,001,d,2019_Oct_10_1423,Experimento,3.2.3,60.3027618386884,
8,14,14,999,0.5,0:10,3,Magenta,None,0,0,1,15:50,./completed_changuitos/montage_jljhf_41.09_46.0.jpg,right,0,0,0,0,,,,,0,3,3,3,,,,,,,,,0,0,0,0,0,23,23,23,,,,,,,,,,,,,,,,,,377.0483819446992,None,None,1,377.0483819446992,None,,,,,,,,,,,,,,,,,,,,,,,,,,,,,,,,,,,,,,,,,,,,,,,,,,,,,,,,,,,,,tomasNotenson,001,d,2019_Oct_10_1423,Experimento,3.2.3,60.3027618386884,
8,14,14,999,0.5,0:10,3,Red,None,0,0,1,15:50,./completed_changuitos/montage_jljhf_41.09_46.0.jpg,right,0,0,0,0,,,,,0,3,3,3,,,,,,,,,0,0,0,0,0,24,24,24,,,,,,,,,,,,,,,,,,377.0483819446992,None,None,1,377.0483819446992,None,,,,,,,,,,,,,,,,,,,,,,,,,,,,,,,,,,,,,,,,,,,,,,,,,,,,,,,,,,,,,tomasNotenson,001,d,2019_Oct_10_1423,Experimento,3.2.3,60.3027618386884,
8,14,14,999,0.5,0:10,3,Magenta,['space'],0,0,1,15:50,./completed_changuitos/montage_jljhf_41.09_46.0.jpg,right,0,0,0,0,,,,,0,3,3,3,,,,,,,,,0,0,0,0,0,25,25,25,,,,,,,,,,,,,,,,,,377.0483819446992,None,None,0,377.0483819446992,None,,,,,,,,,,,,,,,,,,,,,,,,,,,,,,,,,,,,,,,,,,,,,,,,,,,,,,,,,,,,,tomasNotenson,001,d,2019_Oct_10_1423,Experimento,3.2.3,60.3027618386884,
8,14,14,999,0.5,0:10,3,Red,['space'],0,0,1,15:50,./completed_changuitos/montage_jljhf_41.09_46.0.jpg,right,0,0,0,0,,,,,0,3,3,3,,,,,,,,,0,0,0,0,0,26,26,26,,,,,,,,,,,,,,,,,,377.0483819446992,None,None,0,377.0483819446992,None,,,,,,,,,,,,,,,,,,,,,,,,,,,,,,,,,,,,,,,,,,,,,,,,,,,,,,,,,,,,,tomasNotenson,001,d,2019_Oct_10_1423,Experimento,3.2.3,60.3027618386884,
8,14,14,999,0.5,0:10,3,Yellow,None,0,0,1,15:50,./completed_changuitos/montage_jljhf_41.09_46.0.jpg,right,0,0,0,0,,,,,0,3,3,3,,,,,,,,,0,0,0,0,0,27,27,27,,,,,,,,,,,,,,,,,,377.0483819446992,None,None,1,377.0483819446992,None,,,,,,,,,,,,,,,,,,,,,,,,,,,,,,,,,,,,,,,,,,,,,,,,,,,,,,,,,,,,,tomasNotenson,001,d,2019_Oct_10_1423,Experimento,3.2.3,60.3027618386884,
8,14,14,999,0.5,0:10,3,Cyan,None,0,0,1,15:50,./completed_changuitos/montage_jljhf_41.09_46.0.jpg,right,0,0,0,0,,,,,0,3,3,3,,,,,,,,,0,0,0,0,0,28,28,28,,,,,,,,,,,,,,,,,,377.0483819446992,None,None,1,377.0483819446992,None,,,,,,,,,,,,,,,,,,,,,,,,,,,,,,,,,,,,,,,,,,,,,,,,,,,,,,,,,,,,,tomasNotenson,001,d,2019_Oct_10_1423,Experimento,3.2.3,60.3027618386884,
8,14,14,999,0.5,0:10,3,Green,None,0,0,1,15:50,./completed_changuitos/montage_jljhf_41.09_46.0.jpg,right,0,0,0,0,,,,,0,3,3,3,,,,,,,,,0,0,0,0,0,29,29,29,,,,,,,,,,,,,,,,,,377.0483819446992,None,None,1,377.0483819446992,None,,,,,,,,,,,,,,,,,,,,,,,,,,,,,,,,,,,,,,,,,,,,,,,,,,,,,,,,,,,,,tomasNotenson,001,d,2019_Oct_10_1423,Experimento,3.2.3,60.3027618386884,
8,14,14,999,0.5,0:10,3,White,None,0,0,1,15:50,./completed_changuitos/montage_jljhf_41.09_46.0.jpg,right,0,0,0,0,,,,,0,3,3,3,,,,,,,,,0,0,0,0,0,30,30,30,,,,,,,,,,,,,,,,,,377.0650359775987,None,None,1,377.0650359775987,None,,,,,,,,,,,,,,,,,,,,,,,,,,,,,,,,,,,,,,,,,,,,,,,,,,,,,,,,,,,,,tomasNotenson,001,d,2019_Oct_10_1423,Experimento,3.2.3,60.3027618386884,
8,14,14,999,0.5,0:10,3,Green,['space'],0,0,1,15:50,./completed_changuitos/montage_jljhf_41.09_46.0.jpg,right,0,0,0,0,,,,,0,3,3,3,,,,,,,,,0,0,0,0,0,31,31,31,,,,,,,,,,,,,,,,,,377.0650359775987,None,None,0,377.0650359775987,None,,,,,,,,,,,,,,,,,,,,,,,,,,,,,,,,,,,,,,,,,,,,,,,,,,,,,,,,,,,,,tomasNotenson,001,d,2019_Oct_10_1423,Experimento,3.2.3,60.3027618386884,
8,14,14,999,0.5,0:10,3,Red,None,0,0,1,15:50,./completed_changuitos/montage_jljhf_41.09_46.0.jpg,right,0,0,0,0,,,,,0,3,3,3,,,,,,,,,0,0,0,0,0,32,32,32,,,,,,,,,,,,,,,,,,377.0650359775987,None,None,1,377.0650359775987,None,,,,,,,,,,,,,,,,,,,,,,,,,,,,,,,,,,,,,,,,,,,,,,,,,,,,,,,,,,,,,tomasNotenson,001,d,2019_Oct_10_1423,Experimento,3.2.3,60.3027618386884,
8,14,14,999,0.5,0:10,3,Blue,None,0,0,1,15:50,./completed_changuitos/montage_jljhf_41.09_46.0.jpg,right,0,0,0,0,,,,,0,3,3,3,,,,,,,,,0,0,0,0,0,33,33,33,,,,,,,,,,,,,,,,,,377.0650359775987,None,None,1,377.0650359775987,None,,,,,,,,,,,,,,,,,,,,,,,,,,,,,,,,,,,,,,,,,,,,,,,,,,,,,,,,,,,,,tomasNotenson,001,d,2019_Oct_10_1423,Experimento,3.2.3,60.3027618386884,
8,14,14,999,0.5,0:10,3,Green,None,0,0,1,15:50,./completed_changuitos/montage_jljhf_41.09_46.0.jpg,right,0,0,0,0,,,,,0,3,3,3,,,,,,,,,0,0,0,0,0,34,34,34,,,,,,,,,,,,,,,,,,377.0650359775987,None,None,1,377.0650359775987,None,,,,,,,,,,,,,,,,,,,,,,,,,,,,,,,,,,,,,,,,,,,,,,,,,,,,,,,,,,,,,tomasNotenson,001,d,2019_Oct_10_1423,Experimento,3.2.3,60.3027618386884,
8,14,14,999,0.5,0:10,3,,,0,0,1,15:50,./completed_changuitos/montage_jljhf_41.09_46.0.jpg,right,0,0,0,0,,,,,0,3,3,3,,,,,,,,,0,0,0,0,,,,,,,,,,,,,,,,,,,,,,,,,,,,,377.0950467329967,None,right,1,2.3351932679943275,377.0950467329967,None,377.0950467329967,None,,,,,,,,,,,,,,,,,,,,,,,,,,,,,,,,,,,,,,,,,,,,,,,,,,,tomasNotenson,001,d,2019_Oct_10_1423,Experimento,3.2.3,60.3027618386884,
8,14,14,999,0.5,0:10,3,,,0,0,1,15:50,,,0,0,0,0,,,,,0,3,3,3,,,,,,,,,,,,,,,,,,,,,,,,,,,,,,,,,,,,,,,,,,,,,,,,,,,,,,,,,,,,,,,,,,,,,,,,,,,,,,,,,,,,,,,,,,,,,,,,,,,,tomasNotenson,001,d,2019_Oct_10_1423,Experimento,3.2.3,60.3027618386884,
8,14,14,999,0.5,0:10,3,,,0,1,0,10:50,./completed_changuitos/montage_czwrl_287.85_329.55.jpg,right,0,0,0,0,,,,,0,4,4,4,,,,,0,0,0,0,,,,,,,,,,,,,,,,,,,,,,,,,,,,,,,,,,,,,,,,,,379.56624088699755,380.6138781210029,380.6138781210029,388.627848581993,388.627848581993,402.6397348390019,left,0,2.749487295994186,402.6397348390019,None,402.6397348390019,None,402.6397348390019,None,,,,,,,,,,,,,,,,,,,,,,,,,,,,,,,,,,,,tomasNotenson,001,d,2019_Oct_10_1423,Experimento,3.2.3,60.3027618386884,
8,14,14,999,0.5,0:10,3,,,0,1,0,10:50,,,0,0,0,0,,,,,0,4,4,4,,,,,,,,,,,,,,,,,,,,,,,,,,,,,,,,,,,,,,,,,,,,,,,,,,,,,,,,,,,,,,,,,,,,,,,,,,,,,,,,,,,,,,,,,,,,,,,,,,,,tomasNotenson,001,d,2019_Oct_10_1423,Experimento,3.2.3,60.3027618386884,
8,14,14,999,0.5,0:10,3,Red,None,0,0,1,28:50,./completed_changuitos/montage_yucep_320.45_365.95.jpg,right,0,0,0,0,,,,,0,5,5,5,,,,,,,,,0,0,0,0,0,0,0,0,,,,,,,,,,,,,,405.51390202699986,406.6549101749988,406.6549101749988,None,414.69775399599166,415.2020334319968,None,1,414.69775399599166,None,,,,,,,,,,,,,,,,,,,,,,,,,,,,,,,,,,,,,,,,,,,,,,,,,,,,,,,,,,,,,tomasNotenson,001,d,2019_Oct_10_1423,Experimento,3.2.3,60.3027618386884,
8,14,14,999,0.5,0:10,3,Magenta,['space'],0,0,1,28:50,./completed_changuitos/montage_yucep_320.45_365.95.jpg,right,0,0,0,0,,,,,0,5,5,5,,,,,,,,,0,0,0,0,0,1,1,1,,,,,,,,,,,,,,,,,,416.7010922210029,417.2010063249909,None,0,416.7010922210029,416.7010922210029,,,,,,,,,,,,,,,,,,,,,,,,,,,,,,,,,,,,,,,,,,,,,,,,,,,,,,,,,,,,,tomasNotenson,001,d,2019_Oct_10_1423,Experimento,3.2.3,60.3027618386884,
8,14,14,999,0.5,0:10,3,Green,None,0,0,1,28:50,./completed_changuitos/montage_yucep_320.45_365.95.jpg,right,0,0,0,0,,,,,0,5,5,5,,,,,,,,,0,0,0,0,0,2,2,2,,,,,,,,,,,,,,,,,,418.70048042800045,419.20073488699563,None,1,418.70048042800045,418.70048042800045,,,,,,,,,,,,,,,,,,,,,,,,,,,,,,,,,,,,,,,,,,,,,,,,,,,,,,,,,,,,,tomasNotenson,001,d,2019_Oct_10_1423,Experimento,3.2.3,60.3027618386884,
8,14,14,999,0.5,0:10,3,Yellow,['space'],0,0,1,28:50,./completed_changuitos/montage_yucep_320.45_365.95.jpg,right,0,0,0,0,,,,,0,5,5,5,,,,,,,,,0,0,0,0,0,3,3,3,,,,,,,,,,,,,,,,,,420.70014420399093,421.1999954990024,None,0,420.70014420399093,420.70014420399093,,,,,,,,,,,,,,,,,,,,,,,,,,,,,,,,,,,,,,,,,,,,,,,,,,,,,,,,,,,,,tomasNotenson,001,d,2019_Oct_10_1423,Experimento,3.2.3,60.3027618386884,
8,14,14,999,0.5,0:10,3,Blue,None,0,0,1,28:50,./completed_changuitos/montage_yucep_320.45_365.95.jpg,right,0,0,0,0,,,,,0,5,5,5,,,,,,,,,0,0,0,0,0,4,4,4,,,,,,,,,,,,,,,,,,422.6993895179912,423.199359826991,None,1,422.6993895179912,422.6993895179912,,,,,,,,,,,,,,,,,,,,,,,,,,,,,,,,,,,,,,,,,,,,,,,,,,,,,,,,,,,,,tomasNotenson,001,d,2019_Oct_10_1423,Experimento,3.2.3,60.3027618386884,
8,14,14,999,0.5,0:10,3,Cyan,None,0,0,1,28:50,./completed_changuitos/montage_yucep_320.45_365.95.jpg,right,0,0,0,0,,,,,0,5,5,5,,,,,,,,,0,0,0,0,0,5,5,5,,,,,,,,,,,,,,,,,,424.69868068599317,425.1985988910019,None,1,424.69868068599317,424.69868068599317,,,,,,,,,,,,,,,,,,,,,,,,,,,,,,,,,,,,,,,,,,,,,,,,,,,,,,,,,,,,,tomasNotenson,001,d,2019_Oct_10_1423,Experimento,3.2.3,60.3027618386884,
8,14,14,999,0.5,0:10,3,Blue,['space'],0,0,1,28:50,./completed_changuitos/montage_yucep_320.45_365.95.jpg,right,0,0,0,0,,,,,0,5,5,5,,,,,,,,,0,0,0,0,0,6,6,6,,,,,,,,,,,,,,,,,,426.69811953700264,427.19795725899166,['return'],0,426.69811953700264,426.69811953700264,[0.40188639498956036],,,,,,,,,,,,,,,,,,,,,,,,,,,,,,,,,,,,,,,,,,,,,,,,,,,,,,,,,,,,tomasNotenson,001,d,2019_Oct_10_1423,Experimento,3.2.3,60.3027618386884,
8,14,14,999,0.5,0:10,3,Yellow,None,0,0,1,28:50,./completed_changuitos/montage_yucep_320.45_365.95.jpg,right,0,0,0,0,,,,,0,5,5,5,,,,,,,,,0,0,0,0,0,7,7,7,,,,,,,,,,,,,,,,,,428.6807455958973,None,None,1,428.6807455958973,None,,,,,,,,,,,,,,,,,,,,,,,,,,,,,,,,,,,,,,,,,,,,,,,,,,,,,,,,,,,,,tomasNotenson,001,d,2019_Oct_10_1423,Experimento,3.2.3,60.3027618386884,
8,14,14,999,0.5,0:10,3,Cyan,None,0,0,1,28:50,./completed_changuitos/montage_yucep_320.45_365.95.jpg,right,0,0,0,0,,,,,0,5,5,5,,,,,,,,,0,0,0,0,0,8,8,8,,,,,,,,,,,,,,,,,,428.6807455958973,None,None,1,428.6807455958973,None,,,,,,,,,,,,,,,,,,,,,,,,,,,,,,,,,,,,,,,,,,,,,,,,,,,,,,,,,,,,,tomasNotenson,001,d,2019_Oct_10_1423,Experimento,3.2.3,60.3027618386884,
8,14,14,999,0.5,0:10,3,Yellow,['space'],0,0,1,28:50,./completed_changuitos/montage_yucep_320.45_365.95.jpg,right,0,0,0,0,,,,,0,5,5,5,,,,,,,,,0,0,0,0,0,9,9,9,,,,,,,,,,,,,,,,,,428.6807455958973,None,None,0,428.6807455958973,None,,,,,,,,,,,,,,,,,,,,,,,,,,,,,,,,,,,,,,,,,,,,,,,,,,,,,,,,,,,,,tomasNotenson,001,d,2019_Oct_10_1423,Experimento,3.2.3,60.3027618386884,
8,14,14,999,0.5,0:10,3,Magenta,None,0,0,1,28:50,./completed_changuitos/montage_yucep_320.45_365.95.jpg,right,0,0,0,0,,,,,0,5,5,5,,,,,,,,,0,0,0,0,0,10,10,10,,,,,,,,,,,,,,,,,,428.6807455958973,None,None,1,428.6807455958973,None,,,,,,,,,,,,,,,,,,,,,,,,,,,,,,,,,,,,,,,,,,,,,,,,,,,,,,,,,,,,,tomasNotenson,001,d,2019_Oct_10_1423,Experimento,3.2.3,60.3027618386884,
8,14,14,999,0.5,0:10,3,Red,None,0,0,1,28:50,./completed_changuitos/montage_yucep_320.45_365.95.jpg,right,0,0,0,0,,,,,0,5,5,5,,,,,,,,,0,0,0,0,0,11,11,11,,,,,,,,,,,,,,,,,,428.6973996287968,None,None,1,428.6973996287968,None,,,,,,,,,,,,,,,,,,,,,,,,,,,,,,,,,,,,,,,,,,,,,,,,,,,,,,,,,,,,,tomasNotenson,001,d,2019_Oct_10_1423,Experimento,3.2.3,60.3027618386884,
8,14,14,999,0.5,0:10,3,Magenta,['space'],0,0,1,28:50,./completed_changuitos/montage_yucep_320.45_365.95.jpg,right,0,0,0,0,,,,,0,5,5,5,,,,,,,,,0,0,0,0,0,12,12,12,,,,,,,,,,,,,,,,,,428.6973996287968,None,None,0,428.6973996287968,None,,,,,,,,,,,,,,,,,,,,,,,,,,,,,,,,,,,,,,,,,,,,,,,,,,,,,,,,,,,,,tomasNotenson,001,d,2019_Oct_10_1423,Experimento,3.2.3,60.3027618386884,
8,14,14,999,0.5,0:10,3,Red,['space'],0,0,1,28:50,./completed_changuitos/montage_yucep_320.45_365.95.jpg,right,0,0,0,0,,,,,0,5,5,5,,,,,,,,,0,0,0,0,0,13,13,13,,,,,,,,,,,,,,,,,,428.6973996287968,None,None,0,428.6973996287968,None,,,,,,,,,,,,,,,,,,,,,,,,,,,,,,,,,,,,,,,,,,,,,,,,,,,,,,,,,,,,,tomasNotenson,001,d,2019_Oct_10_1423,Experimento,3.2.3,60.3027618386884,
8,14,14,999,0.5,0:10,3,Yellow,None,0,0,1,28:50,./completed_changuitos/montage_yucep_320.45_365.95.jpg,right,0,0,0,0,,,,,0,5,5,5,,,,,,,,,0,0,0,0,0,14,14,14,,,,,,,,,,,,,,,,,,428.6973996287968,None,None,1,428.6973996287968,None,,,,,,,,,,,,,,,,,,,,,,,,,,,,,,,,,,,,,,,,,,,,,,,,,,,,,,,,,,,,,tomasNotenson,001,d,2019_Oct_10_1423,Experimento,3.2.3,60.3027618386884,
8,14,14,999,0.5,0:10,3,Cyan,None,0,0,1,28:50,./completed_changuitos/montage_yucep_320.45_365.95.jpg,right,0,0,0,0,,,,,0,5,5,5,,,,,,,,,0,0,0,0,0,15,15,15,,,,,,,,,,,,,,,,,,428.6973996287968,None,None,1,428.6973996287968,None,,,,,,,,,,,,,,,,,,,,,,,,,,,,,,,,,,,,,,,,,,,,,,,,,,,,,,,,,,,,,tomasNotenson,001,d,2019_Oct_10_1423,Experimento,3.2.3,60.3027618386884,
8,14,14,999,0.5,0:10,3,Green,None,0,0,1,28:50,./completed_changuitos/montage_yucep_320.45_365.95.jpg,right,0,0,0,0,,,,,0,5,5,5,,,,,,,,,0,0,0,0,0,16,16,16,,,,,,,,,,,,,,,,,,428.6973996287968,None,None,1,428.6973996287968,None,,,,,,,,,,,,,,,,,,,,,,,,,,,,,,,,,,,,,,,,,,,,,,,,,,,,,,,,,,,,,tomasNotenson,001,d,2019_Oct_10_1423,Experimento,3.2.3,60.3027618386884,
8,14,14,999,0.5,0:10,3,White,None,0,0,1,28:50,./completed_changuitos/montage_yucep_320.45_365.95.jpg,right,0,0,0,0,,,,,0,5,5,5,,,,,,,,,0,0,0,0,0,17,17,17,,,,,,,,,,,,,,,,,,428.6973996287968,None,None,1,428.6973996287968,None,,,,,,,,,,,,,,,,,,,,,,,,,,,,,,,,,,,,,,,,,,,,,,,,,,,,,,,,,,,,,tomasNotenson,001,d,2019_Oct_10_1423,Experimento,3.2.3,60.3027618386884,
8,14,14,999,0.5,0:10,3,Green,['space'],0,0,1,28:50,./completed_changuitos/montage_yucep_320.45_365.95.jpg,right,0,0,0,0,,,,,0,5,5,5,,,,,,,,,0,0,0,0,0,18,18,18,,,,,,,,,,,,,,,,,,428.6973996287968,None,None,0,428.6973996287968,None,,,,,,,,,,,,,,,,,,,,,,,,,,,,,,,,,,,,,,,,,,,,,,,,,,,,,,,,,,,,,tomasNotenson,001,d,2019_Oct_10_1423,Experimento,3.2.3,60.3027618386884,
8,14,14,999,0.5,0:10,3,Red,None,0,0,1,28:50,./completed_changuitos/montage_yucep_320.45_365.95.jpg,right,0,0,0,0,,,,,0,5,5,5,,,,,,,,,0,0,0,0,0,19,19,19,,,,,,,,,,,,,,,,,,428.71405366169637,None,None,1,428.71405366169637,None,,,,,,,,,,,,,,,,,,,,,,,,,,,,,,,,,,,,,,,,,,,,,,,,,,,,,,,,,,,,,tomasNotenson,001,d,2019_Oct_10_1423,Experimento,3.2.3,60.3027618386884,
8,14,14,999,0.5,0:10,3,Blue,None,0,0,1,28:50,./completed_changuitos/montage_yucep_320.45_365.95.jpg,right,0,0,0,0,,,,,0,5,5,5,,,,,,,,,0,0,0,0,0,20,20,20,,,,,,,,,,,,,,,,,,428.71405366169637,None,None,1,428.71405366169637,None,,,,,,,,,,,,,,,,,,,,,,,,,,,,,,,,,,,,,,,,,,,,,,,,,,,,,,,,,,,,,tomasNotenson,001,d,2019_Oct_10_1423,Experimento,3.2.3,60.3027618386884,
8,14,14,999,0.5,0:10,3,Green,None,0,0,1,28:50,./completed_changuitos/montage_yucep_320.45_365.95.jpg,right,0,0,0,0,,,,,0,5,5,5,,,,,,,,,0,0,0,0,0,21,21,21,,,,,,,,,,,,,,,,,,428.71405366169637,None,None,1,428.71405366169637,None,,,,,,,,,,,,,,,,,,,,,,,,,,,,,,,,,,,,,,,,,,,,,,,,,,,,,,,,,,,,,tomasNotenson,001,d,2019_Oct_10_1423,Experimento,3.2.3,60.3027618386884,
8,14,14,999,0.5,0:10,3,,,0,0,1,28:50,./completed_changuitos/montage_yucep_320.45_365.95.jpg,right,0,0,0,0,,,,,0,5,5,5,,,,,,,,,0,0,0,0,,,,,,,,,,,,,,,,,,,,,,,,,,,,,428.74668167199707,None,right,1,1.6335957380069885,428.74668167199707,None,428.74668167199707,None,,,,,,,,,,,,,,,,,,,,,,,,,,,,,,,,,,,,,,,,,,,,,,,,,,,tomasNotenson,001,d,2019_Oct_10_1423,Experimento,3.2.3,60.3027618386884,
8,14,14,999,0.5,0:10,3,,,0,0,1,28:50,,,0,0,0,0,,,,,0,5,5,5,,,,,,,,,,,,,,,,,,,,,,,,,,,,,,,,,,,,,,,,,,,,,,,,,,,,,,,,,,,,,,,,,,,,,,,,,,,,,,,,,,,,,,,,,,,,,,,,,,,,tomasNotenson,001,d,2019_Oct_10_1423,Experimento,3.2.3,60.3027618386884,
8,14,14,999,0.5,0:10,3,,,0,1,0,19:50,./completed_changuitos/montage_btgkz_341.35_293.19.jpg,left,0,0,0,0,,,,,0,6,6,6,,,,,0,0,0,0,,,,,,,,,,,,,,,,,,,,,,,,,,,,,,,,,,,,,,,,,,430.5200120609952,431.413238232999,431.413238232999,439.42689819399675,439.42689819399675,453.4389464449923,left,1,1.2334707579866517,453.4389464449923,None,453.4389464449923,None,453.4389464449923,None,,,,,,,,,,,,,,,,,,,,,,,,,,,,,,,,,,,,tomasNotenson,001,d,2019_Oct_10_1423,Experimento,3.2.3,60.3027618386884,
8,14,14,999,0.5,0:10,3,,,0,1,0,19:50,,,0,0,0,0,,,,,0,6,6,6,,,,,,,,,,,,,,,,,,,,,,,,,,,,,,,,,,,,,,,,,,,,,,,,,,,,,,,,,,,,,,,,,,,,,,,,,,,,,,,,,,,,,,,,,,,,,,,,,,,,tomasNotenson,001,d,2019_Oct_10_1423,Experimento,3.2.3,60.3027618386884,
8,14,14,999,0.5,0:10,3,,,0,1,0,19:50,./completed_changuitos/montage_vclhe_133.2_155.15.jpg,right,0,0,0,0,,,,,0,7,7,7,,,,,0,0,0,0,,,,,,,,,,,,,,,,,,,,,,,,,,,,,,,,,,,,,,,,,,454.8246305359935,456.0047327380016,456.0047327380016,464.0183162570029,464.0183162570029,478.03057740899385,left,0,1.166848637003568,478.03057740899385,None,478.03057740899385,None,478.03057740899385,None,,,,,,,,,,,,,,,,,,,,,,,,,,,,,,,,,,,,tomasNotenson,001,d,2019_Oct_10_1423,Experimento,3.2.3,60.3027618386884,
8,14,14,999,0.5,0:10,3,,,0,1,0,19:50,,,0,0,0,0,,,,,0,7,7,7,,,,,,,,,,,,,,,,,,,,,,,,,,,,,,,,,,,,,,,,,,,,,,,,,,,,,,,,,,,,,,,,,,,,,,,,,,,,,,,,,,,,,,,,,,,,,,,,,,,,tomasNotenson,001,d,2019_Oct_10_1423,Experimento,3.2.3,60.3027618386884,
8,14,14,999,0.5,0:10,3,Yellow,None,0,0,1,15:50,./completed_changuitos/montage_msbiz_110.75_128.29.jpg,right,0,0,0,0,,,,,0,8,8,8,,,,,,,,,0,0,0,0,0,0,0,0,,,,,,,,,,,,,,479.3312917479925,480.6629833249899,480.6629833249899,None,488.6928506980039,489.1934110009897,None,1,488.6928506980039,None,,,,,,,,,,,,,,,,,,,,,,,,,,,,,,,,,,,,,,,,,,,,,,,,,,,,,,,,,,,,,tomasNotenson,001,d,2019_Oct_10_1423,Experimento,3.2.3,60.3027618386884,
8,14,14,999,0.5,0:10,3,White,['space'],0,0,1,15:50,./completed_changuitos/montage_msbiz_110.75_128.29.jpg,right,0,0,0,0,,,,,0,8,8,8,,,,,,,,,0,0,0,0,0,1,1,1,,,,,,,,,,,,,,,,,,490.6927421970031,491.1926774629974,None,0,490.6927421970031,490.6927421970031,,,,,,,,,,,,,,,,,,,,,,,,,,,,,,,,,,,,,,,,,,,,,,,,,,,,,,,,,,,,,tomasNotenson,001,d,2019_Oct_10_1423,Experimento,3.2.3,60.3027618386884,
8,14,14,999,0.5,0:10,3,Magenta,None,0,0,1,15:50,./completed_changuitos/montage_msbiz_110.75_128.29.jpg,right,0,0,0,0,,,,,0,8,8,8,,,,,,,,,0,0,0,0,0,2,2,2,,,,,,,,,,,,,,,,,,492.69220677799603,493.19203320599627,None,1,492.69220677799603,492.69220677799603,,,,,,,,,,,,,,,,,,,,,,,,,,,,,,,,,,,,,,,,,,,,,,,,,,,,,,,,,,,,,tomasNotenson,001,d,2019_Oct_10_1423,Experimento,3.2.3,60.3027618386884,
8,14,14,999,0.5,0:10,3,Cyan,None,0,0,1,15:50,./completed_changuitos/montage_msbiz_110.75_128.29.jpg,right,0,0,0,0,,,,,0,8,8,8,,,,,,,,,0,0,0,0,0,3,3,3,,,,,,,,,,,,,,,,,,494.6915105779917,495.1913804659998,None,1,494.6915105779917,494.6915105779917,,,,,,,,,,,,,,,,,,,,,,,,,,,,,,,,,,,,,,,,,,,,,,,,,,,,,,,,,,,,,tomasNotenson,001,d,2019_Oct_10_1423,Experimento,3.2.3,60.3027618386884,
8,14,14,999,0.5,0:10,3,Blue,None,0,0,1,15:50,./completed_changuitos/montage_msbiz_110.75_128.29.jpg,right,0,0,0,0,,,,,0,8,8,8,,,,,,,,,0,0,0,0,0,4,4,4,,,,,,,,,,,,,,,,,,496.6908042229916,497.190668626994,None,1,496.6908042229916,496.6908042229916,,,,,,,,,,,,,,,,,,,,,,,,,,,,,,,,,,,,,,,,,,,,,,,,,,,,,,,,,,,,,tomasNotenson,001,d,2019_Oct_10_1423,Experimento,3.2.3,60.3027618386884,
8,14,14,999,0.5,0:10,3,Magenta,None,0,0,1,15:50,./completed_changuitos/montage_msbiz_110.75_128.29.jpg,right,0,0,0,0,,,,,0,8,8,8,,,,,,,,,0,0,0,0,0,5,5,5,,,,,,,,,,,,,,,,,,498.69006213199464,499.18998963299964,None,1,498.69006213199464,498.69006213199464,,,,,,,,,,,,,,,,,,,,,,,,,,,,,,,,,,,,,,,,,,,,,,,,,,,,,,,,,,,,,tomasNotenson,001,d,2019_Oct_10_1423,Experimento,3.2.3,60.3027618386884,
8,14,14,999,0.5,0:10,3,Blue,['space'],0,0,1,15:50,./completed_changuitos/montage_msbiz_110.75_128.29.jpg,right,0,0,0,0,,,,,0,8,8,8,,,,,,,,,0,0,0,0,0,6,6,6,,,,,,,,,,,,,,,,,,500.68941004599037,501.1893170599942,['return'],0,500.68941004599037,500.68941004599037,[0.35021221500937827],,,,,,,,,,,,,,,,,,,,,,,,,,,,,,,,,,,,,,,,,,,,,,,,,,,,,,,,,,,,tomasNotenson,001,d,2019_Oct_10_1423,Experimento,3.2.3,60.3027618386884,
8,14,14,999,0.5,0:10,3,Cyan,None,0,0,1,15:50,./completed_changuitos/montage_msbiz_110.75_128.29.jpg,right,0,0,0,0,,,,,0,8,8,8,,,,,,,,,0,0,0,0,0,7,7,7,,,,,,,,,,,,,,,,,,502.6884323918988,None,None,1,502.6884323918988,None,,,,,,,,,,,,,,,,,,,,,,,,,,,,,,,,,,,,,,,,,,,,,,,,,,,,,,,,,,,,,tomasNotenson,001,d,2019_Oct_10_1423,Experimento,3.2.3,60.3027618386884,
8,14,14,999,0.5,0:10,3,Yellow,None,0,0,1,15:50,./completed_changuitos/montage_msbiz_110.75_128.29.jpg,right,0,0,0,0,,,,,0,8,8,8,,,,,,,,,0,0,0,0,0,8,8,8,,,,,,,,,,,,,,,,,,502.6884323918988,None,None,1,502.6884323918988,None,,,,,,,,,,,,,,,,,,,,,,,,,,,,,,,,,,,,,,,,,,,,,,,,,,,,,,,,,,,,,tomasNotenson,001,d,2019_Oct_10_1423,Experimento,3.2.3,60.3027618386884,
8,14,14,999,0.5,0:10,3,Cyan,None,0,0,1,15:50,./completed_changuitos/montage_msbiz_110.75_128.29.jpg,right,0,0,0,0,,,,,0,8,8,8,,,,,,,,,0,0,0,0,0,9,9,9,,,,,,,,,,,,,,,,,,502.6884323918988,None,None,1,502.6884323918988,None,,,,,,,,,,,,,,,,,,,,,,,,,,,,,,,,,,,,,,,,,,,,,,,,,,,,,,,,,,,,,tomasNotenson,001,d,2019_Oct_10_1423,Experimento,3.2.3,60.3027618386884,
8,14,14,999,0.5,0:10,3,Blue,None,0,0,1,15:50,./completed_changuitos/montage_msbiz_110.75_128.29.jpg,right,0,0,0,0,,,,,0,8,8,8,,,,,,,,,0,0,0,0,0,10,10,10,,,,,,,,,,,,,,,,,,502.6884323918988,None,None,1,502.6884323918988,None,,,,,,,,,,,,,,,,,,,,,,,,,,,,,,,,,,,,,,,,,,,,,,,,,,,,,,,,,,,,,tomasNotenson,001,d,2019_Oct_10_1423,Experimento,3.2.3,60.3027618386884,
8,14,14,999,0.5,0:10,3,Cyan,['space'],0,0,1,15:50,./completed_changuitos/montage_msbiz_110.75_128.29.jpg,right,0,0,0,0,,,,,0,8,8,8,,,,,,,,,0,0,0,0,0,11,11,11,,,,,,,,,,,,,,,,,,502.6884323918988,None,None,0,502.6884323918988,None,,,,,,,,,,,,,,,,,,,,,,,,,,,,,,,,,,,,,,,,,,,,,,,,,,,,,,,,,,,,,tomasNotenson,001,d,2019_Oct_10_1423,Experimento,3.2.3,60.3027618386884,
8,14,14,999,0.5,0:10,3,Magenta,None,0,0,1,15:50,./completed_changuitos/montage_msbiz_110.75_128.29.jpg,right,0,0,0,0,,,,,0,8,8,8,,,,,,,,,0,0,0,0,0,12,12,12,,,,,,,,,,,,,,,,,,502.6884323918988,None,None,1,502.6884323918988,None,,,,,,,,,,,,,,,,,,,,,,,,,,,,,,,,,,,,,,,,,,,,,,,,,,,,,,,,,,,,,tomasNotenson,001,d,2019_Oct_10_1423,Experimento,3.2.3,60.3027618386884,
8,14,14,999,0.5,0:10,3,Red,None,0,0,1,15:50,./completed_changuitos/montage_msbiz_110.75_128.29.jpg,right,0,0,0,0,,,,,0,8,8,8,,,,,,,,,0,0,0,0,0,13,13,13,,,,,,,,,,,,,,,,,,502.6884323918988,None,None,1,502.6884323918988,None,,,,,,,,,,,,,,,,,,,,,,,,,,,,,,,,,,,,,,,,,,,,,,,,,,,,,,,,,,,,,tomasNotenson,001,d,2019_Oct_10_1423,Experimento,3.2.3,60.3027618386884,
8,14,14,999,0.5,0:10,3,Magenta,['space'],0,0,1,15:50,./completed_changuitos/montage_msbiz_110.75_128.29.jpg,right,0,0,0,0,,,,,0,8,8,8,,,,,,,,,0,0,0,0,0,14,14,14,,,,,,,,,,,,,,,,,,502.6884323918988,None,None,0,502.6884323918988,None,,,,,,,,,,,,,,,,,,,,,,,,,,,,,,,,,,,,,,,,,,,,,,,,,,,,,,,,,,,,,tomasNotenson,001,d,2019_Oct_10_1423,Experimento,3.2.3,60.3027618386884,
8,14,14,999,0.5,0:10,3,Green,None,0,0,1,15:50,./completed_changuitos/montage_msbiz_110.75_128.29.jpg,right,0,0,0,0,,,,,0,8,8,8,,,,,,,,,0,0,0,0,0,15,15,15,,,,,,,,,,,,,,,,,,502.6884323918988,None,None,1,502.6884323918988,None,,,,,,,,,,,,,,,,,,,,,,,,,,,,,,,,,,,,,,,,,,,,,,,,,,,,,,,,,,,,,tomasNotenson,001,d,2019_Oct_10_1423,Experimento,3.2.3,60.3027618386884,
8,14,14,999,0.5,0:10,3,Yellow,['space'],0,0,1,15:50,./completed_changuitos/montage_msbiz_110.75_128.29.jpg,right,0,0,0,0,,,,,0,8,8,8,,,,,,,,,0,0,0,0,0,16,16,16,,,,,,,,,,,,,,,,,,502.6884323918988,None,None,0,502.6884323918988,None,,,,,,,,,,,,,,,,,,,,,,,,,,,,,,,,,,,,,,,,,,,,,,,,,,,,,,,,,,,,,tomasNotenson,001,d,2019_Oct_10_1423,Experimento,3.2.3,60.3027618386884,
8,14,14,999,0.5,0:10,3,Blue,None,0,0,1,15:50,./completed_changuitos/montage_msbiz_110.75_128.29.jpg,right,0,0,0,0,,,,,0,8,8,8,,,,,,,,,0,0,0,0,0,17,17,17,,,,,,,,,,,,,,,,,,502.6884323918988,None,None,1,502.6884323918988,None,,,,,,,,,,,,,,,,,,,,,,,,,,,,,,,,,,,,,,,,,,,,,,,,,,,,,,,,,,,,,tomasNotenson,001,d,2019_Oct_10_1423,Experimento,3.2.3,60.3027618386884,
8,14,14,999,0.5,0:10,3,Cyan,None,0,0,1,15:50,./completed_changuitos/montage_msbiz_110.75_128.29.jpg,right,0,0,0,0,,,,,0,8,8,8,,,,,,,,,0,0,0,0,0,18,18,18,,,,,,,,,,,,,,,,,,502.6884323918988,None,None,1,502.6884323918988,None,,,,,,,,,,,,,,,,,,,,,,,,,,,,,,,,,,,,,,,,,,,,,,,,,,,,,,,,,,,,,tomasNotenson,001,d,2019_Oct_10_1423,Experimento,3.2.3,60.3027618386884,
8,14,14,999,0.5,0:10,3,Blue,['space'],0,0,1,15:50,./completed_changuitos/montage_msbiz_110.75_128.29.jpg,right,0,0,0,0,,,,,0,8,8,8,,,,,,,,,0,0,0,0,0,19,19,19,,,,,,,,,,,,,,,,,,502.6884323918988,None,None,0,502.6884323918988,None,,,,,,,,,,,,,,,,,,,,,,,,,,,,,,,,,,,,,,,,,,,,,,,,,,,,,,,,,,,,,tomasNotenson,001,d,2019_Oct_10_1423,Experimento,3.2.3,60.3027618386884,
8,14,14,999,0.5,0:10,3,Yellow,None,0,0,1,15:50,./completed_changuitos/montage_msbiz_110.75_128.29.jpg,right,0,0,0,0,,,,,0,8,8,8,,,,,,,,,0,0,0,0,0,20,20,20,,,,,,,,,,,,,,,,,,502.6884323918988,None,None,1,502.6884323918988,None,,,,,,,,,,,,,,,,,,,,,,,,,,,,,,,,,,,,,,,,,,,,,,,,,,,,,,,,,,,,,tomasNotenson,001,d,2019_Oct_10_1423,Experimento,3.2.3,60.3027618386884,
8,14,14,999,0.5,0:10,3,Cyan,None,0,0,1,15:50,./completed_changuitos/montage_msbiz_110.75_128.29.jpg,right,0,0,0,0,,,,,0,8,8,8,,,,,,,,,0,0,0,0,0,21,21,21,,,,,,,,,,,,,,,,,,502.7050864247983,None,None,1,502.7050864247983,None,,,,,,,,,,,,,,,,,,,,,,,,,,,,,,,,,,,,,,,,,,,,,,,,,,,,,,,,,,,,,tomasNotenson,001,d,2019_Oct_10_1423,Experimento,3.2.3,60.3027618386884,
8,14,14,999,0.5,0:10,3,Yellow,['space'],0,0,1,15:50,./completed_changuitos/montage_msbiz_110.75_128.29.jpg,right,0,0,0,0,,,,,0,8,8,8,,,,,,,,,0,0,0,0,0,22,22,22,,,,,,,,,,,,,,,,,,502.7050864247983,None,None,0,502.7050864247983,None,,,,,,,,,,,,,,,,,,,,,,,,,,,,,,,,,,,,,,,,,,,,,,,,,,,,,,,,,,,,,tomasNotenson,001,d,2019_Oct_10_1423,Experimento,3.2.3,60.3027618386884,
8,14,14,999,0.5,0:10,3,Magenta,None,0,0,1,15:50,./completed_changuitos/montage_msbiz_110.75_128.29.jpg,right,0,0,0,0,,,,,0,8,8,8,,,,,,,,,0,0,0,0,0,23,23,23,,,,,,,,,,,,,,,,,,502.7050864247983,None,None,1,502.7050864247983,None,,,,,,,,,,,,,,,,,,,,,,,,,,,,,,,,,,,,,,,,,,,,,,,,,,,,,,,,,,,,,tomasNotenson,001,d,2019_Oct_10_1423,Experimento,3.2.3,60.3027618386884,
8,14,14,999,0.5,0:10,3,Red,None,0,0,1,15:50,./completed_changuitos/montage_msbiz_110.75_128.29.jpg,right,0,0,0,0,,,,,0,8,8,8,,,,,,,,,0,0,0,0,0,24,24,24,,,,,,,,,,,,,,,,,,502.7050864247983,None,None,1,502.7050864247983,None,,,,,,,,,,,,,,,,,,,,,,,,,,,,,,,,,,,,,,,,,,,,,,,,,,,,,,,,,,,,,tomasNotenson,001,d,2019_Oct_10_1423,Experimento,3.2.3,60.3027618386884,
8,14,14,999,0.5,0:10,3,Magenta,['space'],0,0,1,15:50,./completed_changuitos/montage_msbiz_110.75_128.29.jpg,right,0,0,0,0,,,,,0,8,8,8,,,,,,,,,0,0,0,0,0,25,25,25,,,,,,,,,,,,,,,,,,502.7050864247983,None,None,0,502.7050864247983,None,,,,,,,,,,,,,,,,,,,,,,,,,,,,,,,,,,,,,,,,,,,,,,,,,,,,,,,,,,,,,tomasNotenson,001,d,2019_Oct_10_1423,Experimento,3.2.3,60.3027618386884,
8,14,14,999,0.5,0:10,3,Red,['space'],0,0,1,15:50,./completed_changuitos/montage_msbiz_110.75_128.29.jpg,right,0,0,0,0,,,,,0,8,8,8,,,,,,,,,0,0,0,0,0,26,26,26,,,,,,,,,,,,,,,,,,502.7050864247983,None,None,0,502.7050864247983,None,,,,,,,,,,,,,,,,,,,,,,,,,,,,,,,,,,,,,,,,,,,,,,,,,,,,,,,,,,,,,tomasNotenson,001,d,2019_Oct_10_1423,Experimento,3.2.3,60.3027618386884,
8,14,14,999,0.5,0:10,3,Yellow,None,0,0,1,15:50,./completed_changuitos/montage_msbiz_110.75_128.29.jpg,right,0,0,0,0,,,,,0,8,8,8,,,,,,,,,0,0,0,0,0,27,27,27,,,,,,,,,,,,,,,,,,502.7050864247983,None,None,1,502.7050864247983,None,,,,,,,,,,,,,,,,,,,,,,,,,,,,,,,,,,,,,,,,,,,,,,,,,,,,,,,,,,,,,tomasNotenson,001,d,2019_Oct_10_1423,Experimento,3.2.3,60.3027618386884,
8,14,14,999,0.5,0:10,3,Cyan,None,0,0,1,15:50,./completed_changuitos/montage_msbiz_110.75_128.29.jpg,right,0,0,0,0,,,,,0,8,8,8,,,,,,,,,0,0,0,0,0,28,28,28,,,,,,,,,,,,,,,,,,502.7050864247983,None,None,1,502.7050864247983,None,,,,,,,,,,,,,,,,,,,,,,,,,,,,,,,,,,,,,,,,,,,,,,,,,,,,,,,,,,,,,tomasNotenson,001,d,2019_Oct_10_1423,Experimento,3.2.3,60.3027618386884,
8,14,14,999,0.5,0:10,3,Green,None,0,0,1,15:50,./completed_changuitos/montage_msbiz_110.75_128.29.jpg,right,0,0,0,0,,,,,0,8,8,8,,,,,,,,,0,0,0,0,0,29,29,29,,,,,,,,,,,,,,,,,,502.7050864247983,None,None,1,502.7050864247983,None,,,,,,,,,,,,,,,,,,,,,,,,,,,,,,,,,,,,,,,,,,,,,,,,,,,,,,,,,,,,,tomasNotenson,001,d,2019_Oct_10_1423,Experimento,3.2.3,60.3027618386884,
8,14,14,999,0.5,0:10,3,White,None,0,0,1,15:50,./completed_changuitos/montage_msbiz_110.75_128.29.jpg,right,0,0,0,0,,,,,0,8,8,8,,,,,,,,,0,0,0,0,0,30,30,30,,,,,,,,,,,,,,,,,,502.7050864247983,None,None,1,502.7050864247983,None,,,,,,,,,,,,,,,,,,,,,,,,,,,,,,,,,,,,,,,,,,,,,,,,,,,,,,,,,,,,,tomasNotenson,001,d,2019_Oct_10_1423,Experimento,3.2.3,60.3027618386884,
8,14,14,999,0.5,0:10,3,Green,['space'],0,0,1,15:50,./completed_changuitos/montage_msbiz_110.75_128.29.jpg,right,0,0,0,0,,,,,0,8,8,8,,,,,,,,,0,0,0,0,0,31,31,31,,,,,,,,,,,,,,,,,,502.7050864247983,None,None,0,502.7050864247983,None,,,,,,,,,,,,,,,,,,,,,,,,,,,,,,,,,,,,,,,,,,,,,,,,,,,,,,,,,,,,,tomasNotenson,001,d,2019_Oct_10_1423,Experimento,3.2.3,60.3027618386884,
8,14,14,999,0.5,0:10,3,Red,None,0,0,1,15:50,./completed_changuitos/montage_msbiz_110.75_128.29.jpg,right,0,0,0,0,,,,,0,8,8,8,,,,,,,,,0,0,0,0,0,32,32,32,,,,,,,,,,,,,,,,,,502.7050864247983,None,None,1,502.7050864247983,None,,,,,,,,,,,,,,,,,,,,,,,,,,,,,,,,,,,,,,,,,,,,,,,,,,,,,,,,,,,,,tomasNotenson,001,d,2019_Oct_10_1423,Experimento,3.2.3,60.3027618386884,
8,14,14,999,0.5,0:10,3,Blue,None,0,0,1,15:50,./completed_changuitos/montage_msbiz_110.75_128.29.jpg,right,0,0,0,0,,,,,0,8,8,8,,,,,,,,,0,0,0,0,0,33,33,33,,,,,,,,,,,,,,,,,,502.7050864247983,None,None,1,502.7050864247983,None,,,,,,,,,,,,,,,,,,,,,,,,,,,,,,,,,,,,,,,,,,,,,,,,,,,,,,,,,,,,,tomasNotenson,001,d,2019_Oct_10_1423,Experimento,3.2.3,60.3027618386884,
8,14,14,999,0.5,0:10,3,Green,None,0,0,1,15:50,./completed_changuitos/montage_msbiz_110.75_128.29.jpg,right,0,0,0,0,,,,,0,8,8,8,,,,,,,,,0,0,0,0,0,34,34,34,,,,,,,,,,,,,,,,,,502.7050864247983,None,None,1,502.7050864247983,None,,,,,,,,,,,,,,,,,,,,,,,,,,,,,,,,,,,,,,,,,,,,,,,,,,,,,,,,,,,,,tomasNotenson,001,d,2019_Oct_10_1423,Experimento,3.2.3,60.3027618386884,
8,14,14,999,0.5,0:10,3,,,0,0,1,15:50,./completed_changuitos/montage_msbiz_110.75_128.29.jpg,right,0,0,0,0,,,,,0,8,8,8,,,,,,,,,0,0,0,0,,,,,,,,,,,,,,,,,,,,,,,,,,,,,502.7499234559946,None,left,0,1.8042939959996147,502.7499234559946,None,502.7499234559946,None,,,,,,,,,,,,,,,,,,,,,,,,,,,,,,,,,,,,,,,,,,,,,,,,,,,tomasNotenson,001,d,2019_Oct_10_1423,Experimento,3.2.3,60.3027618386884,
8,14,14,999,0.5,0:10,3,,,0,0,1,15:50,,,0,0,0,0,,,,,0,8,8,8,,,,,,,,,,,,,,,,,,,,,,,,,,,,,,,,,,,,,,,,,,,,,,,,,,,,,,,,,,,,,,,,,,,,,,,,,,,,,,,,,,,,,,,,,,,,,,,,,,,,tomasNotenson,001,d,2019_Oct_10_1423,Experimento,3.2.3,60.3027618386884,
8,14,14,999,0.5,0:10,3,,,0,1,0,25:50,./completed_changuitos/montage_pgqmy_364.89_316.75.jpg,left,0,0,0,0,,,,,0,9,9,9,,,,,0,0,0,0,,,,,,,,,,,,,,,,,,,,,,,,,,,,,,,,,,,,,,,,,,504.70573281799443,505.6711524860002,505.6711524860002,513.6850220380002,513.6850220380002,527.6969145600015,right,0,0.9844622300006449,527.6969145600015,None,527.6969145600015,None,527.6969145600015,None,,,,,,,,,,,,,,,,,,,,,,,,,,,,,,,,,,,,tomasNotenson,001,d,2019_Oct_10_1423,Experimento,3.2.3,60.3027618386884,
8,14,14,999,0.5,0:10,3,,,0,1,0,25:50,,,0,0,0,0,,,,,0,9,9,9,,,,,,,,,,,,,,,,,,,,,,,,,,,,,,,,,,,,,,,,,,,,,,,,,,,,,,,,,,,,,,,,,,,,,,,,,,,,,,,,,,,,,,,,,,,,,,,,,,,,tomasNotenson,001,d,2019_Oct_10_1423,Experimento,3.2.3,60.3027618386884,
8,14,14,999,0.5,0:10,3,Magenta,None,0,0,1,20:50,./completed_changuitos/montage_mqndf_35.0_40.15.jpg,right,0,0,0,0,,,,,0,10,10,10,,,,,,,,,0,0,0,0,0,0,0,0,,,,,,,,,,,,,,528.8180785369914,529.8624701299996,529.8624701299996,None,537.8832893229992,538.3932574619976,None,1,537.8832893229992,None,,,,,,,,,,,,,,,,,,,,,,,,,,,,,,,,,,,,,,,,,,,,,,,,,,,,,,,,,,,,,tomasNotenson,001,d,2019_Oct_10_1423,Experimento,3.2.3,60.3027618386884,
8,14,14,999,0.5,0:10,3,Blue,['space'],0,0,1,20:50,./completed_changuitos/montage_mqndf_35.0_40.15.jpg,right,0,0,0,0,,,,,0,10,10,10,,,,,,,,,0,0,0,0,0,1,1,1,,,,,,,,,,,,,,,,,,539.8925729019975,540.3925698969979,None,0,539.8925729019975,539.8925729019975,,,,,,,,,,,,,,,,,,,,,,,,,,,,,,,,,,,,,,,,,,,,,,,,,,,,,,,,,,,,,tomasNotenson,001,d,2019_Oct_10_1423,Experimento,3.2.3,60.3027618386884,
8,14,14,999,0.5,0:10,3,Cyan,None,0,0,1,20:50,./completed_changuitos/montage_mqndf_35.0_40.15.jpg,right,0,0,0,0,,,,,0,10,10,10,,,,,,,,,0,0,0,0,0,2,2,2,,,,,,,,,,,,,,,,,,541.8920004609972,542.39187635899,None,1,541.8920004609972,541.8920004609972,,,,,,,,,,,,,,,,,,,,,,,,,,,,,,,,,,,,,,,,,,,,,,,,,,,,,,,,,,,,,tomasNotenson,001,d,2019_Oct_10_1423,Experimento,3.2.3,60.3027618386884,
8,14,14,999,0.5,0:10,3,Yellow,None,0,0,1,20:50,./completed_changuitos/montage_mqndf_35.0_40.15.jpg,right,0,0,0,0,,,,,0,10,10,10,,,,,,,,,0,0,0,0,0,3,3,3,,,,,,,,,,,,,,,,,,543.8913803469914,544.3911987809988,None,1,543.8913803469914,543.8913803469914,,,,,,,,,,,,,,,,,,,,,,,,,,,,,,,,,,,,,,,,,,,,,,,,,,,,,,,,,,,,,tomasNotenson,001,d,2019_Oct_10_1423,Experimento,3.2.3,60.3027618386884,
8,14,14,999,0.5,0:10,3,Cyan,None,0,0,1,20:50,./completed_changuitos/montage_mqndf_35.0_40.15.jpg,right,0,0,0,0,,,,,0,10,10,10,,,,,,,,,0,0,0,0,0,4,4,4,,,,,,,,,,,,,,,,,,545.8906100960012,546.3905093659996,['return'],0,545.8906100960012,545.8906100960012,[0.9170253589982167],,,,,,,,,,,,,,,,,,,,,,,,,,,,,,,,,,,,,,,,,,,,,,,,,,,,,,,,,,,,tomasNotenson,001,d,2019_Oct_10_1423,Experimento,3.2.3,60.3027618386884,
8,14,14,999,0.5,0:10,3,Blue,None,0,0,1,20:50,./completed_changuitos/montage_mqndf_35.0_40.15.jpg,right,0,0,0,0,,,,,0,10,10,10,,,,,,,,,0,0,0,0,0,5,5,5,,,,,,,,,,,,,,,,,,547.8898760019947,548.3898266169999,None,1,547.8898760019947,547.8898760019947,,,,,,,,,,,,,,,,,,,,,,,,,,,,,,,,,,,,,,,,,,,,,,,,,,,,,,,,,,,,,tomasNotenson,001,d,2019_Oct_10_1423,Experimento,3.2.3,60.3027618386884,
8,14,14,999,0.5,0:10,3,Cyan,['space'],0,0,1,20:50,./completed_changuitos/montage_mqndf_35.0_40.15.jpg,right,0,0,0,0,,,,,0,10,10,10,,,,,,,,,0,0,0,0,0,6,6,6,,,,,,,,,,,,,,,,,,549.8892417289899,550.3891512639966,['return'],0,549.8892417289899,549.8892417289899,[0.6005545289954171],,,,,,,,,,,,,,,,,,,,,,,,,,,,,,,,,,,,,,,,,,,,,,,,,,,,,,,,,,,,tomasNotenson,001,d,2019_Oct_10_1423,Experimento,3.2.3,60.3027618386884,
8,14,14,999,0.5,0:10,3,Magenta,None,0,0,1,20:50,./completed_changuitos/montage_mqndf_35.0_40.15.jpg,right,0,0,0,0,,,,,0,10,10,10,,,,,,,,,0,0,0,0,0,7,7,7,,,,,,,,,,,,,,,,,,551.8886169488891,None,None,1,551.8886169488891,None,,,,,,,,,,,,,,,,,,,,,,,,,,,,,,,,,,,,,,,,,,,,,,,,,,,,,,,,,,,,,tomasNotenson,001,d,2019_Oct_10_1423,Experimento,3.2.3,60.3027618386884,
8,14,14,999,0.5,0:10,3,Red,None,0,0,1,20:50,./completed_changuitos/montage_mqndf_35.0_40.15.jpg,right,0,0,0,0,,,,,0,10,10,10,,,,,,,,,0,0,0,0,0,8,8,8,,,,,,,,,,,,,,,,,,551.8886169488891,None,None,1,551.8886169488891,None,,,,,,,,,,,,,,,,,,,,,,,,,,,,,,,,,,,,,,,,,,,,,,,,,,,,,,,,,,,,,tomasNotenson,001,d,2019_Oct_10_1423,Experimento,3.2.3,60.3027618386884,
8,14,14,999,0.5,0:10,3,Magenta,['space'],0,0,1,20:50,./completed_changuitos/montage_mqndf_35.0_40.15.jpg,right,0,0,0,0,,,,,0,10,10,10,,,,,,,,,0,0,0,0,0,9,9,9,,,,,,,,,,,,,,,,,,551.8886169488891,None,None,0,551.8886169488891,None,,,,,,,,,,,,,,,,,,,,,,,,,,,,,,,,,,,,,,,,,,,,,,,,,,,,,,,,,,,,,tomasNotenson,001,d,2019_Oct_10_1423,Experimento,3.2.3,60.3027618386884,
8,14,14,999,0.5,0:10,3,Green,None,0,0,1,20:50,./completed_changuitos/montage_mqndf_35.0_40.15.jpg,right,0,0,0,0,,,,,0,10,10,10,,,,,,,,,0,0,0,0,0,10,10,10,,,,,,,,,,,,,,,,,,551.8886169488891,None,None,1,551.8886169488891,None,,,,,,,,,,,,,,,,,,,,,,,,,,,,,,,,,,,,,,,,,,,,,,,,,,,,,,,,,,,,,tomasNotenson,001,d,2019_Oct_10_1423,Experimento,3.2.3,60.3027618386884,
8,14,14,999,0.5,0:10,3,Yellow,['space'],0,0,1,20:50,./completed_changuitos/montage_mqndf_35.0_40.15.jpg,right,0,0,0,0,,,,,0,10,10,10,,,,,,,,,0,0,0,0,0,11,11,11,,,,,,,,,,,,,,,,,,551.9052709817886,None,None,0,551.9052709817886,None,,,,,,,,,,,,,,,,,,,,,,,,,,,,,,,,,,,,,,,,,,,,,,,,,,,,,,,,,,,,,tomasNotenson,001,d,2019_Oct_10_1423,Experimento,3.2.3,60.3027618386884,
8,14,14,999,0.5,0:10,3,Blue,None,0,0,1,20:50,./completed_changuitos/montage_mqndf_35.0_40.15.jpg,right,0,0,0,0,,,,,0,10,10,10,,,,,,,,,0,0,0,0,0,12,12,12,,,,,,,,,,,,,,,,,,551.9052709817886,None,None,1,551.9052709817886,None,,,,,,,,,,,,,,,,,,,,,,,,,,,,,,,,,,,,,,,,,,,,,,,,,,,,,,,,,,,,,tomasNotenson,001,d,2019_Oct_10_1423,Experimento,3.2.3,60.3027618386884,
8,14,14,999,0.5,0:10,3,Cyan,None,0,0,1,20:50,./completed_changuitos/montage_mqndf_35.0_40.15.jpg,right,0,0,0,0,,,,,0,10,10,10,,,,,,,,,0,0,0,0,0,13,13,13,,,,,,,,,,,,,,,,,,551.9052709817886,None,None,1,551.9052709817886,None,,,,,,,,,,,,,,,,,,,,,,,,,,,,,,,,,,,,,,,,,,,,,,,,,,,,,,,,,,,,,tomasNotenson,001,d,2019_Oct_10_1423,Experimento,3.2.3,60.3027618386884,
8,14,14,999,0.5,0:10,3,Blue,['space'],0,0,1,20:50,./completed_changuitos/montage_mqndf_35.0_40.15.jpg,right,0,0,0,0,,,,,0,10,10,10,,,,,,,,,0,0,0,0,0,14,14,14,,,,,,,,,,,,,,,,,,551.9052709817886,None,None,0,551.9052709817886,None,,,,,,,,,,,,,,,,,,,,,,,,,,,,,,,,,,,,,,,,,,,,,,,,,,,,,,,,,,,,,tomasNotenson,001,d,2019_Oct_10_1423,Experimento,3.2.3,60.3027618386884,
8,14,14,999,0.5,0:10,3,Yellow,None,0,0,1,20:50,./completed_changuitos/montage_mqndf_35.0_40.15.jpg,right,0,0,0,0,,,,,0,10,10,10,,,,,,,,,0,0,0,0,0,15,15,15,,,,,,,,,,,,,,,,,,551.9052709817886,None,None,1,551.9052709817886,None,,,,,,,,,,,,,,,,,,,,,,,,,,,,,,,,,,,,,,,,,,,,,,,,,,,,,,,,,,,,,tomasNotenson,001,d,2019_Oct_10_1423,Experimento,3.2.3,60.3027618386884,
8,14,14,999,0.5,0:10,3,Cyan,None,0,0,1,20:50,./completed_changuitos/montage_mqndf_35.0_40.15.jpg,right,0,0,0,0,,,,,0,10,10,10,,,,,,,,,0,0,0,0,0,16,16,16,,,,,,,,,,,,,,,,,,551.9052709817886,None,None,1,551.9052709817886,None,,,,,,,,,,,,,,,,,,,,,,,,,,,,,,,,,,,,,,,,,,,,,,,,,,,,,,,,,,,,,tomasNotenson,001,d,2019_Oct_10_1423,Experimento,3.2.3,60.3027618386884,
8,14,14,999,0.5,0:10,3,Yellow,['space'],0,0,1,20:50,./completed_changuitos/montage_mqndf_35.0_40.15.jpg,right,0,0,0,0,,,,,0,10,10,10,,,,,,,,,0,0,0,0,0,17,17,17,,,,,,,,,,,,,,,,,,551.9219250146881,None,None,0,551.9219250146881,None,,,,,,,,,,,,,,,,,,,,,,,,,,,,,,,,,,,,,,,,,,,,,,,,,,,,,,,,,,,,,tomasNotenson,001,d,2019_Oct_10_1423,Experimento,3.2.3,60.3027618386884,
8,14,14,999,0.5,0:10,3,Magenta,None,0,0,1,20:50,./completed_changuitos/montage_mqndf_35.0_40.15.jpg,right,0,0,0,0,,,,,0,10,10,10,,,,,,,,,0,0,0,0,0,18,18,18,,,,,,,,,,,,,,,,,,551.9219250146881,None,None,1,551.9219250146881,None,,,,,,,,,,,,,,,,,,,,,,,,,,,,,,,,,,,,,,,,,,,,,,,,,,,,,,,,,,,,,tomasNotenson,001,d,2019_Oct_10_1423,Experimento,3.2.3,60.3027618386884,
8,14,14,999,0.5,0:10,3,Red,None,0,0,1,20:50,./completed_changuitos/montage_mqndf_35.0_40.15.jpg,right,0,0,0,0,,,,,0,10,10,10,,,,,,,,,0,0,0,0,0,19,19,19,,,,,,,,,,,,,,,,,,551.9219250146881,None,None,1,551.9219250146881,None,,,,,,,,,,,,,,,,,,,,,,,,,,,,,,,,,,,,,,,,,,,,,,,,,,,,,,,,,,,,,tomasNotenson,001,d,2019_Oct_10_1423,Experimento,3.2.3,60.3027618386884,
8,14,14,999,0.5,0:10,3,Magenta,['space'],0,0,1,20:50,./completed_changuitos/montage_mqndf_35.0_40.15.jpg,right,0,0,0,0,,,,,0,10,10,10,,,,,,,,,0,0,0,0,0,20,20,20,,,,,,,,,,,,,,,,,,551.9219250146881,None,None,0,551.9219250146881,None,,,,,,,,,,,,,,,,,,,,,,,,,,,,,,,,,,,,,,,,,,,,,,,,,,,,,,,,,,,,,tomasNotenson,001,d,2019_Oct_10_1423,Experimento,3.2.3,60.3027618386884,
8,14,14,999,0.5,0:10,3,Red,['space'],0,0,1,20:50,./completed_changuitos/montage_mqndf_35.0_40.15.jpg,right,0,0,0,0,,,,,0,10,10,10,,,,,,,,,0,0,0,0,0,21,21,21,,,,,,,,,,,,,,,,,,551.9219250146881,None,None,0,551.9219250146881,None,,,,,,,,,,,,,,,,,,,,,,,,,,,,,,,,,,,,,,,,,,,,,,,,,,,,,,,,,,,,,tomasNotenson,001,d,2019_Oct_10_1423,Experimento,3.2.3,60.3027618386884,
8,14,14,999,0.5,0:10,3,Yellow,None,0,0,1,20:50,./completed_changuitos/montage_mqndf_35.0_40.15.jpg,right,0,0,0,0,,,,,0,10,10,10,,,,,,,,,0,0,0,0,0,22,22,22,,,,,,,,,,,,,,,,,,551.9219250146881,None,None,1,551.9219250146881,None,,,,,,,,,,,,,,,,,,,,,,,,,,,,,,,,,,,,,,,,,,,,,,,,,,,,,,,,,,,,,tomasNotenson,001,d,2019_Oct_10_1423,Experimento,3.2.3,60.3027618386884,
8,14,14,999,0.5,0:10,3,Cyan,None,0,0,1,20:50,./completed_changuitos/montage_mqndf_35.0_40.15.jpg,right,0,0,0,0,,,,,0,10,10,10,,,,,,,,,0,0,0,0,0,23,23,23,,,,,,,,,,,,,,,,,,551.9219250146881,None,None,1,551.9219250146881,None,,,,,,,,,,,,,,,,,,,,,,,,,,,,,,,,,,,,,,,,,,,,,,,,,,,,,,,,,,,,,tomasNotenson,001,d,2019_Oct_10_1423,Experimento,3.2.3,60.3027618386884,
8,14,14,999,0.5,0:10,3,Green,None,0,0,1,20:50,./completed_changuitos/montage_mqndf_35.0_40.15.jpg,right,0,0,0,0,,,,,0,10,10,10,,,,,,,,,0,0,0,0,0,24,24,24,,,,,,,,,,,,,,,,,,551.9219250146881,None,None,1,551.9219250146881,None,,,,,,,,,,,,,,,,,,,,,,,,,,,,,,,,,,,,,,,,,,,,,,,,,,,,,,,,,,,,,tomasNotenson,001,d,2019_Oct_10_1423,Experimento,3.2.3,60.3027618386884,
8,14,14,999,0.5,0:10,3,White,None,0,0,1,20:50,./completed_changuitos/montage_mqndf_35.0_40.15.jpg,right,0,0,0,0,,,,,0,10,10,10,,,,,,,,,0,0,0,0,0,25,25,25,,,,,,,,,,,,,,,,,,551.9219250146881,None,None,1,551.9219250146881,None,,,,,,,,,,,,,,,,,,,,,,,,,,,,,,,,,,,,,,,,,,,,,,,,,,,,,,,,,,,,,tomasNotenson,001,d,2019_Oct_10_1423,Experimento,3.2.3,60.3027618386884,
8,14,14,999,0.5,0:10,3,Green,['space'],0,0,1,20:50,./completed_changuitos/montage_mqndf_35.0_40.15.jpg,right,0,0,0,0,,,,,0,10,10,10,,,,,,,,,0,0,0,0,0,26,26,26,,,,,,,,,,,,,,,,,,551.9219250146881,None,None,0,551.9219250146881,None,,,,,,,,,,,,,,,,,,,,,,,,,,,,,,,,,,,,,,,,,,,,,,,,,,,,,,,,,,,,,tomasNotenson,001,d,2019_Oct_10_1423,Experimento,3.2.3,60.3027618386884,
8,14,14,999,0.5,0:10,3,Red,None,0,0,1,20:50,./completed_changuitos/montage_mqndf_35.0_40.15.jpg,right,0,0,0,0,,,,,0,10,10,10,,,,,,,,,0,0,0,0,0,27,27,27,,,,,,,,,,,,,,,,,,551.9219250146881,None,None,1,551.9219250146881,None,,,,,,,,,,,,,,,,,,,,,,,,,,,,,,,,,,,,,,,,,,,,,,,,,,,,,,,,,,,,,tomasNotenson,001,d,2019_Oct_10_1423,Experimento,3.2.3,60.3027618386884,
8,14,14,999,0.5,0:10,3,Blue,None,0,0,1,20:50,./completed_changuitos/montage_mqndf_35.0_40.15.jpg,right,0,0,0,0,,,,,0,10,10,10,,,,,,,,,0,0,0,0,0,28,28,28,,,,,,,,,,,,,,,,,,551.9219250146881,None,None,1,551.9219250146881,None,,,,,,,,,,,,,,,,,,,,,,,,,,,,,,,,,,,,,,,,,,,,,,,,,,,,,,,,,,,,,tomasNotenson,001,d,2019_Oct_10_1423,Experimento,3.2.3,60.3027618386884,
8,14,14,999,0.5,0:10,3,Green,None,0,0,1,20:50,./completed_changuitos/montage_mqndf_35.0_40.15.jpg,right,0,0,0,0,,,,,0,10,10,10,,,,,,,,,0,0,0,0,0,29,29,29,,,,,,,,,,,,,,,,,,551.9385790475877,None,None,1,551.9385790475877,None,,,,,,,,,,,,,,,,,,,,,,,,,,,,,,,,,,,,,,,,,,,,,,,,,,,,,,,,,,,,,tomasNotenson,001,d,2019_Oct_10_1423,Experimento,3.2.3,60.3027618386884,
8,14,14,999,0.5,0:10,3,,,0,0,1,20:50,./completed_changuitos/montage_mqndf_35.0_40.15.jpg,right,0,0,0,0,,,,,0,10,10,10,,,,,,,,,0,0,0,0,,,,,,,,,,,,,,,,,,,,,,,,,,,,,551.9636545599933,None,left,0,1.2072691999928793,551.9636545599933,None,551.9636545599933,None,,,,,,,,,,,,,,,,,,,,,,,,,,,,,,,,,,,,,,,,,,,,,,,,,,,tomasNotenson,001,d,2019_Oct_10_1423,Experimento,3.2.3,60.3027618386884,
8,14,14,999,0.5,0:10,3,,,0,0,1,20:50,,,0,0,0,0,,,,,0,10,10,10,,,,,,,,,,,,,,,,,,,,,,,,,,,,,,,,,,,,,,,,,,,,,,,,,,,,,,,,,,,,,,,,,,,,,,,,,,,,,,,,,,,,,,,,,,,,,,,,,,,,tomasNotenson,001,d,2019_Oct_10_1423,Experimento,3.2.3,60.3027618386884,
8,14,14,999,0.5,0:10,3,Red,None,0,0,1,28:50,./completed_changuitos/montage_alhrk_63.05_71.19.jpg,right,0,0,0,0,,,,,0,11,11,11,,,,,,,,,0,0,0,0,0,0,0,0,,,,,,,,,,,,,,553.2891818189964,554.0545722239913,554.0545722239913,None,562.0962258329964,562.601674821999,None,1,562.0962258329964,None,,,,,,,,,,,,,,,,,,,,,,,,,,,,,,,,,,,,,,,,,,,,,,,,,,,,,,,,,,,,,tomasNotenson,001,d,2019_Oct_10_1423,Experimento,3.2.3,60.3027618386884,
8,14,14,999,0.5,0:10,3,Magenta,['space'],0,0,1,28:50,./completed_changuitos/montage_alhrk_63.05_71.19.jpg,right,0,0,0,0,,,,,0,11,11,11,,,,,,,,,0,0,0,0,0,1,1,1,,,,,,,,,,,,,,,,,,564.1009741409944,564.6009515460028,None,0,564.1009741409944,564.1009741409944,,,,,,,,,,,,,,,,,,,,,,,,,,,,,,,,,,,,,,,,,,,,,,,,,,,,,,,,,,,,,tomasNotenson,001,d,2019_Oct_10_1423,Experimento,3.2.3,60.3027618386884,
8,14,14,999,0.5,0:10,3,Green,None,0,0,1,28:50,./completed_changuitos/montage_alhrk_63.05_71.19.jpg,right,0,0,0,0,,,,,0,11,11,11,,,,,,,,,0,0,0,0,0,2,2,2,,,,,,,,,,,,,,,,,,566.100386252001,566.6002833069942,None,1,566.100386252001,566.100386252001,,,,,,,,,,,,,,,,,,,,,,,,,,,,,,,,,,,,,,,,,,,,,,,,,,,,,,,,,,,,,tomasNotenson,001,d,2019_Oct_10_1423,Experimento,3.2.3,60.3027618386884,
8,14,14,999,0.5,0:10,3,Yellow,['space'],0,0,1,28:50,./completed_changuitos/montage_alhrk_63.05_71.19.jpg,right,0,0,0,0,,,,,0,11,11,11,,,,,,,,,0,0,0,0,0,3,3,3,,,,,,,,,,,,,,,,,,568.0993700410036,568.6001731580036,None,0,568.0993700410036,568.0993700410036,,,,,,,,,,,,,,,,,,,,,,,,,,,,,,,,,,,,,,,,,,,,,,,,,,,,,,,,,,,,,tomasNotenson,001,d,2019_Oct_10_1423,Experimento,3.2.3,60.3027618386884,
8,14,14,999,0.5,0:10,3,Blue,None,0,0,1,28:50,./completed_changuitos/montage_alhrk_63.05_71.19.jpg,right,0,0,0,0,,,,,0,11,11,11,,,,,,,,,0,0,0,0,0,4,4,4,,,,,,,,,,,,,,,,,,570.0990820860025,570.5988914699992,None,1,570.0990820860025,570.0990820860025,,,,,,,,,,,,,,,,,,,,,,,,,,,,,,,,,,,,,,,,,,,,,,,,,,,,,,,,,,,,,tomasNotenson,001,d,2019_Oct_10_1423,Experimento,3.2.3,60.3027618386884,
8,14,14,999,0.5,0:10,3,Cyan,None,0,0,1,28:50,./completed_changuitos/montage_alhrk_63.05_71.19.jpg,right,0,0,0,0,,,,,0,11,11,11,,,,,,,,,0,0,0,0,0,5,5,5,,,,,,,,,,,,,,,,,,572.0982897920039,572.5982288929954,None,1,572.0982897920039,572.0982897920039,,,,,,,,,,,,,,,,,,,,,,,,,,,,,,,,,,,,,,,,,,,,,,,,,,,,,,,,,,,,,tomasNotenson,001,d,2019_Oct_10_1423,Experimento,3.2.3,60.3027618386884,
8,14,14,999,0.5,0:10,3,Blue,['space'],0,0,1,28:50,./completed_changuitos/montage_alhrk_63.05_71.19.jpg,right,0,0,0,0,,,,,0,11,11,11,,,,,,,,,0,0,0,0,0,6,6,6,,,,,,,,,,,,,,,,,,574.097740792,574.5975597669894,['return'],0,574.097740792,574.097740792,[0.3505166839895537],,,,,,,,,,,,,,,,,,,,,,,,,,,,,,,,,,,,,,,,,,,,,,,,,,,,,,,,,,,,tomasNotenson,001,d,2019_Oct_10_1423,Experimento,3.2.3,60.3027618386884,
8,14,14,999,0.5,0:10,3,Yellow,None,0,0,1,28:50,./completed_changuitos/montage_alhrk_63.05_71.19.jpg,right,0,0,0,0,,,,,0,11,11,11,,,,,,,,,0,0,0,0,0,7,7,7,,,,,,,,,,,,,,,,,,576.0803882519016,None,None,1,576.0803882519016,None,,,,,,,,,,,,,,,,,,,,,,,,,,,,,,,,,,,,,,,,,,,,,,,,,,,,,,,,,,,,,tomasNotenson,001,d,2019_Oct_10_1423,Experimento,3.2.3,60.3027618386884,
8,14,14,999,0.5,0:10,3,Cyan,None,0,0,1,28:50,./completed_changuitos/montage_alhrk_63.05_71.19.jpg,right,0,0,0,0,,,,,0,11,11,11,,,,,,,,,0,0,0,0,0,8,8,8,,,,,,,,,,,,,,,,,,576.0803882519016,None,None,1,576.0803882519016,None,,,,,,,,,,,,,,,,,,,,,,,,,,,,,,,,,,,,,,,,,,,,,,,,,,,,,,,,,,,,,tomasNotenson,001,d,2019_Oct_10_1423,Experimento,3.2.3,60.3027618386884,
8,14,14,999,0.5,0:10,3,Yellow,['space'],0,0,1,28:50,./completed_changuitos/montage_alhrk_63.05_71.19.jpg,right,0,0,0,0,,,,,0,11,11,11,,,,,,,,,0,0,0,0,0,9,9,9,,,,,,,,,,,,,,,,,,576.0803882519016,None,None,0,576.0803882519016,None,,,,,,,,,,,,,,,,,,,,,,,,,,,,,,,,,,,,,,,,,,,,,,,,,,,,,,,,,,,,,tomasNotenson,001,d,2019_Oct_10_1423,Experimento,3.2.3,60.3027618386884,
8,14,14,999,0.5,0:10,3,Magenta,None,0,0,1,28:50,./completed_changuitos/montage_alhrk_63.05_71.19.jpg,right,0,0,0,0,,,,,0,11,11,11,,,,,,,,,0,0,0,0,0,10,10,10,,,,,,,,,,,,,,,,,,576.0803882519016,None,None,1,576.0803882519016,None,,,,,,,,,,,,,,,,,,,,,,,,,,,,,,,,,,,,,,,,,,,,,,,,,,,,,,,,,,,,,tomasNotenson,001,d,2019_Oct_10_1423,Experimento,3.2.3,60.3027618386884,
8,14,14,999,0.5,0:10,3,Red,None,0,0,1,28:50,./completed_changuitos/montage_alhrk_63.05_71.19.jpg,right,0,0,0,0,,,,,0,11,11,11,,,,,,,,,0,0,0,0,0,11,11,11,,,,,,,,,,,,,,,,,,576.0970422848011,None,None,1,576.0970422848011,None,,,,,,,,,,,,,,,,,,,,,,,,,,,,,,,,,,,,,,,,,,,,,,,,,,,,,,,,,,,,,tomasNotenson,001,d,2019_Oct_10_1423,Experimento,3.2.3,60.3027618386884,
8,14,14,999,0.5,0:10,3,Magenta,['space'],0,0,1,28:50,./completed_changuitos/montage_alhrk_63.05_71.19.jpg,right,0,0,0,0,,,,,0,11,11,11,,,,,,,,,0,0,0,0,0,12,12,12,,,,,,,,,,,,,,,,,,576.0970422848011,None,None,0,576.0970422848011,None,,,,,,,,,,,,,,,,,,,,,,,,,,,,,,,,,,,,,,,,,,,,,,,,,,,,,,,,,,,,,tomasNotenson,001,d,2019_Oct_10_1423,Experimento,3.2.3,60.3027618386884,
8,14,14,999,0.5,0:10,3,Red,['space'],0,0,1,28:50,./completed_changuitos/montage_alhrk_63.05_71.19.jpg,right,0,0,0,0,,,,,0,11,11,11,,,,,,,,,0,0,0,0,0,13,13,13,,,,,,,,,,,,,,,,,,576.0970422848011,None,None,0,576.0970422848011,None,,,,,,,,,,,,,,,,,,,,,,,,,,,,,,,,,,,,,,,,,,,,,,,,,,,,,,,,,,,,,tomasNotenson,001,d,2019_Oct_10_1423,Experimento,3.2.3,60.3027618386884,
8,14,14,999,0.5,0:10,3,Yellow,None,0,0,1,28:50,./completed_changuitos/montage_alhrk_63.05_71.19.jpg,right,0,0,0,0,,,,,0,11,11,11,,,,,,,,,0,0,0,0,0,14,14,14,,,,,,,,,,,,,,,,,,576.0970422848011,None,None,1,576.0970422848011,None,,,,,,,,,,,,,,,,,,,,,,,,,,,,,,,,,,,,,,,,,,,,,,,,,,,,,,,,,,,,,tomasNotenson,001,d,2019_Oct_10_1423,Experimento,3.2.3,60.3027618386884,
8,14,14,999,0.5,0:10,3,Cyan,None,0,0,1,28:50,./completed_changuitos/montage_alhrk_63.05_71.19.jpg,right,0,0,0,0,,,,,0,11,11,11,,,,,,,,,0,0,0,0,0,15,15,15,,,,,,,,,,,,,,,,,,576.0970422848011,None,None,1,576.0970422848011,None,,,,,,,,,,,,,,,,,,,,,,,,,,,,,,,,,,,,,,,,,,,,,,,,,,,,,,,,,,,,,tomasNotenson,001,d,2019_Oct_10_1423,Experimento,3.2.3,60.3027618386884,
8,14,14,999,0.5,0:10,3,Green,None,0,0,1,28:50,./completed_changuitos/montage_alhrk_63.05_71.19.jpg,right,0,0,0,0,,,,,0,11,11,11,,,,,,,,,0,0,0,0,0,16,16,16,,,,,,,,,,,,,,,,,,576.0970422848011,None,None,1,576.0970422848011,None,,,,,,,,,,,,,,,,,,,,,,,,,,,,,,,,,,,,,,,,,,,,,,,,,,,,,,,,,,,,,tomasNotenson,001,d,2019_Oct_10_1423,Experimento,3.2.3,60.3027618386884,
8,14,14,999,0.5,0:10,3,White,None,0,0,1,28:50,./completed_changuitos/montage_alhrk_63.05_71.19.jpg,right,0,0,0,0,,,,,0,11,11,11,,,,,,,,,0,0,0,0,0,17,17,17,,,,,,,,,,,,,,,,,,576.1136963177006,None,None,1,576.1136963177006,None,,,,,,,,,,,,,,,,,,,,,,,,,,,,,,,,,,,,,,,,,,,,,,,,,,,,,,,,,,,,,tomasNotenson,001,d,2019_Oct_10_1423,Experimento,3.2.3,60.3027618386884,
8,14,14,999,0.5,0:10,3,Green,['space'],0,0,1,28:50,./completed_changuitos/montage_alhrk_63.05_71.19.jpg,right,0,0,0,0,,,,,0,11,11,11,,,,,,,,,0,0,0,0,0,18,18,18,,,,,,,,,,,,,,,,,,576.1136963177006,None,None,0,576.1136963177006,None,,,,,,,,,,,,,,,,,,,,,,,,,,,,,,,,,,,,,,,,,,,,,,,,,,,,,,,,,,,,,tomasNotenson,001,d,2019_Oct_10_1423,Experimento,3.2.3,60.3027618386884,
8,14,14,999,0.5,0:10,3,Red,None,0,0,1,28:50,./completed_changuitos/montage_alhrk_63.05_71.19.jpg,right,0,0,0,0,,,,,0,11,11,11,,,,,,,,,0,0,0,0,0,19,19,19,,,,,,,,,,,,,,,,,,576.1136963177006,None,None,1,576.1136963177006,None,,,,,,,,,,,,,,,,,,,,,,,,,,,,,,,,,,,,,,,,,,,,,,,,,,,,,,,,,,,,,tomasNotenson,001,d,2019_Oct_10_1423,Experimento,3.2.3,60.3027618386884,
8,14,14,999,0.5,0:10,3,Blue,None,0,0,1,28:50,./completed_changuitos/montage_alhrk_63.05_71.19.jpg,right,0,0,0,0,,,,,0,11,11,11,,,,,,,,,0,0,0,0,0,20,20,20,,,,,,,,,,,,,,,,,,576.1136963177006,None,None,1,576.1136963177006,None,,,,,,,,,,,,,,,,,,,,,,,,,,,,,,,,,,,,,,,,,,,,,,,,,,,,,,,,,,,,,tomasNotenson,001,d,2019_Oct_10_1423,Experimento,3.2.3,60.3027618386884,
8,14,14,999,0.5,0:10,3,Green,None,0,0,1,28:50,./completed_changuitos/montage_alhrk_63.05_71.19.jpg,right,0,0,0,0,,,,,0,11,11,11,,,,,,,,,0,0,0,0,0,21,21,21,,,,,,,,,,,,,,,,,,576.1136963177006,None,None,1,576.1136963177006,None,,,,,,,,,,,,,,,,,,,,,,,,,,,,,,,,,,,,,,,,,,,,,,,,,,,,,,,,,,,,,tomasNotenson,001,d,2019_Oct_10_1423,Experimento,3.2.3,60.3027618386884,
8,14,14,999,0.5,0:10,3,,,0,0,1,28:50,./completed_changuitos/montage_alhrk_63.05_71.19.jpg,right,0,0,0,0,,,,,0,11,11,11,,,,,,,,,0,0,0,0,,,,,,,,,,,,,,,,,,,,,,,,,,,,,576.1450334149995,None,right,1,1.5517698230105452,576.1450334149995,None,576.1450334149995,None,,,,,,,,,,,,,,,,,,,,,,,,,,,,,,,,,,,,,,,,,,,,,,,,,,,tomasNotenson,001,d,2019_Oct_10_1423,Experimento,3.2.3,60.3027618386884,
8,14,14,999,0.5,0:10,3,,,0,0,1,28:50,,,0,0,0,0,,,,,0,11,11,11,,,,,,,,,,,,,,,,,,,,,,,,,,,,,,,,,,,,,,,,,,,,,,,,,,,,,,,,,,,,,,,,,,,,,,,,,,,,,,,,,,,,,,,,,,,,,,,,,,,,tomasNotenson,001,d,2019_Oct_10_1423,Experimento,3.2.3,60.3027618386884,
8,14,14,999,0.5,0:10,3,,,1,0,0,30:50,./completed_changuitos/montage_aypce_119.85_106.99.jpg,left,0,0,0,0,,,,,0,12,12,12,0,0,0,0,,,,,,,,,,,,,,,,,,,,,,,,,,,,,,,,,,,,,,,,,,,,,,,,,,,,,,,,,,,,,578.3129295149993,578.6794997069956,578.6794997069956,586.6934082509979,left,1,3.9818090760090854,586.6934082509979,None,586.6934082509979,None,586.6934082509979,589.7086396200029,,,,,,,,,,,,,,,,,,,,,,,tomasNotenson,001,d,2019_Oct_10_1423,Experimento,3.2.3,60.3027618386884,
8,14,14,999,0.5,0:10,3,,,1,0,0,30:50,,,0,0,0,0,,,,,0,12,12,12,,,,,,,,,,,,,,,,,,,,,,,,,,,,,,,,,,,,,,,,,,,,,,,,,,,,,,,,,,,,,,,,,,,,,,,,,,,,,,,,,,,,,,,,,,,,,,,,,,,,tomasNotenson,001,d,2019_Oct_10_1423,Experimento,3.2.3,60.3027618386884,
8,14,14,999,0.5,0:10,3,,,1,0,0,32:50,./completed_changuitos/montage_ysixq_268.59_304.95.jpg,right,0,0,0,0,,,,,0,13,13,13,0,0,0,0,,,,,,,,,,,,,,,,,,,,,,,,,,,,,,,,,,,,,,,,,,,,,,,,,,,,,,,,,,,,,591.2918258930004,593.7077427479962,593.7077427479962,601.7216033269942,left,0,1.5332705439941492,601.7216033269942,None,601.7216033269942,None,601.7216033269942,None,,,,,,,,,,,,,,,,,,,,,,,tomasNotenson,001,d,2019_Oct_10_1423,Experimento,3.2.3,60.3027618386884,
8,14,14,999,0.5,0:10,3,,,1,0,0,32:50,,,0,0,0,0,,,,,0,13,13,13,,,,,,,,,,,,,,,,,,,,,,,,,,,,,,,,,,,,,,,,,,,,,,,,,,,,,,,,,,,,,,,,,,,,,,,,,,,,,,,,,,,,,,,,,,,,,,,,,,,,tomasNotenson,001,d,2019_Oct_10_1423,Experimento,3.2.3,60.3027618386884,
8,14,14,999,0.5,0:10,3,,,1,0,0,34:50,./completed_changuitos/montage_ssynf_76.85_85.59.jpg,right,0,0,0,0,,,,,0,14,14,14,0,0,0,0,,,,,,,,,,,,,,,,,,,,,,,,,,,,,,,,,,,,,,,,,,,,,,,,,,,,,,,,,,,,,603.9042665909947,605.7868756099924,605.7868756099924,613.8008006869932,left,0,1.8505050160019891,613.8008006869932,None,613.8008006869932,None,613.8008006869932,None,,,,,,,,,,,,,,,,,,,,,,,tomasNotenson,001,d,2019_Oct_10_1423,Experimento,3.2.3,60.3027618386884,
8,14,14,999,0.5,0:10,3,,,1,0,0,34:50,,,0,0,0,0,,,,,0,14,14,14,,,,,,,,,,,,,,,,,,,,,,,,,,,,,,,,,,,,,,,,,,,,,,,,,,,,,,,,,,,,,,,,,,,,,,,,,,,,,,,,,,,,,,,,,,,,,,,,,,,,tomasNotenson,001,d,2019_Oct_10_1423,Experimento,3.2.3,60.3027618386884,
8,14,14,999,0.5,0:10,3,,,1,0,0,30:50,./completed_changuitos/montage_oswyz_344.55_294.25.jpg,left,0,0,0,0,,,,,0,15,15,15,0,0,0,0,,,,,,,,,,,,,,,,,,,,,,,,,,,,,,,,,,,,,,,,,,,,,,,,,,,,,,,,,,,,,616.2999294789915,617.3829031450005,617.3829031450005,625.3968425249914,left,1,2.8495831330073997,625.3968425249914,None,625.3968425249914,None,625.3968425249914,None,,,,,,,,,,,,,,,,,,,,,,,tomasNotenson,001,d,2019_Oct_10_1423,Experimento,3.2.3,60.3027618386884,
8,14,14,999,0.5,0:10,3,,,1,0,0,30:50,,,0,0,0,0,,,,,0,15,15,15,,,,,,,,,,,,,,,,,,,,,,,,,,,,,,,,,,,,,,,,,,,,,,,,,,,,,,,,,,,,,,,,,,,,,,,,,,,,,,,,,,,,,,,,,,,,,,,,,,,,tomasNotenson,001,d,2019_Oct_10_1423,Experimento,3.2.3,60.3027618386884,
8,14,14,999,0.5,0:10,3,,,1,0,0,32:50,./completed_changuitos/montage_omkkr_52.95_46.0.jpg,left,0,0,0,0,,,,,0,16,16,16,0,0,0,0,,,,,,,,,,,,,,,,,,,,,,,,,,,,,,,,,,,,,,,,,,,,,,,,,,,,,,,,,,,,,628.8956540609943,629.6287807299959,629.6287807299959,637.6426411449938,right,0,0.5329525520064635,637.6426411449938,None,637.6426411449938,None,637.6426411449938,None,,,,,,,,,,,,,,,,,,,,,,,tomasNotenson,001,d,2019_Oct_10_1423,Experimento,3.2.3,60.3027618386884,
8,14,14,999,0.5,0:10,3,,,1,0,0,32:50,,,0,0,0,0,,,,,0,16,16,16,,,,,,,,,,,,,,,,,,,,,,,,,,,,,,,,,,,,,,,,,,,,,,,,,,,,,,,,,,,,,,,,,,,,,,,,,,,,,,,,,,,,,,,,,,,,,,,,,,,,tomasNotenson,001,d,2019_Oct_10_1423,Experimento,3.2.3,60.3027618386884,
8,14,14,999,0.5,0:10,3,,,1,0,0,34:50,./completed_changuitos/montage_gywfo_74.89_66.25.jpg,left,0,0,0,0,,,,,0,17,17,17,0,0,0,0,,,,,,,,,,,,,,,,,,,,,,,,,,,,,,,,,,,,,,,,,,,,,,,,,,,,,,,,,,,,,638.7922417829977,639.6253312629997,639.6253312629997,647.6392452049913,right,0,1.499725027999375,647.6392452049913,None,647.6392452049913,None,647.6392452049913,None,,,,,,,,,,,,,,,,,,,,,,,tomasNotenson,001,d,2019_Oct_10_1423,Experimento,3.2.3,60.3027618386884,
8,14,14,999,0.5,0:10,3,,,1,0,0,34:50,,,0,0,0,0,,,,,0,17,17,17,,,,,,,,,,,,,,,,,,,,,,,,,,,,,,,,,,,,,,,,,,,,,,,,,,,,,,,,,,,,,,,,,,,,,,,,,,,,,,,,,,,,,,,,,,,,,,,,,,,,tomasNotenson,001,d,2019_Oct_10_1423,Experimento,3.2.3,60.3027618386884,
8,14,14,999,0.5,0:10,3,,,,,,,,,0,0,0,0,,,,,,,,,,,,,,,,,,,,,,,,,,,,,,,,,,,,,,,,,,,,,,,,,,,,,,,,,,,,,,,,,,,,,,,,,,,,,,,,,,,,,,649.2096599709912,651.3046349349897,9,4.249035690998426,651.3046349349897,None,651.3046349349897,None,c,5.898230751990923,655.5694845749967,None,655.5694845749967,None,655.5694845749967,None,661.4841317169921,None,8,3.832892423000885,661.4841317169921,None,tomasNotenson,001,d,2019_Oct_10_1423,Experimento,3.2.3,60.3027618386884,
