changuito_time_to_show,time_to_think,time_to_play,total_items,nback_stimulus_time,nback_training,time_to_show_tiny_stimulus,colourtest,corresp,inmediato,consciente,inconsciente,nback_slice,imagen,correcta,trials_5.thisRepN,trials_5.thisTrialN,trials_5.thisN,trials_5.thisIndex,nback_train.thisRepN,nback_train.thisTrialN,nback_train.thisN,nback_train.thisIndex,treatment_order.thisRepN,treatment_order.thisTrialN,treatment_order.thisN,treatment_order.thisIndex,trials.thisRepN,trials.thisTrialN,trials.thisN,trials.thisIndex,trials_2.thisRepN,trials_2.thisTrialN,trials_2.thisN,trials_2.thisIndex,trials_3.thisRepN,trials_3.thisTrialN,trials_3.thisN,trials_3.thisIndex,trials_4.thisRepN,trials_4.thisTrialN,trials_4.thisN,trials_4.thisIndex,Presentacion.started,Presentacion.stopped,Juego.started,Juego.stopped,image_6.started,image_6.stopped,polygon.started,polygon.stopped,nback_train_resp.keys,nback_train_resp.corr,nback_train_resp.started,nback_train_resp.stopped,hola.started,hola.stopped,image_2.started,image_2.stopped,tiempo_para_pensar.started,tiempo_para_pensar.stopped,respuesta_consciente.keys,respuesta_consciente.corr,respuesta_consciente.rt,respuesta_consciente.started,respuesta_consciente.stopped,cual_es_la_mas_barata.started,cual_es_la_mas_barata.stopped,image_4.started,image_4.stopped,holi.started,holi.stopped,image_3.started,image_3.stopped,polygon_2.started,polygon_2.stopped,nback_train_resp_2.keys,nback_train_resp_2.corr,nback_train_resp_2.started,nback_train_resp_2.stopped,nback_train_resp_2.rt,text_2.started,text_2.stopped,key_resp.keys,key_resp.corr,key_resp.rt,key_resp.started,key_resp.stopped,image_5.started,image_5.stopped,text.started,text.stopped,image.started,image.stopped,respuesta_inmediato.keys,respuesta_inmediato.corr,respuesta_inmediato.rt,respuesta_inmediato.started,respuesta_inmediato.stopped,pregunta_cual_es_el_mas_barato.started,pregunta_cual_es_el_mas_barato.stopped,short_stim1.started,short_stim1.stopped,gracias.started,gracias.stopped,respuesta1.keys,respuesta1.rt,respuesta1.started,respuesta1.stopped,pregunta1.started,pregunta1.stopped,respuesta3bis_3.keys,respuesta3bis_3.rt,respuesta3bis_3.started,respuesta3bis_3.stopped,pregunta3_3.started,pregunta3_3.stopped,productoCon3RANGOSabc_3.started,productoCon3RANGOSabc_3.stopped,text_3.started,text_3.stopped,key_resp_2.keys,key_resp_2.rt,key_resp_2.started,key_resp_2.stopped,participant,session,group,date,expName,psychopyVersion,frameRate,
8,14,14,999,0.5,0:10,3,White,None,,,,,,,0,0,0,0,0,0,0,0,,,,,,,,,,,,,,,,,,,,,20.40034206400742,None,38.98011707700789,None,38.98011707700789,None,56.02001531800488,56.5244195950072,None,1,56.02001531800488,None,,,,,,,,,,,,,,,,,,,,,,,,,,,,,,,,,,,,,,,,,,,,,,,,,,,,,,,,,,,,,,,,,,,,,,,yair,001,c,2019_Oct_10_1455,Experimento,3.2.3,60.32736099695835,
8,14,14,999,0.5,0:10,3,Red,None,,,,,,,0,0,0,0,0,1,1,1,,,,,,,,,,,,,,,,,,,,,,,,,,,58.02380177300074,58.52371596801095,None,1,58.02380177300074,58.02380177300074,,,,,,,,,,,,,,,,,,,,,,,,,,,,,,,,,,,,,,,,,,,,,,,,,,,,,,,,,,,,,,,,,,,,,,,yair,001,c,2019_Oct_10_1455,Experimento,3.2.3,60.32736099695835,
8,14,14,999,0.5,0:10,3,Magenta,None,,,,,,,0,0,0,0,0,2,2,2,,,,,,,,,,,,,,,,,,,,,,,,,,,60.02314344800834,60.523045830006595,None,1,60.02314344800834,60.02314344800834,,,,,,,,,,,,,,,,,,,,,,,,,,,,,,,,,,,,,,,,,,,,,,,,,,,,,,,,,,,,,,,,,,,,,,,yair,001,c,2019_Oct_10_1455,Experimento,3.2.3,60.32736099695835,
8,14,14,999,0.5,0:10,3,Cyan,None,,,,,,,0,0,0,0,0,3,3,3,,,,,,,,,,,,,,,,,,,,,,,,,,,62.02244721700845,62.52233373001218,None,1,62.02244721700845,62.02244721700845,,,,,,,,,,,,,,,,,,,,,,,,,,,,,,,,,,,,,,,,,,,,,,,,,,,,,,,,,,,,,,,,,,,,,,,yair,001,c,2019_Oct_10_1455,Experimento,3.2.3,60.32736099695835,
8,14,14,999,0.5,0:10,3,Magenta,['space'],,,,,,,0,0,0,0,0,4,4,4,,,,,,,,,,,,,,,,,,,,,,,,,,,64.0380708599987,64.5383039790031,None,0,64.0380708599987,64.0380708599987,,,,,,,,,,,,,,,,,,,,,,,,,,,,,,,,,,,,,,,,,,,,,,,,,,,,,,,,,,,,,,,,,,,,,,,yair,001,c,2019_Oct_10_1455,Experimento,3.2.3,60.32736099695835,
8,14,14,999,0.5,0:10,3,Green,None,,,,,,,0,0,0,0,0,5,5,5,,,,,,,,,,,,,,,,,,,,,,,,,,,66.03774945100304,66.53763255200465,None,1,66.03774945100304,66.03774945100304,,,,,,,,,,,,,,,,,,,,,,,,,,,,,,,,,,,,,,,,,,,,,,,,,,,,,,,,,,,,,,,,,,,,,,,yair,001,c,2019_Oct_10_1455,Experimento,3.2.3,60.32736099695835,
8,14,14,999,0.5,0:10,3,White,None,,,,,,,0,0,0,0,0,6,6,6,,,,,,,,,,,,,,,,,,,,,,,,,,,68.03710877599951,68.53694966700277,None,1,68.03710877599951,68.03710877599951,,,,,,,,,,,,,,,,,,,,,,,,,,,,,,,,,,,,,,,,,,,,,,,,,,,,,,,,,,,,,,,,,,,,,,,yair,001,c,2019_Oct_10_1455,Experimento,3.2.3,60.32736099695835,
8,14,14,999,0.5,0:10,3,Green,['space'],,,,,,,0,0,0,0,0,7,7,7,,,,,,,,,,,,,,,,,,,,,,,,,,,70.03639872200438,70.5362851050013,None,0,70.03639872200438,70.03639872200438,,,,,,,,,,,,,,,,,,,,,,,,,,,,,,,,,,,,,,,,,,,,,,,,,,,,,,,,,,,,,,,,,,,,,,,yair,001,c,2019_Oct_10_1455,Experimento,3.2.3,60.32736099695835,
8,14,14,999,0.5,0:10,3,Blue,None,,,,,,,0,0,0,0,0,8,8,8,,,,,,,,,,,,,,,,,,,,,,,,,,,72.03571748299873,72.53557370300405,None,1,72.03571748299873,72.03571748299873,,,,,,,,,,,,,,,,,,,,,,,,,,,,,,,,,,,,,,,,,,,,,,,,,,,,,,,,,,,,,,,,,,,,,,,yair,001,c,2019_Oct_10_1455,Experimento,3.2.3,60.32736099695835,
8,14,14,999,0.5,0:10,3,Green,['space'],,,,,,,0,0,0,0,0,9,9,9,,,,,,,,,,,,,,,,,,,,,,,,,,,74.03503376200388,74.5345089550101,None,0,74.03503376200388,74.03503376200388,,,,,,,,,,,,,,,,,,,,,,,,,,,,,,,,,,,,,,,,,,,,,,,,,,,,,,,,,,,,,,,,,,,,,,,yair,001,c,2019_Oct_10_1455,Experimento,3.2.3,60.32736099695835,
8,14,14,999,0.5,0:10,3,,,0,1,0,10:50,./completed_changuitos/montage_uvimm_73.05_63.65.jpg,left,0,0,0,0,,,,,0,0,0,0,,,,,0,0,0,0,,,,,,,,,,,,,,,,,,,,,76.1933990210091,89.61311151100381,89.61311151100381,97.62701744001242,97.62701744001242,111.64000145500177,left,1,0.9499922969989711,111.64000145500177,None,111.64000145500177,None,111.64000145500177,None,,,,,,,,,,,,,,,,,,,,,,,,,,,,,,,,,,,,,,,,,,,,,,,,,,,,,,,,yair,001,c,2019_Oct_10_1455,Experimento,3.2.3,60.32736099695835,
8,14,14,999,0.5,0:10,3,,,0,1,0,10:50,,,0,0,0,0,,,,,0,0,0,0,,,,,,,,,,,,,,,,,,,,,,,,,,,,,,,,,,,,,,,,,,,,,,,,,,,,,,,,,,,,,,,,,,,,,,,,,,,,,,,,,,,,,,,,,,,,,,,,,,,yair,001,c,2019_Oct_10_1455,Experimento,3.2.3,60.32736099695835,
8,14,14,999,0.5,0:10,3,Yellow,None,0,0,1,15:50,./completed_changuitos/montage_upftw_304.95_348.6.jpg,right,0,0,0,0,,,,,0,1,1,1,,,,,,,,,0,0,0,0,0,0,0,0,,,,,,,,,,,,,,,,,,,,,,,,,,,,112.74812722700881,114.78780731200823,114.78780731200823,None,122.84119218301203,123.3545658869989,None,1,122.84119218301203,None,,,,,,,,,,,,,,,,,,,,,,,,,,,,,,,,,,,,,,,,,,,,,,yair,001,c,2019_Oct_10_1455,Experimento,3.2.3,60.32736099695835,
8,14,14,999,0.5,0:10,3,White,['space'],0,0,1,15:50,./completed_changuitos/montage_upftw_304.95_348.6.jpg,right,0,0,0,0,,,,,0,1,1,1,,,,,,,,,0,0,0,0,0,1,1,1,,,,,,,,,,,,,,,,,,,,,,,,,,,,,,,,124.85645920901152,125.36710566100373,None,0,124.85645920901152,124.85645920901152,,,,,,,,,,,,,,,,,,,,,,,,,,,,,,,,,,,,,,,,,,,,,,yair,001,c,2019_Oct_10_1455,Experimento,3.2.3,60.32736099695835,
8,14,14,999,0.5,0:10,3,Magenta,None,0,0,1,15:50,./completed_changuitos/montage_upftw_304.95_348.6.jpg,right,0,0,0,0,,,,,0,1,1,1,,,,,,,,,0,0,0,0,0,2,2,2,,,,,,,,,,,,,,,,,,,,,,,,,,,,,,,,126.86693301401101,127.36649428700912,None,1,126.86693301401101,126.86693301401101,,,,,,,,,,,,,,,,,,,,,,,,,,,,,,,,,,,,,,,,,,,,,,yair,001,c,2019_Oct_10_1455,Experimento,3.2.3,60.32736099695835,
8,14,14,999,0.5,0:10,3,Cyan,None,0,0,1,15:50,./completed_changuitos/montage_upftw_304.95_348.6.jpg,right,0,0,0,0,,,,,0,1,1,1,,,,,,,,,0,0,0,0,0,3,3,3,,,,,,,,,,,,,,,,,,,,,,,,,,,,,,,,128.86604909200105,129.3658435180114,['return'],0,128.86604909200105,128.86604909200105,[1.0500570260046516],,,,,,,,,,,,,,,,,,,,,,,,,,,,,,,,,,,,,,,,,,,,,yair,001,c,2019_Oct_10_1455,Experimento,3.2.3,60.32736099695835,
8,14,14,999,0.5,0:10,3,Blue,None,0,0,1,15:50,./completed_changuitos/montage_upftw_304.95_348.6.jpg,right,0,0,0,0,,,,,0,1,1,1,,,,,,,,,0,0,0,0,0,4,4,4,,,,,,,,,,,,,,,,,,,,,,,,,,,,,,,,130.8664522570034,131.38170483701106,None,1,130.8664522570034,130.8664522570034,,,,,,,,,,,,,,,,,,,,,,,,,,,,,,,,,,,,,,,,,,,,,,yair,001,c,2019_Oct_10_1455,Experimento,3.2.3,60.32736099695835,
8,14,14,999,0.5,0:10,3,Magenta,None,0,0,1,15:50,./completed_changuitos/montage_upftw_304.95_348.6.jpg,right,0,0,0,0,,,,,0,1,1,1,,,,,,,,,0,0,0,0,0,5,5,5,,,,,,,,,,,,,,,,,,,,,,,,,,,,,,,,132.88159494299907,133.38143210700946,['return'],0,132.88159494299907,132.88159494299907,[0.6504188609978883],,,,,,,,,,,,,,,,,,,,,,,,,,,,,,,,,,,,,,,,,,,,,yair,001,c,2019_Oct_10_1455,Experimento,3.2.3,60.32736099695835,
8,14,14,999,0.5,0:10,3,Blue,['space'],0,0,1,15:50,./completed_changuitos/montage_upftw_304.95_348.6.jpg,right,0,0,0,0,,,,,0,1,1,1,,,,,,,,,0,0,0,0,0,6,6,6,,,,,,,,,,,,,,,,,,,,,,,,,,,,,,,,134.8972321980109,135.3973623990023,None,0,134.8972321980109,134.8972321980109,,,,,,,,,,,,,,,,,,,,,,,,,,,,,,,,,,,,,,,,,,,,,,yair,001,c,2019_Oct_10_1455,Experimento,3.2.3,60.32736099695835,
8,14,14,999,0.5,0:10,3,Cyan,None,0,0,1,15:50,./completed_changuitos/montage_upftw_304.95_348.6.jpg,right,0,0,0,0,,,,,0,1,1,1,,,,,,,,,0,0,0,0,0,7,7,7,,,,,,,,,,,,,,,,,,,,,,,,,,,,,,,,136.7965008252082,None,None,1,136.7965008252082,None,,,,,,,,,,,,,,,,,,,,,,,,,,,,,,,,,,,,,,,,,,,,,,yair,001,c,2019_Oct_10_1455,Experimento,3.2.3,60.32736099695835,
8,14,14,999,0.5,0:10,3,Yellow,None,0,0,1,15:50,./completed_changuitos/montage_upftw_304.95_348.6.jpg,right,0,0,0,0,,,,,0,1,1,1,,,,,,,,,0,0,0,0,0,8,8,8,,,,,,,,,,,,,,,,,,,,,,,,,,,,,,,,136.7965008252082,None,None,1,136.7965008252082,None,,,,,,,,,,,,,,,,,,,,,,,,,,,,,,,,,,,,,,,,,,,,,,yair,001,c,2019_Oct_10_1455,Experimento,3.2.3,60.32736099695835,
8,14,14,999,0.5,0:10,3,Cyan,None,0,0,1,15:50,./completed_changuitos/montage_upftw_304.95_348.6.jpg,right,0,0,0,0,,,,,0,1,1,1,,,,,,,,,0,0,0,0,0,9,9,9,,,,,,,,,,,,,,,,,,,,,,,,,,,,,,,,136.7965008252082,None,None,1,136.7965008252082,None,,,,,,,,,,,,,,,,,,,,,,,,,,,,,,,,,,,,,,,,,,,,,,yair,001,c,2019_Oct_10_1455,Experimento,3.2.3,60.32736099695835,
8,14,14,999,0.5,0:10,3,Blue,None,0,0,1,15:50,./completed_changuitos/montage_upftw_304.95_348.6.jpg,right,0,0,0,0,,,,,0,1,1,1,,,,,,,,,0,0,0,0,0,10,10,10,,,,,,,,,,,,,,,,,,,,,,,,,,,,,,,,136.7965008252082,None,None,1,136.7965008252082,None,,,,,,,,,,,,,,,,,,,,,,,,,,,,,,,,,,,,,,,,,,,,,,yair,001,c,2019_Oct_10_1455,Experimento,3.2.3,60.32736099695835,
8,14,14,999,0.5,0:10,3,Cyan,['space'],0,0,1,15:50,./completed_changuitos/montage_upftw_304.95_348.6.jpg,right,0,0,0,0,,,,,0,1,1,1,,,,,,,,,0,0,0,0,0,11,11,11,,,,,,,,,,,,,,,,,,,,,,,,,,,,,,,,136.7965008252082,None,None,0,136.7965008252082,None,,,,,,,,,,,,,,,,,,,,,,,,,,,,,,,,,,,,,,,,,,,,,,yair,001,c,2019_Oct_10_1455,Experimento,3.2.3,60.32736099695835,
8,14,14,999,0.5,0:10,3,Magenta,None,0,0,1,15:50,./completed_changuitos/montage_upftw_304.95_348.6.jpg,right,0,0,0,0,,,,,0,1,1,1,,,,,,,,,0,0,0,0,0,12,12,12,,,,,,,,,,,,,,,,,,,,,,,,,,,,,,,,136.7965008252082,None,None,1,136.7965008252082,None,,,,,,,,,,,,,,,,,,,,,,,,,,,,,,,,,,,,,,,,,,,,,,yair,001,c,2019_Oct_10_1455,Experimento,3.2.3,60.32736099695835,
8,14,14,999,0.5,0:10,3,Red,None,0,0,1,15:50,./completed_changuitos/montage_upftw_304.95_348.6.jpg,right,0,0,0,0,,,,,0,1,1,1,,,,,,,,,0,0,0,0,0,13,13,13,,,,,,,,,,,,,,,,,,,,,,,,,,,,,,,,136.7965008252082,None,None,1,136.7965008252082,None,,,,,,,,,,,,,,,,,,,,,,,,,,,,,,,,,,,,,,,,,,,,,,yair,001,c,2019_Oct_10_1455,Experimento,3.2.3,60.32736099695835,
8,14,14,999,0.5,0:10,3,Magenta,['space'],0,0,1,15:50,./completed_changuitos/montage_upftw_304.95_348.6.jpg,right,0,0,0,0,,,,,0,1,1,1,,,,,,,,,0,0,0,0,0,14,14,14,,,,,,,,,,,,,,,,,,,,,,,,,,,,,,,,136.7965008252082,None,None,0,136.7965008252082,None,,,,,,,,,,,,,,,,,,,,,,,,,,,,,,,,,,,,,,,,,,,,,,yair,001,c,2019_Oct_10_1455,Experimento,3.2.3,60.32736099695835,
8,14,14,999,0.5,0:10,3,Green,None,0,0,1,15:50,./completed_changuitos/montage_upftw_304.95_348.6.jpg,right,0,0,0,0,,,,,0,1,1,1,,,,,,,,,0,0,0,0,0,15,15,15,,,,,,,,,,,,,,,,,,,,,,,,,,,,,,,,136.7965008252082,None,None,1,136.7965008252082,None,,,,,,,,,,,,,,,,,,,,,,,,,,,,,,,,,,,,,,,,,,,,,,yair,001,c,2019_Oct_10_1455,Experimento,3.2.3,60.32736099695835,
8,14,14,999,0.5,0:10,3,Yellow,['space'],0,0,1,15:50,./completed_changuitos/montage_upftw_304.95_348.6.jpg,right,0,0,0,0,,,,,0,1,1,1,,,,,,,,,0,0,0,0,0,16,16,16,,,,,,,,,,,,,,,,,,,,,,,,,,,,,,,,136.7965008252082,None,None,0,136.7965008252082,None,,,,,,,,,,,,,,,,,,,,,,,,,,,,,,,,,,,,,,,,,,,,,,yair,001,c,2019_Oct_10_1455,Experimento,3.2.3,60.32736099695835,
8,14,14,999,0.5,0:10,3,Blue,None,0,0,1,15:50,./completed_changuitos/montage_upftw_304.95_348.6.jpg,right,0,0,0,0,,,,,0,1,1,1,,,,,,,,,0,0,0,0,0,17,17,17,,,,,,,,,,,,,,,,,,,,,,,,,,,,,,,,136.7965008252082,None,None,1,136.7965008252082,None,,,,,,,,,,,,,,,,,,,,,,,,,,,,,,,,,,,,,,,,,,,,,,yair,001,c,2019_Oct_10_1455,Experimento,3.2.3,60.32736099695835,
8,14,14,999,0.5,0:10,3,Cyan,None,0,0,1,15:50,./completed_changuitos/montage_upftw_304.95_348.6.jpg,right,0,0,0,0,,,,,0,1,1,1,,,,,,,,,0,0,0,0,0,18,18,18,,,,,,,,,,,,,,,,,,,,,,,,,,,,,,,,136.7965008252082,None,None,1,136.7965008252082,None,,,,,,,,,,,,,,,,,,,,,,,,,,,,,,,,,,,,,,,,,,,,,,yair,001,c,2019_Oct_10_1455,Experimento,3.2.3,60.32736099695835,
8,14,14,999,0.5,0:10,3,Blue,['space'],0,0,1,15:50,./completed_changuitos/montage_upftw_304.95_348.6.jpg,right,0,0,0,0,,,,,0,1,1,1,,,,,,,,,0,0,0,0,0,19,19,19,,,,,,,,,,,,,,,,,,,,,,,,,,,,,,,,136.7965008252082,None,None,0,136.7965008252082,None,,,,,,,,,,,,,,,,,,,,,,,,,,,,,,,,,,,,,,,,,,,,,,yair,001,c,2019_Oct_10_1455,Experimento,3.2.3,60.32736099695835,
8,14,14,999,0.5,0:10,3,Yellow,None,0,0,1,15:50,./completed_changuitos/montage_upftw_304.95_348.6.jpg,right,0,0,0,0,,,,,0,1,1,1,,,,,,,,,0,0,0,0,0,20,20,20,,,,,,,,,,,,,,,,,,,,,,,,,,,,,,,,136.7965008252082,None,None,1,136.7965008252082,None,,,,,,,,,,,,,,,,,,,,,,,,,,,,,,,,,,,,,,,,,,,,,,yair,001,c,2019_Oct_10_1455,Experimento,3.2.3,60.32736099695835,
8,14,14,999,0.5,0:10,3,Cyan,None,0,0,1,15:50,./completed_changuitos/montage_upftw_304.95_348.6.jpg,right,0,0,0,0,,,,,0,1,1,1,,,,,,,,,0,0,0,0,0,21,21,21,,,,,,,,,,,,,,,,,,,,,,,,,,,,,,,,136.81311061240848,None,None,1,136.81311061240848,None,,,,,,,,,,,,,,,,,,,,,,,,,,,,,,,,,,,,,,,,,,,,,,yair,001,c,2019_Oct_10_1455,Experimento,3.2.3,60.32736099695835,
8,14,14,999,0.5,0:10,3,Yellow,['space'],0,0,1,15:50,./completed_changuitos/montage_upftw_304.95_348.6.jpg,right,0,0,0,0,,,,,0,1,1,1,,,,,,,,,0,0,0,0,0,22,22,22,,,,,,,,,,,,,,,,,,,,,,,,,,,,,,,,136.81311061240848,None,None,0,136.81311061240848,None,,,,,,,,,,,,,,,,,,,,,,,,,,,,,,,,,,,,,,,,,,,,,,yair,001,c,2019_Oct_10_1455,Experimento,3.2.3,60.32736099695835,
8,14,14,999,0.5,0:10,3,Magenta,None,0,0,1,15:50,./completed_changuitos/montage_upftw_304.95_348.6.jpg,right,0,0,0,0,,,,,0,1,1,1,,,,,,,,,0,0,0,0,0,23,23,23,,,,,,,,,,,,,,,,,,,,,,,,,,,,,,,,136.81311061240848,None,None,1,136.81311061240848,None,,,,,,,,,,,,,,,,,,,,,,,,,,,,,,,,,,,,,,,,,,,,,,yair,001,c,2019_Oct_10_1455,Experimento,3.2.3,60.32736099695835,
8,14,14,999,0.5,0:10,3,Red,None,0,0,1,15:50,./completed_changuitos/montage_upftw_304.95_348.6.jpg,right,0,0,0,0,,,,,0,1,1,1,,,,,,,,,0,0,0,0,0,24,24,24,,,,,,,,,,,,,,,,,,,,,,,,,,,,,,,,136.81311061240848,None,None,1,136.81311061240848,None,,,,,,,,,,,,,,,,,,,,,,,,,,,,,,,,,,,,,,,,,,,,,,yair,001,c,2019_Oct_10_1455,Experimento,3.2.3,60.32736099695835,
8,14,14,999,0.5,0:10,3,Magenta,['space'],0,0,1,15:50,./completed_changuitos/montage_upftw_304.95_348.6.jpg,right,0,0,0,0,,,,,0,1,1,1,,,,,,,,,0,0,0,0,0,25,25,25,,,,,,,,,,,,,,,,,,,,,,,,,,,,,,,,136.81311061240848,None,None,0,136.81311061240848,None,,,,,,,,,,,,,,,,,,,,,,,,,,,,,,,,,,,,,,,,,,,,,,yair,001,c,2019_Oct_10_1455,Experimento,3.2.3,60.32736099695835,
8,14,14,999,0.5,0:10,3,Red,['space'],0,0,1,15:50,./completed_changuitos/montage_upftw_304.95_348.6.jpg,right,0,0,0,0,,,,,0,1,1,1,,,,,,,,,0,0,0,0,0,26,26,26,,,,,,,,,,,,,,,,,,,,,,,,,,,,,,,,136.81311061240848,None,None,0,136.81311061240848,None,,,,,,,,,,,,,,,,,,,,,,,,,,,,,,,,,,,,,,,,,,,,,,yair,001,c,2019_Oct_10_1455,Experimento,3.2.3,60.32736099695835,
8,14,14,999,0.5,0:10,3,Yellow,None,0,0,1,15:50,./completed_changuitos/montage_upftw_304.95_348.6.jpg,right,0,0,0,0,,,,,0,1,1,1,,,,,,,,,0,0,0,0,0,27,27,27,,,,,,,,,,,,,,,,,,,,,,,,,,,,,,,,136.81311061240848,None,None,1,136.81311061240848,None,,,,,,,,,,,,,,,,,,,,,,,,,,,,,,,,,,,,,,,,,,,,,,yair,001,c,2019_Oct_10_1455,Experimento,3.2.3,60.32736099695835,
8,14,14,999,0.5,0:10,3,Cyan,None,0,0,1,15:50,./completed_changuitos/montage_upftw_304.95_348.6.jpg,right,0,0,0,0,,,,,0,1,1,1,,,,,,,,,0,0,0,0,0,28,28,28,,,,,,,,,,,,,,,,,,,,,,,,,,,,,,,,136.81311061240848,None,None,1,136.81311061240848,None,,,,,,,,,,,,,,,,,,,,,,,,,,,,,,,,,,,,,,,,,,,,,,yair,001,c,2019_Oct_10_1455,Experimento,3.2.3,60.32736099695835,
8,14,14,999,0.5,0:10,3,Green,None,0,0,1,15:50,./completed_changuitos/montage_upftw_304.95_348.6.jpg,right,0,0,0,0,,,,,0,1,1,1,,,,,,,,,0,0,0,0,0,29,29,29,,,,,,,,,,,,,,,,,,,,,,,,,,,,,,,,136.81311061240848,None,None,1,136.81311061240848,None,,,,,,,,,,,,,,,,,,,,,,,,,,,,,,,,,,,,,,,,,,,,,,yair,001,c,2019_Oct_10_1455,Experimento,3.2.3,60.32736099695835,
8,14,14,999,0.5,0:10,3,White,None,0,0,1,15:50,./completed_changuitos/montage_upftw_304.95_348.6.jpg,right,0,0,0,0,,,,,0,1,1,1,,,,,,,,,0,0,0,0,0,30,30,30,,,,,,,,,,,,,,,,,,,,,,,,,,,,,,,,136.81311061240848,None,None,1,136.81311061240848,None,,,,,,,,,,,,,,,,,,,,,,,,,,,,,,,,,,,,,,,,,,,,,,yair,001,c,2019_Oct_10_1455,Experimento,3.2.3,60.32736099695835,
8,14,14,999,0.5,0:10,3,Green,['space'],0,0,1,15:50,./completed_changuitos/montage_upftw_304.95_348.6.jpg,right,0,0,0,0,,,,,0,1,1,1,,,,,,,,,0,0,0,0,0,31,31,31,,,,,,,,,,,,,,,,,,,,,,,,,,,,,,,,136.81311061240848,None,None,0,136.81311061240848,None,,,,,,,,,,,,,,,,,,,,,,,,,,,,,,,,,,,,,,,,,,,,,,yair,001,c,2019_Oct_10_1455,Experimento,3.2.3,60.32736099695835,
8,14,14,999,0.5,0:10,3,Red,None,0,0,1,15:50,./completed_changuitos/montage_upftw_304.95_348.6.jpg,right,0,0,0,0,,,,,0,1,1,1,,,,,,,,,0,0,0,0,0,32,32,32,,,,,,,,,,,,,,,,,,,,,,,,,,,,,,,,136.81311061240848,None,None,1,136.81311061240848,None,,,,,,,,,,,,,,,,,,,,,,,,,,,,,,,,,,,,,,,,,,,,,,yair,001,c,2019_Oct_10_1455,Experimento,3.2.3,60.32736099695835,
8,14,14,999,0.5,0:10,3,Blue,None,0,0,1,15:50,./completed_changuitos/montage_upftw_304.95_348.6.jpg,right,0,0,0,0,,,,,0,1,1,1,,,,,,,,,0,0,0,0,0,33,33,33,,,,,,,,,,,,,,,,,,,,,,,,,,,,,,,,136.81311061240848,None,None,1,136.81311061240848,None,,,,,,,,,,,,,,,,,,,,,,,,,,,,,,,,,,,,,,,,,,,,,,yair,001,c,2019_Oct_10_1455,Experimento,3.2.3,60.32736099695835,
8,14,14,999,0.5,0:10,3,Green,None,0,0,1,15:50,./completed_changuitos/montage_upftw_304.95_348.6.jpg,right,0,0,0,0,,,,,0,1,1,1,,,,,,,,,0,0,0,0,0,34,34,34,,,,,,,,,,,,,,,,,,,,,,,,,,,,,,,,136.81311061240848,None,None,1,136.81311061240848,None,,,,,,,,,,,,,,,,,,,,,,,,,,,,,,,,,,,,,,,,,,,,,,yair,001,c,2019_Oct_10_1455,Experimento,3.2.3,60.32736099695835,
8,14,14,999,0.5,0:10,3,,,0,0,1,15:50,./completed_changuitos/montage_upftw_304.95_348.6.jpg,right,0,0,0,0,,,,,0,1,1,1,,,,,,,,,0,0,0,0,,,,,,,,,,,,,,,,,,,,,,,,,,,,,,,,,,,,,,,,,,,136.87003221700434,None,right,1,1.4434601870016195,136.87003221700434,None,136.87003221700434,None,,,,,,,,,,,,,,,,,,,,,,,,,,,,,,,,,,,,yair,001,c,2019_Oct_10_1455,Experimento,3.2.3,60.32736099695835,
8,14,14,999,0.5,0:10,3,,,0,0,1,15:50,,,0,0,0,0,,,,,0,1,1,1,,,,,,,,,,,,,,,,,,,,,,,,,,,,,,,,,,,,,,,,,,,,,,,,,,,,,,,,,,,,,,,,,,,,,,,,,,,,,,,,,,,,,,,,,,,,,,,,,,,yair,001,c,2019_Oct_10_1455,Experimento,3.2.3,60.32736099695835,
8,14,14,999,0.5,0:10,3,Magenta,None,0,0,1,20:50,./completed_changuitos/montage_jutpp_113.99_127.15.jpg,right,0,0,0,0,,,,,0,2,2,2,,,,,,,,,0,0,0,0,0,0,0,0,,,,,,,,,,,,,,,,,,,,,,,,,,,,138.4676277690014,139.245797555006,139.245797555006,None,147.2883006839984,147.79320946701046,None,1,147.2883006839984,None,,,,,,,,,,,,,,,,,,,,,,,,,,,,,,,,,,,,,,,,,,,,,,yair,001,c,2019_Oct_10_1455,Experimento,3.2.3,60.32736099695835,
8,14,14,999,0.5,0:10,3,Blue,['space'],0,0,1,20:50,./completed_changuitos/montage_jutpp_113.99_127.15.jpg,right,0,0,0,0,,,,,0,2,2,2,,,,,,,,,0,0,0,0,0,1,1,1,,,,,,,,,,,,,,,,,,,,,,,,,,,,,,,,149.29251281400502,149.79253992300073,None,0,149.29251281400502,149.29251281400502,,,,,,,,,,,,,,,,,,,,,,,,,,,,,,,,,,,,,,,,,,,,,,yair,001,c,2019_Oct_10_1455,Experimento,3.2.3,60.32736099695835,
8,14,14,999,0.5,0:10,3,Cyan,None,0,0,1,20:50,./completed_changuitos/montage_jutpp_113.99_127.15.jpg,right,0,0,0,0,,,,,0,2,2,2,,,,,,,,,0,0,0,0,0,2,2,2,,,,,,,,,,,,,,,,,,,,,,,,,,,,,,,,151.29175412900804,151.791791251002,None,1,151.29175412900804,151.29175412900804,,,,,,,,,,,,,,,,,,,,,,,,,,,,,,,,,,,,,,,,,,,,,,yair,001,c,2019_Oct_10_1455,Experimento,3.2.3,60.32736099695835,
8,14,14,999,0.5,0:10,3,Yellow,None,0,0,1,20:50,./completed_changuitos/montage_jutpp_113.99_127.15.jpg,right,0,0,0,0,,,,,0,2,2,2,,,,,,,,,0,0,0,0,0,3,3,3,,,,,,,,,,,,,,,,,,,,,,,,,,,,,,,,153.29124116500316,153.79118219199881,None,1,153.29124116500316,153.29124116500316,,,,,,,,,,,,,,,,,,,,,,,,,,,,,,,,,,,,,,,,,,,,,,yair,001,c,2019_Oct_10_1455,Experimento,3.2.3,60.32736099695835,
8,14,14,999,0.5,0:10,3,Cyan,None,0,0,1,20:50,./completed_changuitos/montage_jutpp_113.99_127.15.jpg,right,0,0,0,0,,,,,0,2,2,2,,,,,,,,,0,0,0,0,0,4,4,4,,,,,,,,,,,,,,,,,,,,,,,,,,,,,,,,155.29059475200484,155.79008543000964,['return'],0,155.29059475200484,155.29059475200484,[0.7001014959969325],,,,,,,,,,,,,,,,,,,,,,,,,,,,,,,,,,,,,,,,,,,,,yair,001,c,2019_Oct_10_1455,Experimento,3.2.3,60.32736099695835,
8,14,14,999,0.5,0:10,3,Blue,None,0,0,1,20:50,./completed_changuitos/montage_jutpp_113.99_127.15.jpg,right,0,0,0,0,,,,,0,2,2,2,,,,,,,,,0,0,0,0,0,5,5,5,,,,,,,,,,,,,,,,,,,,,,,,,,,,,,,,157.28961421000713,157.78975891400478,['return'],0,157.28961421000713,157.28961421000713,[0.7173617399967043],,,,,,,,,,,,,,,,,,,,,,,,,,,,,,,,,,,,,,,,,,,,,yair,001,c,2019_Oct_10_1455,Experimento,3.2.3,60.32736099695835,
8,14,14,999,0.5,0:10,3,Cyan,['space'],0,0,1,20:50,./completed_changuitos/montage_jutpp_113.99_127.15.jpg,right,0,0,0,0,,,,,0,2,2,2,,,,,,,,,0,0,0,0,0,6,6,6,,,,,,,,,,,,,,,,,,,,,,,,,,,,,,,,159.28917692700634,159.7890783370094,None,0,159.28917692700634,159.28917692700634,,,,,,,,,,,,,,,,,,,,,,,,,,,,,,,,,,,,,,,,,,,,,,yair,001,c,2019_Oct_10_1455,Experimento,3.2.3,60.32736099695835,
8,14,14,999,0.5,0:10,3,Magenta,None,0,0,1,20:50,./completed_changuitos/montage_jutpp_113.99_127.15.jpg,right,0,0,0,0,,,,,0,2,2,2,,,,,,,,,0,0,0,0,0,7,7,7,,,,,,,,,,,,,,,,,,,,,,,,,,,,,,,,161.2718371322131,None,None,1,161.2718371322131,None,,,,,,,,,,,,,,,,,,,,,,,,,,,,,,,,,,,,,,,,,,,,,,yair,001,c,2019_Oct_10_1455,Experimento,3.2.3,60.32736099695835,
8,14,14,999,0.5,0:10,3,Red,None,0,0,1,20:50,./completed_changuitos/montage_jutpp_113.99_127.15.jpg,right,0,0,0,0,,,,,0,2,2,2,,,,,,,,,0,0,0,0,0,8,8,8,,,,,,,,,,,,,,,,,,,,,,,,,,,,,,,,161.2718371322131,None,None,1,161.2718371322131,None,,,,,,,,,,,,,,,,,,,,,,,,,,,,,,,,,,,,,,,,,,,,,,yair,001,c,2019_Oct_10_1455,Experimento,3.2.3,60.32736099695835,
8,14,14,999,0.5,0:10,3,Magenta,['space'],0,0,1,20:50,./completed_changuitos/montage_jutpp_113.99_127.15.jpg,right,0,0,0,0,,,,,0,2,2,2,,,,,,,,,0,0,0,0,0,9,9,9,,,,,,,,,,,,,,,,,,,,,,,,,,,,,,,,161.2718371322131,None,None,0,161.2718371322131,None,,,,,,,,,,,,,,,,,,,,,,,,,,,,,,,,,,,,,,,,,,,,,,yair,001,c,2019_Oct_10_1455,Experimento,3.2.3,60.32736099695835,
8,14,14,999,0.5,0:10,3,Green,None,0,0,1,20:50,./completed_changuitos/montage_jutpp_113.99_127.15.jpg,right,0,0,0,0,,,,,0,2,2,2,,,,,,,,,0,0,0,0,0,10,10,10,,,,,,,,,,,,,,,,,,,,,,,,,,,,,,,,161.2718371322131,None,None,1,161.2718371322131,None,,,,,,,,,,,,,,,,,,,,,,,,,,,,,,,,,,,,,,,,,,,,,,yair,001,c,2019_Oct_10_1455,Experimento,3.2.3,60.32736099695835,
8,14,14,999,0.5,0:10,3,Yellow,['space'],0,0,1,20:50,./completed_changuitos/montage_jutpp_113.99_127.15.jpg,right,0,0,0,0,,,,,0,2,2,2,,,,,,,,,0,0,0,0,0,11,11,11,,,,,,,,,,,,,,,,,,,,,,,,,,,,,,,,161.2884469194134,None,None,0,161.2884469194134,None,,,,,,,,,,,,,,,,,,,,,,,,,,,,,,,,,,,,,,,,,,,,,,yair,001,c,2019_Oct_10_1455,Experimento,3.2.3,60.32736099695835,
8,14,14,999,0.5,0:10,3,Blue,None,0,0,1,20:50,./completed_changuitos/montage_jutpp_113.99_127.15.jpg,right,0,0,0,0,,,,,0,2,2,2,,,,,,,,,0,0,0,0,0,12,12,12,,,,,,,,,,,,,,,,,,,,,,,,,,,,,,,,161.2884469194134,None,None,1,161.2884469194134,None,,,,,,,,,,,,,,,,,,,,,,,,,,,,,,,,,,,,,,,,,,,,,,yair,001,c,2019_Oct_10_1455,Experimento,3.2.3,60.32736099695835,
8,14,14,999,0.5,0:10,3,Cyan,None,0,0,1,20:50,./completed_changuitos/montage_jutpp_113.99_127.15.jpg,right,0,0,0,0,,,,,0,2,2,2,,,,,,,,,0,0,0,0,0,13,13,13,,,,,,,,,,,,,,,,,,,,,,,,,,,,,,,,161.2884469194134,None,None,1,161.2884469194134,None,,,,,,,,,,,,,,,,,,,,,,,,,,,,,,,,,,,,,,,,,,,,,,yair,001,c,2019_Oct_10_1455,Experimento,3.2.3,60.32736099695835,
8,14,14,999,0.5,0:10,3,Blue,['space'],0,0,1,20:50,./completed_changuitos/montage_jutpp_113.99_127.15.jpg,right,0,0,0,0,,,,,0,2,2,2,,,,,,,,,0,0,0,0,0,14,14,14,,,,,,,,,,,,,,,,,,,,,,,,,,,,,,,,161.2884469194134,None,None,0,161.2884469194134,None,,,,,,,,,,,,,,,,,,,,,,,,,,,,,,,,,,,,,,,,,,,,,,yair,001,c,2019_Oct_10_1455,Experimento,3.2.3,60.32736099695835,
8,14,14,999,0.5,0:10,3,Yellow,None,0,0,1,20:50,./completed_changuitos/montage_jutpp_113.99_127.15.jpg,right,0,0,0,0,,,,,0,2,2,2,,,,,,,,,0,0,0,0,0,15,15,15,,,,,,,,,,,,,,,,,,,,,,,,,,,,,,,,161.2884469194134,None,None,1,161.2884469194134,None,,,,,,,,,,,,,,,,,,,,,,,,,,,,,,,,,,,,,,,,,,,,,,yair,001,c,2019_Oct_10_1455,Experimento,3.2.3,60.32736099695835,
8,14,14,999,0.5,0:10,3,Cyan,None,0,0,1,20:50,./completed_changuitos/montage_jutpp_113.99_127.15.jpg,right,0,0,0,0,,,,,0,2,2,2,,,,,,,,,0,0,0,0,0,16,16,16,,,,,,,,,,,,,,,,,,,,,,,,,,,,,,,,161.2884469194134,None,None,1,161.2884469194134,None,,,,,,,,,,,,,,,,,,,,,,,,,,,,,,,,,,,,,,,,,,,,,,yair,001,c,2019_Oct_10_1455,Experimento,3.2.3,60.32736099695835,
8,14,14,999,0.5,0:10,3,Yellow,['space'],0,0,1,20:50,./completed_changuitos/montage_jutpp_113.99_127.15.jpg,right,0,0,0,0,,,,,0,2,2,2,,,,,,,,,0,0,0,0,0,17,17,17,,,,,,,,,,,,,,,,,,,,,,,,,,,,,,,,161.30505670661367,None,None,0,161.30505670661367,None,,,,,,,,,,,,,,,,,,,,,,,,,,,,,,,,,,,,,,,,,,,,,,yair,001,c,2019_Oct_10_1455,Experimento,3.2.3,60.32736099695835,
8,14,14,999,0.5,0:10,3,Magenta,None,0,0,1,20:50,./completed_changuitos/montage_jutpp_113.99_127.15.jpg,right,0,0,0,0,,,,,0,2,2,2,,,,,,,,,0,0,0,0,0,18,18,18,,,,,,,,,,,,,,,,,,,,,,,,,,,,,,,,161.30505670661367,None,None,1,161.30505670661367,None,,,,,,,,,,,,,,,,,,,,,,,,,,,,,,,,,,,,,,,,,,,,,,yair,001,c,2019_Oct_10_1455,Experimento,3.2.3,60.32736099695835,
8,14,14,999,0.5,0:10,3,Red,None,0,0,1,20:50,./completed_changuitos/montage_jutpp_113.99_127.15.jpg,right,0,0,0,0,,,,,0,2,2,2,,,,,,,,,0,0,0,0,0,19,19,19,,,,,,,,,,,,,,,,,,,,,,,,,,,,,,,,161.30505670661367,None,None,1,161.30505670661367,None,,,,,,,,,,,,,,,,,,,,,,,,,,,,,,,,,,,,,,,,,,,,,,yair,001,c,2019_Oct_10_1455,Experimento,3.2.3,60.32736099695835,
8,14,14,999,0.5,0:10,3,Magenta,['space'],0,0,1,20:50,./completed_changuitos/montage_jutpp_113.99_127.15.jpg,right,0,0,0,0,,,,,0,2,2,2,,,,,,,,,0,0,0,0,0,20,20,20,,,,,,,,,,,,,,,,,,,,,,,,,,,,,,,,161.30505670661367,None,None,0,161.30505670661367,None,,,,,,,,,,,,,,,,,,,,,,,,,,,,,,,,,,,,,,,,,,,,,,yair,001,c,2019_Oct_10_1455,Experimento,3.2.3,60.32736099695835,
8,14,14,999,0.5,0:10,3,Red,['space'],0,0,1,20:50,./completed_changuitos/montage_jutpp_113.99_127.15.jpg,right,0,0,0,0,,,,,0,2,2,2,,,,,,,,,0,0,0,0,0,21,21,21,,,,,,,,,,,,,,,,,,,,,,,,,,,,,,,,161.30505670661367,None,None,0,161.30505670661367,None,,,,,,,,,,,,,,,,,,,,,,,,,,,,,,,,,,,,,,,,,,,,,,yair,001,c,2019_Oct_10_1455,Experimento,3.2.3,60.32736099695835,
8,14,14,999,0.5,0:10,3,Yellow,None,0,0,1,20:50,./completed_changuitos/montage_jutpp_113.99_127.15.jpg,right,0,0,0,0,,,,,0,2,2,2,,,,,,,,,0,0,0,0,0,22,22,22,,,,,,,,,,,,,,,,,,,,,,,,,,,,,,,,161.30505670661367,None,None,1,161.30505670661367,None,,,,,,,,,,,,,,,,,,,,,,,,,,,,,,,,,,,,,,,,,,,,,,yair,001,c,2019_Oct_10_1455,Experimento,3.2.3,60.32736099695835,
8,14,14,999,0.5,0:10,3,Cyan,None,0,0,1,20:50,./completed_changuitos/montage_jutpp_113.99_127.15.jpg,right,0,0,0,0,,,,,0,2,2,2,,,,,,,,,0,0,0,0,0,23,23,23,,,,,,,,,,,,,,,,,,,,,,,,,,,,,,,,161.30505670661367,None,None,1,161.30505670661367,None,,,,,,,,,,,,,,,,,,,,,,,,,,,,,,,,,,,,,,,,,,,,,,yair,001,c,2019_Oct_10_1455,Experimento,3.2.3,60.32736099695835,
8,14,14,999,0.5,0:10,3,Green,None,0,0,1,20:50,./completed_changuitos/montage_jutpp_113.99_127.15.jpg,right,0,0,0,0,,,,,0,2,2,2,,,,,,,,,0,0,0,0,0,24,24,24,,,,,,,,,,,,,,,,,,,,,,,,,,,,,,,,161.30505670661367,None,None,1,161.30505670661367,None,,,,,,,,,,,,,,,,,,,,,,,,,,,,,,,,,,,,,,,,,,,,,,yair,001,c,2019_Oct_10_1455,Experimento,3.2.3,60.32736099695835,
8,14,14,999,0.5,0:10,3,White,None,0,0,1,20:50,./completed_changuitos/montage_jutpp_113.99_127.15.jpg,right,0,0,0,0,,,,,0,2,2,2,,,,,,,,,0,0,0,0,0,25,25,25,,,,,,,,,,,,,,,,,,,,,,,,,,,,,,,,161.30505670661367,None,None,1,161.30505670661367,None,,,,,,,,,,,,,,,,,,,,,,,,,,,,,,,,,,,,,,,,,,,,,,yair,001,c,2019_Oct_10_1455,Experimento,3.2.3,60.32736099695835,
8,14,14,999,0.5,0:10,3,Green,['space'],0,0,1,20:50,./completed_changuitos/montage_jutpp_113.99_127.15.jpg,right,0,0,0,0,,,,,0,2,2,2,,,,,,,,,0,0,0,0,0,26,26,26,,,,,,,,,,,,,,,,,,,,,,,,,,,,,,,,161.30505670661367,None,None,0,161.30505670661367,None,,,,,,,,,,,,,,,,,,,,,,,,,,,,,,,,,,,,,,,,,,,,,,yair,001,c,2019_Oct_10_1455,Experimento,3.2.3,60.32736099695835,
8,14,14,999,0.5,0:10,3,Red,None,0,0,1,20:50,./completed_changuitos/montage_jutpp_113.99_127.15.jpg,right,0,0,0,0,,,,,0,2,2,2,,,,,,,,,0,0,0,0,0,27,27,27,,,,,,,,,,,,,,,,,,,,,,,,,,,,,,,,161.30505670661367,None,None,1,161.30505670661367,None,,,,,,,,,,,,,,,,,,,,,,,,,,,,,,,,,,,,,,,,,,,,,,yair,001,c,2019_Oct_10_1455,Experimento,3.2.3,60.32736099695835,
8,14,14,999,0.5,0:10,3,Blue,None,0,0,1,20:50,./completed_changuitos/montage_jutpp_113.99_127.15.jpg,right,0,0,0,0,,,,,0,2,2,2,,,,,,,,,0,0,0,0,0,28,28,28,,,,,,,,,,,,,,,,,,,,,,,,,,,,,,,,161.30505670661367,None,None,1,161.30505670661367,None,,,,,,,,,,,,,,,,,,,,,,,,,,,,,,,,,,,,,,,,,,,,,,yair,001,c,2019_Oct_10_1455,Experimento,3.2.3,60.32736099695835,
8,14,14,999,0.5,0:10,3,Green,None,0,0,1,20:50,./completed_changuitos/montage_jutpp_113.99_127.15.jpg,right,0,0,0,0,,,,,0,2,2,2,,,,,,,,,0,0,0,0,0,29,29,29,,,,,,,,,,,,,,,,,,,,,,,,,,,,,,,,161.30505670661367,None,None,1,161.30505670661367,None,,,,,,,,,,,,,,,,,,,,,,,,,,,,,,,,,,,,,,,,,,,,,,yair,001,c,2019_Oct_10_1455,Experimento,3.2.3,60.32736099695835,
8,14,14,999,0.5,0:10,3,,,0,0,1,20:50,./completed_changuitos/montage_jutpp_113.99_127.15.jpg,right,0,0,0,0,,,,,0,2,2,2,,,,,,,,,0,0,0,0,,,,,,,,,,,,,,,,,,,,,,,,,,,,,,,,,,,,,,,,,,,161.34978020800918,None,left,0,1.5215863199991873,161.34978020800918,None,161.34978020800918,None,,,,,,,,,,,,,,,,,,,,,,,,,,,,,,,,,,,,yair,001,c,2019_Oct_10_1455,Experimento,3.2.3,60.32736099695835,
8,14,14,999,0.5,0:10,3,,,0,0,1,20:50,,,0,0,0,0,,,,,0,2,2,2,,,,,,,,,,,,,,,,,,,,,,,,,,,,,,,,,,,,,,,,,,,,,,,,,,,,,,,,,,,,,,,,,,,,,,,,,,,,,,,,,,,,,,,,,,,,,,,,,,,yair,001,c,2019_Oct_10_1455,Experimento,3.2.3,60.32736099695835,
8,14,14,999,0.5,0:10,3,,,0,1,0,25:50,./completed_changuitos/montage_oimtq_399.0_341.35.jpg,left,0,0,0,0,,,,,0,3,3,3,,,,,0,0,0,0,,,,,,,,,,,,,,,,,,,,,163.01992428700032,163.88763591200404,163.88763591200404,171.9016467830079,171.9016467830079,185.9134862409992,left,1,2.0162205079977866,185.9134862409992,None,185.9134862409992,None,185.9134862409992,None,,,,,,,,,,,,,,,,,,,,,,,,,,,,,,,,,,,,,,,,,,,,,,,,,,,,,,,,yair,001,c,2019_Oct_10_1455,Experimento,3.2.3,60.32736099695835,
8,14,14,999,0.5,0:10,3,,,0,1,0,25:50,,,0,0,0,0,,,,,0,3,3,3,,,,,,,,,,,,,,,,,,,,,,,,,,,,,,,,,,,,,,,,,,,,,,,,,,,,,,,,,,,,,,,,,,,,,,,,,,,,,,,,,,,,,,,,,,,,,,,,,,,yair,001,c,2019_Oct_10_1455,Experimento,3.2.3,60.32736099695835,
8,14,14,999,0.5,0:10,3,,,0,1,0,10:50,./completed_changuitos/montage_nabpr_166.85_191.55.jpg,right,0,0,0,0,,,,,0,4,4,4,,,,,0,0,0,0,,,,,,,,,,,,,,,,,,,,,188.11726695000834,189.19534099000157,189.19534099000157,197.20964181001182,197.20964181001182,211.2215205590037,right,1,1.1501272410096135,211.2215205590037,None,211.2215205590037,None,211.2215205590037,None,,,,,,,,,,,,,,,,,,,,,,,,,,,,,,,,,,,,,,,,,,,,,,,,,,,,,,,,yair,001,c,2019_Oct_10_1455,Experimento,3.2.3,60.32736099695835,
8,14,14,999,0.5,0:10,3,,,0,1,0,10:50,,,0,0,0,0,,,,,0,4,4,4,,,,,,,,,,,,,,,,,,,,,,,,,,,,,,,,,,,,,,,,,,,,,,,,,,,,,,,,,,,,,,,,,,,,,,,,,,,,,,,,,,,,,,,,,,,,,,,,,,,yair,001,c,2019_Oct_10_1455,Experimento,3.2.3,60.32736099695835,
8,14,14,999,0.5,0:10,3,,,0,1,0,19:50,./completed_changuitos/montage_fsati_176.55_155.15.jpg,left,0,0,0,0,,,,,0,5,5,5,,,,,0,0,0,0,,,,,,,,,,,,,,,,,,,,,212.53347059999942,213.470805932011,213.470805932011,221.48428757600777,221.48428757600777,235.49655084501137,right,0,0.8178238979890011,235.49655084501137,None,235.49655084501137,None,235.49655084501137,None,,,,,,,,,,,,,,,,,,,,,,,,,,,,,,,,,,,,,,,,,,,,,,,,,,,,,,,,yair,001,c,2019_Oct_10_1455,Experimento,3.2.3,60.32736099695835,
8,14,14,999,0.5,0:10,3,,,0,1,0,19:50,,,0,0,0,0,,,,,0,5,5,5,,,,,,,,,,,,,,,,,,,,,,,,,,,,,,,,,,,,,,,,,,,,,,,,,,,,,,,,,,,,,,,,,,,,,,,,,,,,,,,,,,,,,,,,,,,,,,,,,,,yair,001,c,2019_Oct_10_1455,Experimento,3.2.3,60.32736099695835,
8,14,14,999,0.5,0:10,3,Red,None,0,0,1,28:50,./completed_changuitos/montage_hicrg_78.65_69.0.jpg,left,0,0,0,0,,,,,0,6,6,6,,,,,,,,,0,0,0,0,0,0,0,0,,,,,,,,,,,,,,,,,,,,,,,,,,,,236.44893683001283,237.09592771800817,237.09592771800817,None,245.13942549101193,245.64306774899887,None,1,245.13942549101193,None,,,,,,,,,,,,,,,,,,,,,,,,,,,,,,,,,,,,,,,,,,,,,,yair,001,c,2019_Oct_10_1455,Experimento,3.2.3,60.32736099695835,
8,14,14,999,0.5,0:10,3,Magenta,['space'],0,0,1,28:50,./completed_changuitos/montage_hicrg_78.65_69.0.jpg,left,0,0,0,0,,,,,0,6,6,6,,,,,,,,,0,0,0,0,0,1,1,1,,,,,,,,,,,,,,,,,,,,,,,,,,,,,,,,247.1423076170031,247.64237516200228,None,0,247.1423076170031,247.1423076170031,,,,,,,,,,,,,,,,,,,,,,,,,,,,,,,,,,,,,,,,,,,,,,yair,001,c,2019_Oct_10_1455,Experimento,3.2.3,60.32736099695835,
8,14,14,999,0.5,0:10,3,Green,None,0,0,1,28:50,./completed_changuitos/montage_hicrg_78.65_69.0.jpg,left,0,0,0,0,,,,,0,6,6,6,,,,,,,,,0,0,0,0,0,2,2,2,,,,,,,,,,,,,,,,,,,,,,,,,,,,,,,,249.14184589601064,249.64169477501127,None,1,249.14184589601064,249.14184589601064,,,,,,,,,,,,,,,,,,,,,,,,,,,,,,,,,,,,,,,,,,,,,,yair,001,c,2019_Oct_10_1455,Experimento,3.2.3,60.32736099695835,
8,14,14,999,0.5,0:10,3,Yellow,['space'],0,0,1,28:50,./completed_changuitos/montage_hicrg_78.65_69.0.jpg,left,0,0,0,0,,,,,0,6,6,6,,,,,,,,,0,0,0,0,0,3,3,3,,,,,,,,,,,,,,,,,,,,,,,,,,,,,,,,251.1574071089999,251.65767895200406,None,0,251.1574071089999,251.1574071089999,,,,,,,,,,,,,,,,,,,,,,,,,,,,,,,,,,,,,,,,,,,,,,yair,001,c,2019_Oct_10_1455,Experimento,3.2.3,60.32736099695835,
8,14,14,999,0.5,0:10,3,Blue,None,0,0,1,28:50,./completed_changuitos/montage_hicrg_78.65_69.0.jpg,left,0,0,0,0,,,,,0,6,6,6,,,,,,,,,0,0,0,0,0,4,4,4,,,,,,,,,,,,,,,,,,,,,,,,,,,,,,,,253.15693021701009,253.65704950800864,None,1,253.15693021701009,253.15693021701009,,,,,,,,,,,,,,,,,,,,,,,,,,,,,,,,,,,,,,,,,,,,,,yair,001,c,2019_Oct_10_1455,Experimento,3.2.3,60.32736099695835,
8,14,14,999,0.5,0:10,3,Cyan,None,0,0,1,28:50,./completed_changuitos/montage_hicrg_78.65_69.0.jpg,left,0,0,0,0,,,,,0,6,6,6,,,,,,,,,0,0,0,0,0,5,5,5,,,,,,,,,,,,,,,,,,,,,,,,,,,,,,,,255.15608594199875,255.65588888101047,None,1,255.15608594199875,255.15608594199875,,,,,,,,,,,,,,,,,,,,,,,,,,,,,,,,,,,,,,,,,,,,,,yair,001,c,2019_Oct_10_1455,Experimento,3.2.3,60.32736099695835,
8,14,14,999,0.5,0:10,3,Blue,['space'],0,0,1,28:50,./completed_changuitos/montage_hicrg_78.65_69.0.jpg,left,0,0,0,0,,,,,0,6,6,6,,,,,,,,,0,0,0,0,0,6,6,6,,,,,,,,,,,,,,,,,,,,,,,,,,,,,,,,257.1557341830048,257.6555413210008,['return'],0,257.1557341830048,257.1557341830048,[0.6171271400089609],,,,,,,,,,,,,,,,,,,,,,,,,,,,,,,,,,,,,,,,,,,,,yair,001,c,2019_Oct_10_1455,Experimento,3.2.3,60.32736099695835,
8,14,14,999,0.5,0:10,3,Yellow,None,0,0,1,28:50,./completed_changuitos/montage_hicrg_78.65_69.0.jpg,left,0,0,0,0,,,,,0,6,6,6,,,,,,,,,0,0,0,0,0,7,7,7,,,,,,,,,,,,,,,,,,,,,,,,,,,,,,,,259.1213221532104,None,None,1,259.1213221532104,None,,,,,,,,,,,,,,,,,,,,,,,,,,,,,,,,,,,,,,,,,,,,,,yair,001,c,2019_Oct_10_1455,Experimento,3.2.3,60.32736099695835,
8,14,14,999,0.5,0:10,3,Cyan,None,0,0,1,28:50,./completed_changuitos/montage_hicrg_78.65_69.0.jpg,left,0,0,0,0,,,,,0,6,6,6,,,,,,,,,0,0,0,0,0,8,8,8,,,,,,,,,,,,,,,,,,,,,,,,,,,,,,,,259.1213221532104,None,None,1,259.1213221532104,None,,,,,,,,,,,,,,,,,,,,,,,,,,,,,,,,,,,,,,,,,,,,,,yair,001,c,2019_Oct_10_1455,Experimento,3.2.3,60.32736099695835,
8,14,14,999,0.5,0:10,3,Yellow,['space'],0,0,1,28:50,./completed_changuitos/montage_hicrg_78.65_69.0.jpg,left,0,0,0,0,,,,,0,6,6,6,,,,,,,,,0,0,0,0,0,9,9,9,,,,,,,,,,,,,,,,,,,,,,,,,,,,,,,,259.1213221532104,None,None,0,259.1213221532104,None,,,,,,,,,,,,,,,,,,,,,,,,,,,,,,,,,,,,,,,,,,,,,,yair,001,c,2019_Oct_10_1455,Experimento,3.2.3,60.32736099695835,
8,14,14,999,0.5,0:10,3,Magenta,None,0,0,1,28:50,./completed_changuitos/montage_hicrg_78.65_69.0.jpg,left,0,0,0,0,,,,,0,6,6,6,,,,,,,,,0,0,0,0,0,10,10,10,,,,,,,,,,,,,,,,,,,,,,,,,,,,,,,,259.1213221532104,None,None,1,259.1213221532104,None,,,,,,,,,,,,,,,,,,,,,,,,,,,,,,,,,,,,,,,,,,,,,,yair,001,c,2019_Oct_10_1455,Experimento,3.2.3,60.32736099695835,
8,14,14,999,0.5,0:10,3,Red,None,0,0,1,28:50,./completed_changuitos/montage_hicrg_78.65_69.0.jpg,left,0,0,0,0,,,,,0,6,6,6,,,,,,,,,0,0,0,0,0,11,11,11,,,,,,,,,,,,,,,,,,,,,,,,,,,,,,,,259.1213221532104,None,None,1,259.1213221532104,None,,,,,,,,,,,,,,,,,,,,,,,,,,,,,,,,,,,,,,,,,,,,,,yair,001,c,2019_Oct_10_1455,Experimento,3.2.3,60.32736099695835,
8,14,14,999,0.5,0:10,3,Magenta,['space'],0,0,1,28:50,./completed_changuitos/montage_hicrg_78.65_69.0.jpg,left,0,0,0,0,,,,,0,6,6,6,,,,,,,,,0,0,0,0,0,12,12,12,,,,,,,,,,,,,,,,,,,,,,,,,,,,,,,,259.1213221532104,None,None,0,259.1213221532104,None,,,,,,,,,,,,,,,,,,,,,,,,,,,,,,,,,,,,,,,,,,,,,,yair,001,c,2019_Oct_10_1455,Experimento,3.2.3,60.32736099695835,
8,14,14,999,0.5,0:10,3,Red,['space'],0,0,1,28:50,./completed_changuitos/montage_hicrg_78.65_69.0.jpg,left,0,0,0,0,,,,,0,6,6,6,,,,,,,,,0,0,0,0,0,13,13,13,,,,,,,,,,,,,,,,,,,,,,,,,,,,,,,,259.1213221532104,None,None,0,259.1213221532104,None,,,,,,,,,,,,,,,,,,,,,,,,,,,,,,,,,,,,,,,,,,,,,,yair,001,c,2019_Oct_10_1455,Experimento,3.2.3,60.32736099695835,
8,14,14,999,0.5,0:10,3,Yellow,None,0,0,1,28:50,./completed_changuitos/montage_hicrg_78.65_69.0.jpg,left,0,0,0,0,,,,,0,6,6,6,,,,,,,,,0,0,0,0,0,14,14,14,,,,,,,,,,,,,,,,,,,,,,,,,,,,,,,,259.1213221532104,None,None,1,259.1213221532104,None,,,,,,,,,,,,,,,,,,,,,,,,,,,,,,,,,,,,,,,,,,,,,,yair,001,c,2019_Oct_10_1455,Experimento,3.2.3,60.32736099695835,
8,14,14,999,0.5,0:10,3,Cyan,None,0,0,1,28:50,./completed_changuitos/montage_hicrg_78.65_69.0.jpg,left,0,0,0,0,,,,,0,6,6,6,,,,,,,,,0,0,0,0,0,15,15,15,,,,,,,,,,,,,,,,,,,,,,,,,,,,,,,,259.1213221532104,None,None,1,259.1213221532104,None,,,,,,,,,,,,,,,,,,,,,,,,,,,,,,,,,,,,,,,,,,,,,,yair,001,c,2019_Oct_10_1455,Experimento,3.2.3,60.32736099695835,
8,14,14,999,0.5,0:10,3,Green,None,0,0,1,28:50,./completed_changuitos/montage_hicrg_78.65_69.0.jpg,left,0,0,0,0,,,,,0,6,6,6,,,,,,,,,0,0,0,0,0,16,16,16,,,,,,,,,,,,,,,,,,,,,,,,,,,,,,,,259.1213221532104,None,None,1,259.1213221532104,None,,,,,,,,,,,,,,,,,,,,,,,,,,,,,,,,,,,,,,,,,,,,,,yair,001,c,2019_Oct_10_1455,Experimento,3.2.3,60.32736099695835,
8,14,14,999,0.5,0:10,3,White,None,0,0,1,28:50,./completed_changuitos/montage_hicrg_78.65_69.0.jpg,left,0,0,0,0,,,,,0,6,6,6,,,,,,,,,0,0,0,0,0,17,17,17,,,,,,,,,,,,,,,,,,,,,,,,,,,,,,,,259.1213221532104,None,None,1,259.1213221532104,None,,,,,,,,,,,,,,,,,,,,,,,,,,,,,,,,,,,,,,,,,,,,,,yair,001,c,2019_Oct_10_1455,Experimento,3.2.3,60.32736099695835,
8,14,14,999,0.5,0:10,3,Green,['space'],0,0,1,28:50,./completed_changuitos/montage_hicrg_78.65_69.0.jpg,left,0,0,0,0,,,,,0,6,6,6,,,,,,,,,0,0,0,0,0,18,18,18,,,,,,,,,,,,,,,,,,,,,,,,,,,,,,,,259.1213221532104,None,None,0,259.1213221532104,None,,,,,,,,,,,,,,,,,,,,,,,,,,,,,,,,,,,,,,,,,,,,,,yair,001,c,2019_Oct_10_1455,Experimento,3.2.3,60.32736099695835,
8,14,14,999,0.5,0:10,3,Red,None,0,0,1,28:50,./completed_changuitos/montage_hicrg_78.65_69.0.jpg,left,0,0,0,0,,,,,0,6,6,6,,,,,,,,,0,0,0,0,0,19,19,19,,,,,,,,,,,,,,,,,,,,,,,,,,,,,,,,259.1213221532104,None,None,1,259.1213221532104,None,,,,,,,,,,,,,,,,,,,,,,,,,,,,,,,,,,,,,,,,,,,,,,yair,001,c,2019_Oct_10_1455,Experimento,3.2.3,60.32736099695835,
8,14,14,999,0.5,0:10,3,Blue,None,0,0,1,28:50,./completed_changuitos/montage_hicrg_78.65_69.0.jpg,left,0,0,0,0,,,,,0,6,6,6,,,,,,,,,0,0,0,0,0,20,20,20,,,,,,,,,,,,,,,,,,,,,,,,,,,,,,,,259.1213221532104,None,None,1,259.1213221532104,None,,,,,,,,,,,,,,,,,,,,,,,,,,,,,,,,,,,,,,,,,,,,,,yair,001,c,2019_Oct_10_1455,Experimento,3.2.3,60.32736099695835,
8,14,14,999,0.5,0:10,3,Green,None,0,0,1,28:50,./completed_changuitos/montage_hicrg_78.65_69.0.jpg,left,0,0,0,0,,,,,0,6,6,6,,,,,,,,,0,0,0,0,0,21,21,21,,,,,,,,,,,,,,,,,,,,,,,,,,,,,,,,259.1213221532104,None,None,1,259.1213221532104,None,,,,,,,,,,,,,,,,,,,,,,,,,,,,,,,,,,,,,,,,,,,,,,yair,001,c,2019_Oct_10_1455,Experimento,3.2.3,60.32736099695835,
8,14,14,999,0.5,0:10,3,,,0,0,1,28:50,./completed_changuitos/montage_hicrg_78.65_69.0.jpg,left,0,0,0,0,,,,,0,6,6,6,,,,,,,,,0,0,0,0,,,,,,,,,,,,,,,,,,,,,,,,,,,,,,,,,,,,,,,,,,,259.1665218380076,None,left,1,1.1543252270057565,259.1665218380076,None,259.1665218380076,None,,,,,,,,,,,,,,,,,,,,,,,,,,,,,,,,,,,,yair,001,c,2019_Oct_10_1455,Experimento,3.2.3,60.32736099695835,
8,14,14,999,0.5,0:10,3,,,0,0,1,28:50,,,0,0,0,0,,,,,0,6,6,6,,,,,,,,,,,,,,,,,,,,,,,,,,,,,,,,,,,,,,,,,,,,,,,,,,,,,,,,,,,,,,,,,,,,,,,,,,,,,,,,,,,,,,,,,,,,,,,,,,,yair,001,c,2019_Oct_10_1455,Experimento,3.2.3,60.32736099695835,
8,14,14,999,0.5,0:10,3,,,0,1,0,19:50,./completed_changuitos/montage_jjuck_61.55_52.95.jpg,left,0,0,0,0,,,,,0,7,7,7,,,,,0,0,0,0,,,,,,,,,,,,,,,,,,,,,260.45359784500033,261.6375915140088,261.6375915140088,269.65119185100775,269.65119185100775,283.6630974780128,left,1,0.7331397399975685,283.6630974780128,None,283.6630974780128,None,283.6630974780128,None,,,,,,,,,,,,,,,,,,,,,,,,,,,,,,,,,,,,,,,,,,,,,,,,,,,,,,,,yair,001,c,2019_Oct_10_1455,Experimento,3.2.3,60.32736099695835,
8,14,14,999,0.5,0:10,3,,,0,1,0,19:50,,,0,0,0,0,,,,,0,7,7,7,,,,,,,,,,,,,,,,,,,,,,,,,,,,,,,,,,,,,,,,,,,,,,,,,,,,,,,,,,,,,,,,,,,,,,,,,,,,,,,,,,,,,,,,,,,,,,,,,,,yair,001,c,2019_Oct_10_1455,Experimento,3.2.3,60.32736099695835,
8,14,14,999,0.5,0:10,3,Magenta,None,0,0,1,20:50,./completed_changuitos/montage_ykwww_96.29_84.45.jpg,left,0,0,0,0,,,,,0,8,8,8,,,,,,,,,0,0,0,0,0,0,0,0,,,,,,,,,,,,,,,,,,,,,,,,,,,,284.5131294349994,285.6124204689986,285.6124204689986,None,293.63243666700146,294.14274523500353,None,1,293.63243666700146,None,,,,,,,,,,,,,,,,,,,,,,,,,,,,,,,,,,,,,,,,,,,,,,yair,001,c,2019_Oct_10_1455,Experimento,3.2.3,60.32736099695835,
8,14,14,999,0.5,0:10,3,Blue,['space'],0,0,1,20:50,./completed_changuitos/montage_ykwww_96.29_84.45.jpg,left,0,0,0,0,,,,,0,8,8,8,,,,,,,,,0,0,0,0,0,1,1,1,,,,,,,,,,,,,,,,,,,,,,,,,,,,,,,,295.64232262600854,296.1420408920094,None,0,295.64232262600854,295.64232262600854,,,,,,,,,,,,,,,,,,,,,,,,,,,,,,,,,,,,,,,,,,,,,,yair,001,c,2019_Oct_10_1455,Experimento,3.2.3,60.32736099695835,
8,14,14,999,0.5,0:10,3,Cyan,None,0,0,1,20:50,./completed_changuitos/montage_ykwww_96.29_84.45.jpg,left,0,0,0,0,,,,,0,8,8,8,,,,,,,,,0,0,0,0,0,2,2,2,,,,,,,,,,,,,,,,,,,,,,,,,,,,,,,,297.64192137500504,298.1418127370125,None,1,297.64192137500504,297.64192137500504,,,,,,,,,,,,,,,,,,,,,,,,,,,,,,,,,,,,,,,,,,,,,,yair,001,c,2019_Oct_10_1455,Experimento,3.2.3,60.32736099695835,
8,14,14,999,0.5,0:10,3,Yellow,None,0,0,1,20:50,./completed_changuitos/montage_ykwww_96.29_84.45.jpg,left,0,0,0,0,,,,,0,8,8,8,,,,,,,,,0,0,0,0,0,3,3,3,,,,,,,,,,,,,,,,,,,,,,,,,,,,,,,,299.6412605420046,300.1410900410119,None,1,299.6412605420046,299.6412605420046,,,,,,,,,,,,,,,,,,,,,,,,,,,,,,,,,,,,,,,,,,,,,,yair,001,c,2019_Oct_10_1455,Experimento,3.2.3,60.32736099695835,
8,14,14,999,0.5,0:10,3,Cyan,None,0,0,1,20:50,./completed_changuitos/montage_ykwww_96.29_84.45.jpg,left,0,0,0,0,,,,,0,8,8,8,,,,,,,,,0,0,0,0,0,4,4,4,,,,,,,,,,,,,,,,,,,,,,,,,,,,,,,,301.64057202001277,302.1404163940024,['return'],0,301.64057202001277,301.64057202001277,[0.7670692250103457],,,,,,,,,,,,,,,,,,,,,,,,,,,,,,,,,,,,,,,,,,,,,yair,001,c,2019_Oct_10_1455,Experimento,3.2.3,60.32736099695835,
8,14,14,999,0.5,0:10,3,Blue,None,0,0,1,20:50,./completed_changuitos/montage_ykwww_96.29_84.45.jpg,left,0,0,0,0,,,,,0,8,8,8,,,,,,,,,0,0,0,0,0,5,5,5,,,,,,,,,,,,,,,,,,,,,,,,,,,,,,,,303.65652684500674,304.1564185310126,['return'],0,303.65652684500674,303.65652684500674,[0.5339015450008446],,,,,,,,,,,,,,,,,,,,,,,,,,,,,,,,,,,,,,,,,,,,,yair,001,c,2019_Oct_10_1455,Experimento,3.2.3,60.32736099695835,
8,14,14,999,0.5,0:10,3,Cyan,['space'],0,0,1,20:50,./completed_changuitos/montage_ykwww_96.29_84.45.jpg,left,0,0,0,0,,,,,0,8,8,8,,,,,,,,,0,0,0,0,0,6,6,6,,,,,,,,,,,,,,,,,,,,,,,,,,,,,,,,305.655805227012,306.1557695040101,None,0,305.655805227012,305.655805227012,,,,,,,,,,,,,,,,,,,,,,,,,,,,,,,,,,,,,,,,,,,,,,yair,001,c,2019_Oct_10_1455,Experimento,3.2.3,60.32736099695835,
8,14,14,999,0.5,0:10,3,Magenta,None,0,0,1,20:50,./completed_changuitos/montage_ykwww_96.29_84.45.jpg,left,0,0,0,0,,,,,0,8,8,8,,,,,,,,,0,0,0,0,0,7,7,7,,,,,,,,,,,,,,,,,,,,,,,,,,,,,,,,307.63813360021015,None,None,1,307.63813360021015,None,,,,,,,,,,,,,,,,,,,,,,,,,,,,,,,,,,,,,,,,,,,,,,yair,001,c,2019_Oct_10_1455,Experimento,3.2.3,60.32736099695835,
8,14,14,999,0.5,0:10,3,Red,None,0,0,1,20:50,./completed_changuitos/montage_ykwww_96.29_84.45.jpg,left,0,0,0,0,,,,,0,8,8,8,,,,,,,,,0,0,0,0,0,8,8,8,,,,,,,,,,,,,,,,,,,,,,,,,,,,,,,,307.63813360021015,None,None,1,307.63813360021015,None,,,,,,,,,,,,,,,,,,,,,,,,,,,,,,,,,,,,,,,,,,,,,,yair,001,c,2019_Oct_10_1455,Experimento,3.2.3,60.32736099695835,
8,14,14,999,0.5,0:10,3,Magenta,['space'],0,0,1,20:50,./completed_changuitos/montage_ykwww_96.29_84.45.jpg,left,0,0,0,0,,,,,0,8,8,8,,,,,,,,,0,0,0,0,0,9,9,9,,,,,,,,,,,,,,,,,,,,,,,,,,,,,,,,307.63813360021015,None,None,0,307.63813360021015,None,,,,,,,,,,,,,,,,,,,,,,,,,,,,,,,,,,,,,,,,,,,,,,yair,001,c,2019_Oct_10_1455,Experimento,3.2.3,60.32736099695835,
8,14,14,999,0.5,0:10,3,Green,None,0,0,1,20:50,./completed_changuitos/montage_ykwww_96.29_84.45.jpg,left,0,0,0,0,,,,,0,8,8,8,,,,,,,,,0,0,0,0,0,10,10,10,,,,,,,,,,,,,,,,,,,,,,,,,,,,,,,,307.63813360021015,None,None,1,307.63813360021015,None,,,,,,,,,,,,,,,,,,,,,,,,,,,,,,,,,,,,,,,,,,,,,,yair,001,c,2019_Oct_10_1455,Experimento,3.2.3,60.32736099695835,
8,14,14,999,0.5,0:10,3,Yellow,['space'],0,0,1,20:50,./completed_changuitos/montage_ykwww_96.29_84.45.jpg,left,0,0,0,0,,,,,0,8,8,8,,,,,,,,,0,0,0,0,0,11,11,11,,,,,,,,,,,,,,,,,,,,,,,,,,,,,,,,307.63813360021015,None,None,0,307.63813360021015,None,,,,,,,,,,,,,,,,,,,,,,,,,,,,,,,,,,,,,,,,,,,,,,yair,001,c,2019_Oct_10_1455,Experimento,3.2.3,60.32736099695835,
8,14,14,999,0.5,0:10,3,Blue,None,0,0,1,20:50,./completed_changuitos/montage_ykwww_96.29_84.45.jpg,left,0,0,0,0,,,,,0,8,8,8,,,,,,,,,0,0,0,0,0,12,12,12,,,,,,,,,,,,,,,,,,,,,,,,,,,,,,,,307.63813360021015,None,None,1,307.63813360021015,None,,,,,,,,,,,,,,,,,,,,,,,,,,,,,,,,,,,,,,,,,,,,,,yair,001,c,2019_Oct_10_1455,Experimento,3.2.3,60.32736099695835,
8,14,14,999,0.5,0:10,3,Cyan,None,0,0,1,20:50,./completed_changuitos/montage_ykwww_96.29_84.45.jpg,left,0,0,0,0,,,,,0,8,8,8,,,,,,,,,0,0,0,0,0,13,13,13,,,,,,,,,,,,,,,,,,,,,,,,,,,,,,,,307.63813360021015,None,None,1,307.63813360021015,None,,,,,,,,,,,,,,,,,,,,,,,,,,,,,,,,,,,,,,,,,,,,,,yair,001,c,2019_Oct_10_1455,Experimento,3.2.3,60.32736099695835,
8,14,14,999,0.5,0:10,3,Blue,['space'],0,0,1,20:50,./completed_changuitos/montage_ykwww_96.29_84.45.jpg,left,0,0,0,0,,,,,0,8,8,8,,,,,,,,,0,0,0,0,0,14,14,14,,,,,,,,,,,,,,,,,,,,,,,,,,,,,,,,307.63813360021015,None,None,0,307.63813360021015,None,,,,,,,,,,,,,,,,,,,,,,,,,,,,,,,,,,,,,,,,,,,,,,yair,001,c,2019_Oct_10_1455,Experimento,3.2.3,60.32736099695835,
8,14,14,999,0.5,0:10,3,Yellow,None,0,0,1,20:50,./completed_changuitos/montage_ykwww_96.29_84.45.jpg,left,0,0,0,0,,,,,0,8,8,8,,,,,,,,,0,0,0,0,0,15,15,15,,,,,,,,,,,,,,,,,,,,,,,,,,,,,,,,307.63813360021015,None,None,1,307.63813360021015,None,,,,,,,,,,,,,,,,,,,,,,,,,,,,,,,,,,,,,,,,,,,,,,yair,001,c,2019_Oct_10_1455,Experimento,3.2.3,60.32736099695835,
8,14,14,999,0.5,0:10,3,Cyan,None,0,0,1,20:50,./completed_changuitos/montage_ykwww_96.29_84.45.jpg,left,0,0,0,0,,,,,0,8,8,8,,,,,,,,,0,0,0,0,0,16,16,16,,,,,,,,,,,,,,,,,,,,,,,,,,,,,,,,307.63813360021015,None,None,1,307.63813360021015,None,,,,,,,,,,,,,,,,,,,,,,,,,,,,,,,,,,,,,,,,,,,,,,yair,001,c,2019_Oct_10_1455,Experimento,3.2.3,60.32736099695835,
8,14,14,999,0.5,0:10,3,Yellow,['space'],0,0,1,20:50,./completed_changuitos/montage_ykwww_96.29_84.45.jpg,left,0,0,0,0,,,,,0,8,8,8,,,,,,,,,0,0,0,0,0,17,17,17,,,,,,,,,,,,,,,,,,,,,,,,,,,,,,,,307.63813360021015,None,None,0,307.63813360021015,None,,,,,,,,,,,,,,,,,,,,,,,,,,,,,,,,,,,,,,,,,,,,,,yair,001,c,2019_Oct_10_1455,Experimento,3.2.3,60.32736099695835,
8,14,14,999,0.5,0:10,3,Magenta,None,0,0,1,20:50,./completed_changuitos/montage_ykwww_96.29_84.45.jpg,left,0,0,0,0,,,,,0,8,8,8,,,,,,,,,0,0,0,0,0,18,18,18,,,,,,,,,,,,,,,,,,,,,,,,,,,,,,,,307.63813360021015,None,None,1,307.63813360021015,None,,,,,,,,,,,,,,,,,,,,,,,,,,,,,,,,,,,,,,,,,,,,,,yair,001,c,2019_Oct_10_1455,Experimento,3.2.3,60.32736099695835,
8,14,14,999,0.5,0:10,3,Red,None,0,0,1,20:50,./completed_changuitos/montage_ykwww_96.29_84.45.jpg,left,0,0,0,0,,,,,0,8,8,8,,,,,,,,,0,0,0,0,0,19,19,19,,,,,,,,,,,,,,,,,,,,,,,,,,,,,,,,307.63813360021015,None,None,1,307.63813360021015,None,,,,,,,,,,,,,,,,,,,,,,,,,,,,,,,,,,,,,,,,,,,,,,yair,001,c,2019_Oct_10_1455,Experimento,3.2.3,60.32736099695835,
8,14,14,999,0.5,0:10,3,Magenta,['space'],0,0,1,20:50,./completed_changuitos/montage_ykwww_96.29_84.45.jpg,left,0,0,0,0,,,,,0,8,8,8,,,,,,,,,0,0,0,0,0,20,20,20,,,,,,,,,,,,,,,,,,,,,,,,,,,,,,,,307.65474338741046,None,None,0,307.65474338741046,None,,,,,,,,,,,,,,,,,,,,,,,,,,,,,,,,,,,,,,,,,,,,,,yair,001,c,2019_Oct_10_1455,Experimento,3.2.3,60.32736099695835,
8,14,14,999,0.5,0:10,3,Red,['space'],0,0,1,20:50,./completed_changuitos/montage_ykwww_96.29_84.45.jpg,left,0,0,0,0,,,,,0,8,8,8,,,,,,,,,0,0,0,0,0,21,21,21,,,,,,,,,,,,,,,,,,,,,,,,,,,,,,,,307.65474338741046,None,None,0,307.65474338741046,None,,,,,,,,,,,,,,,,,,,,,,,,,,,,,,,,,,,,,,,,,,,,,,yair,001,c,2019_Oct_10_1455,Experimento,3.2.3,60.32736099695835,
8,14,14,999,0.5,0:10,3,Yellow,None,0,0,1,20:50,./completed_changuitos/montage_ykwww_96.29_84.45.jpg,left,0,0,0,0,,,,,0,8,8,8,,,,,,,,,0,0,0,0,0,22,22,22,,,,,,,,,,,,,,,,,,,,,,,,,,,,,,,,307.65474338741046,None,None,1,307.65474338741046,None,,,,,,,,,,,,,,,,,,,,,,,,,,,,,,,,,,,,,,,,,,,,,,yair,001,c,2019_Oct_10_1455,Experimento,3.2.3,60.32736099695835,
8,14,14,999,0.5,0:10,3,Cyan,None,0,0,1,20:50,./completed_changuitos/montage_ykwww_96.29_84.45.jpg,left,0,0,0,0,,,,,0,8,8,8,,,,,,,,,0,0,0,0,0,23,23,23,,,,,,,,,,,,,,,,,,,,,,,,,,,,,,,,307.65474338741046,None,None,1,307.65474338741046,None,,,,,,,,,,,,,,,,,,,,,,,,,,,,,,,,,,,,,,,,,,,,,,yair,001,c,2019_Oct_10_1455,Experimento,3.2.3,60.32736099695835,
8,14,14,999,0.5,0:10,3,Green,None,0,0,1,20:50,./completed_changuitos/montage_ykwww_96.29_84.45.jpg,left,0,0,0,0,,,,,0,8,8,8,,,,,,,,,0,0,0,0,0,24,24,24,,,,,,,,,,,,,,,,,,,,,,,,,,,,,,,,307.65474338741046,None,None,1,307.65474338741046,None,,,,,,,,,,,,,,,,,,,,,,,,,,,,,,,,,,,,,,,,,,,,,,yair,001,c,2019_Oct_10_1455,Experimento,3.2.3,60.32736099695835,
8,14,14,999,0.5,0:10,3,White,None,0,0,1,20:50,./completed_changuitos/montage_ykwww_96.29_84.45.jpg,left,0,0,0,0,,,,,0,8,8,8,,,,,,,,,0,0,0,0,0,25,25,25,,,,,,,,,,,,,,,,,,,,,,,,,,,,,,,,307.65474338741046,None,None,1,307.65474338741046,None,,,,,,,,,,,,,,,,,,,,,,,,,,,,,,,,,,,,,,,,,,,,,,yair,001,c,2019_Oct_10_1455,Experimento,3.2.3,60.32736099695835,
8,14,14,999,0.5,0:10,3,Green,['space'],0,0,1,20:50,./completed_changuitos/montage_ykwww_96.29_84.45.jpg,left,0,0,0,0,,,,,0,8,8,8,,,,,,,,,0,0,0,0,0,26,26,26,,,,,,,,,,,,,,,,,,,,,,,,,,,,,,,,307.65474338741046,None,None,0,307.65474338741046,None,,,,,,,,,,,,,,,,,,,,,,,,,,,,,,,,,,,,,,,,,,,,,,yair,001,c,2019_Oct_10_1455,Experimento,3.2.3,60.32736099695835,
8,14,14,999,0.5,0:10,3,Red,None,0,0,1,20:50,./completed_changuitos/montage_ykwww_96.29_84.45.jpg,left,0,0,0,0,,,,,0,8,8,8,,,,,,,,,0,0,0,0,0,27,27,27,,,,,,,,,,,,,,,,,,,,,,,,,,,,,,,,307.65474338741046,None,None,1,307.65474338741046,None,,,,,,,,,,,,,,,,,,,,,,,,,,,,,,,,,,,,,,,,,,,,,,yair,001,c,2019_Oct_10_1455,Experimento,3.2.3,60.32736099695835,
8,14,14,999,0.5,0:10,3,Blue,None,0,0,1,20:50,./completed_changuitos/montage_ykwww_96.29_84.45.jpg,left,0,0,0,0,,,,,0,8,8,8,,,,,,,,,0,0,0,0,0,28,28,28,,,,,,,,,,,,,,,,,,,,,,,,,,,,,,,,307.65474338741046,None,None,1,307.65474338741046,None,,,,,,,,,,,,,,,,,,,,,,,,,,,,,,,,,,,,,,,,,,,,,,yair,001,c,2019_Oct_10_1455,Experimento,3.2.3,60.32736099695835,
8,14,14,999,0.5,0:10,3,Green,None,0,0,1,20:50,./completed_changuitos/montage_ykwww_96.29_84.45.jpg,left,0,0,0,0,,,,,0,8,8,8,,,,,,,,,0,0,0,0,0,29,29,29,,,,,,,,,,,,,,,,,,,,,,,,,,,,,,,,307.65474338741046,None,None,1,307.65474338741046,None,,,,,,,,,,,,,,,,,,,,,,,,,,,,,,,,,,,,,,,,,,,,,,yair,001,c,2019_Oct_10_1455,Experimento,3.2.3,60.32736099695835,
8,14,14,999,0.5,0:10,3,,,0,0,1,20:50,./completed_changuitos/montage_ykwww_96.29_84.45.jpg,left,0,0,0,0,,,,,0,8,8,8,,,,,,,,,0,0,0,0,,,,,,,,,,,,,,,,,,,,,,,,,,,,,,,,,,,,,,,,,,,307.69690372901096,None,left,1,1.5910486789944116,307.69690372901096,None,307.69690372901096,None,,,,,,,,,,,,,,,,,,,,,,,,,,,,,,,,,,,,yair,001,c,2019_Oct_10_1455,Experimento,3.2.3,60.32736099695835,
8,14,14,999,0.5,0:10,3,,,0,0,1,20:50,,,0,0,0,0,,,,,0,8,8,8,,,,,,,,,,,,,,,,,,,,,,,,,,,,,,,,,,,,,,,,,,,,,,,,,,,,,,,,,,,,,,,,,,,,,,,,,,,,,,,,,,,,,,,,,,,,,,,,,,,yair,001,c,2019_Oct_10_1455,Experimento,3.2.3,60.32736099695835,
8,14,14,999,0.5,0:10,3,Yellow,None,0,0,1,15:50,./completed_changuitos/montage_xftjv_171.19_149.79.jpg,left,0,0,0,0,,,,,0,9,9,9,,,,,,,,,0,0,0,0,0,0,0,0,,,,,,,,,,,,,,,,,,,,,,,,,,,,309.40785687400785,312.30365894699935,312.30365894699935,None,320.34344801600673,320.8502929610113,None,1,320.34344801600673,None,,,,,,,,,,,,,,,,,,,,,,,,,,,,,,,,,,,,,,,,,,,,,,yair,001,c,2019_Oct_10_1455,Experimento,3.2.3,60.32736099695835,
8,14,14,999,0.5,0:10,3,White,['space'],0,0,1,15:50,./completed_changuitos/montage_xftjv_171.19_149.79.jpg,left,0,0,0,0,,,,,0,9,9,9,,,,,,,,,0,0,0,0,0,1,1,1,,,,,,,,,,,,,,,,,,,,,,,,,,,,,,,,322.3499883690092,322.8497826750099,None,0,322.3499883690092,322.3499883690092,,,,,,,,,,,,,,,,,,,,,,,,,,,,,,,,,,,,,,,,,,,,,,yair,001,c,2019_Oct_10_1455,Experimento,3.2.3,60.32736099695835,
8,14,14,999,0.5,0:10,3,Magenta,None,0,0,1,15:50,./completed_changuitos/montage_xftjv_171.19_149.79.jpg,left,0,0,0,0,,,,,0,9,9,9,,,,,,,,,0,0,0,0,0,2,2,2,,,,,,,,,,,,,,,,,,,,,,,,,,,,,,,,324.3494836230093,324.8493248450104,None,1,324.3494836230093,324.3494836230093,,,,,,,,,,,,,,,,,,,,,,,,,,,,,,,,,,,,,,,,,,,,,,yair,001,c,2019_Oct_10_1455,Experimento,3.2.3,60.32736099695835,
8,14,14,999,0.5,0:10,3,Cyan,None,0,0,1,15:50,./completed_changuitos/montage_xftjv_171.19_149.79.jpg,left,0,0,0,0,,,,,0,9,9,9,,,,,,,,,0,0,0,0,0,3,3,3,,,,,,,,,,,,,,,,,,,,,,,,,,,,,,,,326.348719763002,326.848290991009,['return'],0,326.348719763002,326.348719763002,[0.7667108839959837],,,,,,,,,,,,,,,,,,,,,,,,,,,,,,,,,,,,,,,,,,,,,yair,001,c,2019_Oct_10_1455,Experimento,3.2.3,60.32736099695835,
8,14,14,999,0.5,0:10,3,Blue,None,0,0,1,15:50,./completed_changuitos/montage_xftjv_171.19_149.79.jpg,left,0,0,0,0,,,,,0,9,9,9,,,,,,,,,0,0,0,0,0,4,4,4,,,,,,,,,,,,,,,,,,,,,,,,,,,,,,,,328.34787977499946,328.8479501850088,None,1,328.34787977499946,328.34787977499946,,,,,,,,,,,,,,,,,,,,,,,,,,,,,,,,,,,,,,,,,,,,,,yair,001,c,2019_Oct_10_1455,Experimento,3.2.3,60.32736099695835,
8,14,14,999,0.5,0:10,3,Magenta,None,0,0,1,15:50,./completed_changuitos/montage_xftjv_171.19_149.79.jpg,left,0,0,0,0,,,,,0,9,9,9,,,,,,,,,0,0,0,0,0,5,5,5,,,,,,,,,,,,,,,,,,,,,,,,,,,,,,,,330.3474461540027,330.84726408999995,['return'],0,330.3474461540027,330.3474461540027,[1.0169743040023604],,,,,,,,,,,,,,,,,,,,,,,,,,,,,,,,,,,,,,,,,,,,,yair,001,c,2019_Oct_10_1455,Experimento,3.2.3,60.32736099695835,
8,14,14,999,0.5,0:10,3,Blue,['space'],0,0,1,15:50,./completed_changuitos/montage_xftjv_171.19_149.79.jpg,left,0,0,0,0,,,,,0,9,9,9,,,,,,,,,0,0,0,0,0,6,6,6,,,,,,,,,,,,,,,,,,,,,,,,,,,,,,,,332.3466972330061,332.8465781810082,['return'],0,332.3466972330061,332.3466972330061,[1.2507761819870211],,,,,,,,,,,,,,,,,,,,,,,,,,,,,,,,,,,,,,,,,,,,,yair,001,c,2019_Oct_10_1455,Experimento,3.2.3,60.32736099695835,
8,14,14,999,0.5,0:10,3,Cyan,None,0,0,1,15:50,./completed_changuitos/montage_xftjv_171.19_149.79.jpg,left,0,0,0,0,,,,,0,9,9,9,,,,,,,,,0,0,0,0,0,7,7,7,,,,,,,,,,,,,,,,,,,,,,,,,,,,,,,,334.3293502522007,None,None,1,334.3293502522007,None,,,,,,,,,,,,,,,,,,,,,,,,,,,,,,,,,,,,,,,,,,,,,,yair,001,c,2019_Oct_10_1455,Experimento,3.2.3,60.32736099695835,
8,14,14,999,0.5,0:10,3,Yellow,None,0,0,1,15:50,./completed_changuitos/montage_xftjv_171.19_149.79.jpg,left,0,0,0,0,,,,,0,9,9,9,,,,,,,,,0,0,0,0,0,8,8,8,,,,,,,,,,,,,,,,,,,,,,,,,,,,,,,,334.3293502522007,None,None,1,334.3293502522007,None,,,,,,,,,,,,,,,,,,,,,,,,,,,,,,,,,,,,,,,,,,,,,,yair,001,c,2019_Oct_10_1455,Experimento,3.2.3,60.32736099695835,
8,14,14,999,0.5,0:10,3,Cyan,None,0,0,1,15:50,./completed_changuitos/montage_xftjv_171.19_149.79.jpg,left,0,0,0,0,,,,,0,9,9,9,,,,,,,,,0,0,0,0,0,9,9,9,,,,,,,,,,,,,,,,,,,,,,,,,,,,,,,,334.3293502522007,None,None,1,334.3293502522007,None,,,,,,,,,,,,,,,,,,,,,,,,,,,,,,,,,,,,,,,,,,,,,,yair,001,c,2019_Oct_10_1455,Experimento,3.2.3,60.32736099695835,
8,14,14,999,0.5,0:10,3,Blue,None,0,0,1,15:50,./completed_changuitos/montage_xftjv_171.19_149.79.jpg,left,0,0,0,0,,,,,0,9,9,9,,,,,,,,,0,0,0,0,0,10,10,10,,,,,,,,,,,,,,,,,,,,,,,,,,,,,,,,334.3293502522007,None,None,1,334.3293502522007,None,,,,,,,,,,,,,,,,,,,,,,,,,,,,,,,,,,,,,,,,,,,,,,yair,001,c,2019_Oct_10_1455,Experimento,3.2.3,60.32736099695835,
8,14,14,999,0.5,0:10,3,Cyan,['space'],0,0,1,15:50,./completed_changuitos/montage_xftjv_171.19_149.79.jpg,left,0,0,0,0,,,,,0,9,9,9,,,,,,,,,0,0,0,0,0,11,11,11,,,,,,,,,,,,,,,,,,,,,,,,,,,,,,,,334.345960039401,None,None,0,334.345960039401,None,,,,,,,,,,,,,,,,,,,,,,,,,,,,,,,,,,,,,,,,,,,,,,yair,001,c,2019_Oct_10_1455,Experimento,3.2.3,60.32736099695835,
8,14,14,999,0.5,0:10,3,Magenta,None,0,0,1,15:50,./completed_changuitos/montage_xftjv_171.19_149.79.jpg,left,0,0,0,0,,,,,0,9,9,9,,,,,,,,,0,0,0,0,0,12,12,12,,,,,,,,,,,,,,,,,,,,,,,,,,,,,,,,334.345960039401,None,None,1,334.345960039401,None,,,,,,,,,,,,,,,,,,,,,,,,,,,,,,,,,,,,,,,,,,,,,,yair,001,c,2019_Oct_10_1455,Experimento,3.2.3,60.32736099695835,
8,14,14,999,0.5,0:10,3,Red,None,0,0,1,15:50,./completed_changuitos/montage_xftjv_171.19_149.79.jpg,left,0,0,0,0,,,,,0,9,9,9,,,,,,,,,0,0,0,0,0,13,13,13,,,,,,,,,,,,,,,,,,,,,,,,,,,,,,,,334.345960039401,None,None,1,334.345960039401,None,,,,,,,,,,,,,,,,,,,,,,,,,,,,,,,,,,,,,,,,,,,,,,yair,001,c,2019_Oct_10_1455,Experimento,3.2.3,60.32736099695835,
8,14,14,999,0.5,0:10,3,Magenta,['space'],0,0,1,15:50,./completed_changuitos/montage_xftjv_171.19_149.79.jpg,left,0,0,0,0,,,,,0,9,9,9,,,,,,,,,0,0,0,0,0,14,14,14,,,,,,,,,,,,,,,,,,,,,,,,,,,,,,,,334.345960039401,None,None,0,334.345960039401,None,,,,,,,,,,,,,,,,,,,,,,,,,,,,,,,,,,,,,,,,,,,,,,yair,001,c,2019_Oct_10_1455,Experimento,3.2.3,60.32736099695835,
8,14,14,999,0.5,0:10,3,Green,None,0,0,1,15:50,./completed_changuitos/montage_xftjv_171.19_149.79.jpg,left,0,0,0,0,,,,,0,9,9,9,,,,,,,,,0,0,0,0,0,15,15,15,,,,,,,,,,,,,,,,,,,,,,,,,,,,,,,,334.345960039401,None,None,1,334.345960039401,None,,,,,,,,,,,,,,,,,,,,,,,,,,,,,,,,,,,,,,,,,,,,,,yair,001,c,2019_Oct_10_1455,Experimento,3.2.3,60.32736099695835,
8,14,14,999,0.5,0:10,3,Yellow,['space'],0,0,1,15:50,./completed_changuitos/montage_xftjv_171.19_149.79.jpg,left,0,0,0,0,,,,,0,9,9,9,,,,,,,,,0,0,0,0,0,16,16,16,,,,,,,,,,,,,,,,,,,,,,,,,,,,,,,,334.345960039401,None,None,0,334.345960039401,None,,,,,,,,,,,,,,,,,,,,,,,,,,,,,,,,,,,,,,,,,,,,,,yair,001,c,2019_Oct_10_1455,Experimento,3.2.3,60.32736099695835,
8,14,14,999,0.5,0:10,3,Blue,None,0,0,1,15:50,./completed_changuitos/montage_xftjv_171.19_149.79.jpg,left,0,0,0,0,,,,,0,9,9,9,,,,,,,,,0,0,0,0,0,17,17,17,,,,,,,,,,,,,,,,,,,,,,,,,,,,,,,,334.36256982660126,None,None,1,334.36256982660126,None,,,,,,,,,,,,,,,,,,,,,,,,,,,,,,,,,,,,,,,,,,,,,,yair,001,c,2019_Oct_10_1455,Experimento,3.2.3,60.32736099695835,
8,14,14,999,0.5,0:10,3,Cyan,None,0,0,1,15:50,./completed_changuitos/montage_xftjv_171.19_149.79.jpg,left,0,0,0,0,,,,,0,9,9,9,,,,,,,,,0,0,0,0,0,18,18,18,,,,,,,,,,,,,,,,,,,,,,,,,,,,,,,,334.36256982660126,None,None,1,334.36256982660126,None,,,,,,,,,,,,,,,,,,,,,,,,,,,,,,,,,,,,,,,,,,,,,,yair,001,c,2019_Oct_10_1455,Experimento,3.2.3,60.32736099695835,
8,14,14,999,0.5,0:10,3,Blue,['space'],0,0,1,15:50,./completed_changuitos/montage_xftjv_171.19_149.79.jpg,left,0,0,0,0,,,,,0,9,9,9,,,,,,,,,0,0,0,0,0,19,19,19,,,,,,,,,,,,,,,,,,,,,,,,,,,,,,,,334.36256982660126,None,None,0,334.36256982660126,None,,,,,,,,,,,,,,,,,,,,,,,,,,,,,,,,,,,,,,,,,,,,,,yair,001,c,2019_Oct_10_1455,Experimento,3.2.3,60.32736099695835,
8,14,14,999,0.5,0:10,3,Yellow,None,0,0,1,15:50,./completed_changuitos/montage_xftjv_171.19_149.79.jpg,left,0,0,0,0,,,,,0,9,9,9,,,,,,,,,0,0,0,0,0,20,20,20,,,,,,,,,,,,,,,,,,,,,,,,,,,,,,,,334.36256982660126,None,None,1,334.36256982660126,None,,,,,,,,,,,,,,,,,,,,,,,,,,,,,,,,,,,,,,,,,,,,,,yair,001,c,2019_Oct_10_1455,Experimento,3.2.3,60.32736099695835,
8,14,14,999,0.5,0:10,3,Cyan,None,0,0,1,15:50,./completed_changuitos/montage_xftjv_171.19_149.79.jpg,left,0,0,0,0,,,,,0,9,9,9,,,,,,,,,0,0,0,0,0,21,21,21,,,,,,,,,,,,,,,,,,,,,,,,,,,,,,,,334.36256982660126,None,None,1,334.36256982660126,None,,,,,,,,,,,,,,,,,,,,,,,,,,,,,,,,,,,,,,,,,,,,,,yair,001,c,2019_Oct_10_1455,Experimento,3.2.3,60.32736099695835,
8,14,14,999,0.5,0:10,3,Yellow,['space'],0,0,1,15:50,./completed_changuitos/montage_xftjv_171.19_149.79.jpg,left,0,0,0,0,,,,,0,9,9,9,,,,,,,,,0,0,0,0,0,22,22,22,,,,,,,,,,,,,,,,,,,,,,,,,,,,,,,,334.36256982660126,None,None,0,334.36256982660126,None,,,,,,,,,,,,,,,,,,,,,,,,,,,,,,,,,,,,,,,,,,,,,,yair,001,c,2019_Oct_10_1455,Experimento,3.2.3,60.32736099695835,
8,14,14,999,0.5,0:10,3,Magenta,None,0,0,1,15:50,./completed_changuitos/montage_xftjv_171.19_149.79.jpg,left,0,0,0,0,,,,,0,9,9,9,,,,,,,,,0,0,0,0,0,23,23,23,,,,,,,,,,,,,,,,,,,,,,,,,,,,,,,,334.36256982660126,None,None,1,334.36256982660126,None,,,,,,,,,,,,,,,,,,,,,,,,,,,,,,,,,,,,,,,,,,,,,,yair,001,c,2019_Oct_10_1455,Experimento,3.2.3,60.32736099695835,
8,14,14,999,0.5,0:10,3,Red,None,0,0,1,15:50,./completed_changuitos/montage_xftjv_171.19_149.79.jpg,left,0,0,0,0,,,,,0,9,9,9,,,,,,,,,0,0,0,0,0,24,24,24,,,,,,,,,,,,,,,,,,,,,,,,,,,,,,,,334.36256982660126,None,None,1,334.36256982660126,None,,,,,,,,,,,,,,,,,,,,,,,,,,,,,,,,,,,,,,,,,,,,,,yair,001,c,2019_Oct_10_1455,Experimento,3.2.3,60.32736099695835,
8,14,14,999,0.5,0:10,3,Magenta,['space'],0,0,1,15:50,./completed_changuitos/montage_xftjv_171.19_149.79.jpg,left,0,0,0,0,,,,,0,9,9,9,,,,,,,,,0,0,0,0,0,25,25,25,,,,,,,,,,,,,,,,,,,,,,,,,,,,,,,,334.36256982660126,None,None,0,334.36256982660126,None,,,,,,,,,,,,,,,,,,,,,,,,,,,,,,,,,,,,,,,,,,,,,,yair,001,c,2019_Oct_10_1455,Experimento,3.2.3,60.32736099695835,
8,14,14,999,0.5,0:10,3,Red,['space'],0,0,1,15:50,./completed_changuitos/montage_xftjv_171.19_149.79.jpg,left,0,0,0,0,,,,,0,9,9,9,,,,,,,,,0,0,0,0,0,26,26,26,,,,,,,,,,,,,,,,,,,,,,,,,,,,,,,,334.36256982660126,None,None,0,334.36256982660126,None,,,,,,,,,,,,,,,,,,,,,,,,,,,,,,,,,,,,,,,,,,,,,,yair,001,c,2019_Oct_10_1455,Experimento,3.2.3,60.32736099695835,
8,14,14,999,0.5,0:10,3,Yellow,None,0,0,1,15:50,./completed_changuitos/montage_xftjv_171.19_149.79.jpg,left,0,0,0,0,,,,,0,9,9,9,,,,,,,,,0,0,0,0,0,27,27,27,,,,,,,,,,,,,,,,,,,,,,,,,,,,,,,,334.36256982660126,None,None,1,334.36256982660126,None,,,,,,,,,,,,,,,,,,,,,,,,,,,,,,,,,,,,,,,,,,,,,,yair,001,c,2019_Oct_10_1455,Experimento,3.2.3,60.32736099695835,
8,14,14,999,0.5,0:10,3,Cyan,None,0,0,1,15:50,./completed_changuitos/montage_xftjv_171.19_149.79.jpg,left,0,0,0,0,,,,,0,9,9,9,,,,,,,,,0,0,0,0,0,28,28,28,,,,,,,,,,,,,,,,,,,,,,,,,,,,,,,,334.36256982660126,None,None,1,334.36256982660126,None,,,,,,,,,,,,,,,,,,,,,,,,,,,,,,,,,,,,,,,,,,,,,,yair,001,c,2019_Oct_10_1455,Experimento,3.2.3,60.32736099695835,
8,14,14,999,0.5,0:10,3,Green,None,0,0,1,15:50,./completed_changuitos/montage_xftjv_171.19_149.79.jpg,left,0,0,0,0,,,,,0,9,9,9,,,,,,,,,0,0,0,0,0,29,29,29,,,,,,,,,,,,,,,,,,,,,,,,,,,,,,,,334.37917961380157,None,None,1,334.37917961380157,None,,,,,,,,,,,,,,,,,,,,,,,,,,,,,,,,,,,,,,,,,,,,,,yair,001,c,2019_Oct_10_1455,Experimento,3.2.3,60.32736099695835,
8,14,14,999,0.5,0:10,3,White,None,0,0,1,15:50,./completed_changuitos/montage_xftjv_171.19_149.79.jpg,left,0,0,0,0,,,,,0,9,9,9,,,,,,,,,0,0,0,0,0,30,30,30,,,,,,,,,,,,,,,,,,,,,,,,,,,,,,,,334.37917961380157,None,None,1,334.37917961380157,None,,,,,,,,,,,,,,,,,,,,,,,,,,,,,,,,,,,,,,,,,,,,,,yair,001,c,2019_Oct_10_1455,Experimento,3.2.3,60.32736099695835,
8,14,14,999,0.5,0:10,3,Green,['space'],0,0,1,15:50,./completed_changuitos/montage_xftjv_171.19_149.79.jpg,left,0,0,0,0,,,,,0,9,9,9,,,,,,,,,0,0,0,0,0,31,31,31,,,,,,,,,,,,,,,,,,,,,,,,,,,,,,,,334.37917961380157,None,None,0,334.37917961380157,None,,,,,,,,,,,,,,,,,,,,,,,,,,,,,,,,,,,,,,,,,,,,,,yair,001,c,2019_Oct_10_1455,Experimento,3.2.3,60.32736099695835,
8,14,14,999,0.5,0:10,3,Red,None,0,0,1,15:50,./completed_changuitos/montage_xftjv_171.19_149.79.jpg,left,0,0,0,0,,,,,0,9,9,9,,,,,,,,,0,0,0,0,0,32,32,32,,,,,,,,,,,,,,,,,,,,,,,,,,,,,,,,334.37917961380157,None,None,1,334.37917961380157,None,,,,,,,,,,,,,,,,,,,,,,,,,,,,,,,,,,,,,,,,,,,,,,yair,001,c,2019_Oct_10_1455,Experimento,3.2.3,60.32736099695835,
8,14,14,999,0.5,0:10,3,Blue,None,0,0,1,15:50,./completed_changuitos/montage_xftjv_171.19_149.79.jpg,left,0,0,0,0,,,,,0,9,9,9,,,,,,,,,0,0,0,0,0,33,33,33,,,,,,,,,,,,,,,,,,,,,,,,,,,,,,,,334.37917961380157,None,None,1,334.37917961380157,None,,,,,,,,,,,,,,,,,,,,,,,,,,,,,,,,,,,,,,,,,,,,,,yair,001,c,2019_Oct_10_1455,Experimento,3.2.3,60.32736099695835,
8,14,14,999,0.5,0:10,3,Green,None,0,0,1,15:50,./completed_changuitos/montage_xftjv_171.19_149.79.jpg,left,0,0,0,0,,,,,0,9,9,9,,,,,,,,,0,0,0,0,0,34,34,34,,,,,,,,,,,,,,,,,,,,,,,,,,,,,,,,334.37917961380157,None,None,1,334.37917961380157,None,,,,,,,,,,,,,,,,,,,,,,,,,,,,,,,,,,,,,,,,,,,,,,yair,001,c,2019_Oct_10_1455,Experimento,3.2.3,60.32736099695835,
8,14,14,999,0.5,0:10,3,,,0,0,1,15:50,./completed_changuitos/montage_xftjv_171.19_149.79.jpg,left,0,0,0,0,,,,,0,9,9,9,,,,,,,,,0,0,0,0,,,,,,,,,,,,,,,,,,,,,,,,,,,,,,,,,,,,,,,,,,,334.4127809690108,None,left,1,0.8828447220003,334.4127809690108,None,334.4127809690108,None,,,,,,,,,,,,,,,,,,,,,,,,,,,,,,,,,,,,yair,001,c,2019_Oct_10_1455,Experimento,3.2.3,60.32736099695835,
8,14,14,999,0.5,0:10,3,,,0,0,1,15:50,,,0,0,0,0,,,,,0,9,9,9,,,,,,,,,,,,,,,,,,,,,,,,,,,,,,,,,,,,,,,,,,,,,,,,,,,,,,,,,,,,,,,,,,,,,,,,,,,,,,,,,,,,,,,,,,,,,,,,,,,yair,001,c,2019_Oct_10_1455,Experimento,3.2.3,60.32736099695835,
8,14,14,999,0.5,0:10,3,,,0,1,0,25:50,./completed_changuitos/montage_hzpyp_56.7_64.19.jpg,right,0,0,0,0,,,,,0,10,10,10,,,,,0,0,0,0,,,,,,,,,,,,,,,,,,,,,335.4375300200045,336.94541754901,336.94541754901,344.959111425007,344.959111425007,358.97058717500477,left,0,1.0175944650109159,358.97058717500477,None,358.97058717500477,None,358.97058717500477,None,,,,,,,,,,,,,,,,,,,,,,,,,,,,,,,,,,,,,,,,,,,,,,,,,,,,,,,,yair,001,c,2019_Oct_10_1455,Experimento,3.2.3,60.32736099695835,
8,14,14,999,0.5,0:10,3,,,0,1,0,25:50,,,0,0,0,0,,,,,0,10,10,10,,,,,,,,,,,,,,,,,,,,,,,,,,,,,,,,,,,,,,,,,,,,,,,,,,,,,,,,,,,,,,,,,,,,,,,,,,,,,,,,,,,,,,,,,,,,,,,,,,,yair,001,c,2019_Oct_10_1455,Experimento,3.2.3,60.32736099695835,
8,14,14,999,0.5,0:10,3,Red,None,0,0,1,28:50,./completed_changuitos/montage_helqc_71.19_61.95.jpg,left,0,0,0,0,,,,,0,11,11,11,,,,,,,,,0,0,0,0,0,0,0,0,,,,,,,,,,,,,,,,,,,,,,,,,,,,360.13607160899846,361.45352052000817,361.45352052000817,None,369.4957480800076,370.00018896500114,None,1,369.4957480800076,None,,,,,,,,,,,,,,,,,,,,,,,,,,,,,,,,,,,,,,,,,,,,,,yair,001,c,2019_Oct_10_1455,Experimento,3.2.3,60.32736099695835,
8,14,14,999,0.5,0:10,3,Magenta,['space'],0,0,1,28:50,./completed_changuitos/montage_helqc_71.19_61.95.jpg,left,0,0,0,0,,,,,0,11,11,11,,,,,,,,,0,0,0,0,0,1,1,1,,,,,,,,,,,,,,,,,,,,,,,,,,,,,,,,371.4999132590019,371.99961955600884,None,0,371.4999132590019,371.4999132590019,,,,,,,,,,,,,,,,,,,,,,,,,,,,,,,,,,,,,,,,,,,,,,yair,001,c,2019_Oct_10_1455,Experimento,3.2.3,60.32736099695835,
8,14,14,999,0.5,0:10,3,Green,None,0,0,1,28:50,./completed_changuitos/montage_helqc_71.19_61.95.jpg,left,0,0,0,0,,,,,0,11,11,11,,,,,,,,,0,0,0,0,0,2,2,2,,,,,,,,,,,,,,,,,,,,,,,,,,,,,,,,373.4994546700036,373.99920133600244,None,1,373.4994546700036,373.4994546700036,,,,,,,,,,,,,,,,,,,,,,,,,,,,,,,,,,,,,,,,,,,,,,yair,001,c,2019_Oct_10_1455,Experimento,3.2.3,60.32736099695835,
8,14,14,999,0.5,0:10,3,Yellow,['space'],0,0,1,28:50,./completed_changuitos/montage_helqc_71.19_61.95.jpg,left,0,0,0,0,,,,,0,11,11,11,,,,,,,,,0,0,0,0,0,3,3,3,,,,,,,,,,,,,,,,,,,,,,,,,,,,,,,,375.498615679011,375.99850321801205,None,0,375.498615679011,375.498615679011,,,,,,,,,,,,,,,,,,,,,,,,,,,,,,,,,,,,,,,,,,,,,,yair,001,c,2019_Oct_10_1455,Experimento,3.2.3,60.32736099695835,
8,14,14,999,0.5,0:10,3,Blue,None,0,0,1,28:50,./completed_changuitos/montage_helqc_71.19_61.95.jpg,left,0,0,0,0,,,,,0,11,11,11,,,,,,,,,0,0,0,0,0,4,4,4,,,,,,,,,,,,,,,,,,,,,,,,,,,,,,,,377.4979705290025,377.9978014110093,None,1,377.4979705290025,377.4979705290025,,,,,,,,,,,,,,,,,,,,,,,,,,,,,,,,,,,,,,,,,,,,,,yair,001,c,2019_Oct_10_1455,Experimento,3.2.3,60.32736099695835,
8,14,14,999,0.5,0:10,3,Cyan,None,0,0,1,28:50,./completed_changuitos/montage_helqc_71.19_61.95.jpg,left,0,0,0,0,,,,,0,11,11,11,,,,,,,,,0,0,0,0,0,5,5,5,,,,,,,,,,,,,,,,,,,,,,,,,,,,,,,,379.4972496940027,379.9971265089989,None,1,379.4972496940027,379.4972496940027,,,,,,,,,,,,,,,,,,,,,,,,,,,,,,,,,,,,,,,,,,,,,,yair,001,c,2019_Oct_10_1455,Experimento,3.2.3,60.32736099695835,
8,14,14,999,0.5,0:10,3,Blue,['space'],0,0,1,28:50,./completed_changuitos/montage_helqc_71.19_61.95.jpg,left,0,0,0,0,,,,,0,11,11,11,,,,,,,,,0,0,0,0,0,6,6,6,,,,,,,,,,,,,,,,,,,,,,,,,,,,,,,,381.49657199700596,381.9964359290025,['return'],0,381.49657199700596,381.49657199700596,[1.0502301040105522],,,,,,,,,,,,,,,,,,,,,,,,,,,,,,,,,,,,,,,,,,,,,yair,001,c,2019_Oct_10_1455,Experimento,3.2.3,60.32736099695835,
8,14,14,999,0.5,0:10,3,Yellow,None,0,0,1,28:50,./completed_changuitos/montage_helqc_71.19_61.95.jpg,left,0,0,0,0,,,,,0,11,11,11,,,,,,,,,0,0,0,0,0,7,7,7,,,,,,,,,,,,,,,,,,,,,,,,,,,,,,,,383.4792076052123,None,None,1,383.4792076052123,None,,,,,,,,,,,,,,,,,,,,,,,,,,,,,,,,,,,,,,,,,,,,,,yair,001,c,2019_Oct_10_1455,Experimento,3.2.3,60.32736099695835,
8,14,14,999,0.5,0:10,3,Cyan,None,0,0,1,28:50,./completed_changuitos/montage_helqc_71.19_61.95.jpg,left,0,0,0,0,,,,,0,11,11,11,,,,,,,,,0,0,0,0,0,8,8,8,,,,,,,,,,,,,,,,,,,,,,,,,,,,,,,,383.4792076052123,None,None,1,383.4792076052123,None,,,,,,,,,,,,,,,,,,,,,,,,,,,,,,,,,,,,,,,,,,,,,,yair,001,c,2019_Oct_10_1455,Experimento,3.2.3,60.32736099695835,
8,14,14,999,0.5,0:10,3,Yellow,['space'],0,0,1,28:50,./completed_changuitos/montage_helqc_71.19_61.95.jpg,left,0,0,0,0,,,,,0,11,11,11,,,,,,,,,0,0,0,0,0,9,9,9,,,,,,,,,,,,,,,,,,,,,,,,,,,,,,,,383.4792076052123,None,None,0,383.4792076052123,None,,,,,,,,,,,,,,,,,,,,,,,,,,,,,,,,,,,,,,,,,,,,,,yair,001,c,2019_Oct_10_1455,Experimento,3.2.3,60.32736099695835,
8,14,14,999,0.5,0:10,3,Magenta,None,0,0,1,28:50,./completed_changuitos/montage_helqc_71.19_61.95.jpg,left,0,0,0,0,,,,,0,11,11,11,,,,,,,,,0,0,0,0,0,10,10,10,,,,,,,,,,,,,,,,,,,,,,,,,,,,,,,,383.4792076052123,None,None,1,383.4792076052123,None,,,,,,,,,,,,,,,,,,,,,,,,,,,,,,,,,,,,,,,,,,,,,,yair,001,c,2019_Oct_10_1455,Experimento,3.2.3,60.32736099695835,
8,14,14,999,0.5,0:10,3,Red,None,0,0,1,28:50,./completed_changuitos/montage_helqc_71.19_61.95.jpg,left,0,0,0,0,,,,,0,11,11,11,,,,,,,,,0,0,0,0,0,11,11,11,,,,,,,,,,,,,,,,,,,,,,,,,,,,,,,,383.4958173924126,None,None,1,383.4958173924126,None,,,,,,,,,,,,,,,,,,,,,,,,,,,,,,,,,,,,,,,,,,,,,,yair,001,c,2019_Oct_10_1455,Experimento,3.2.3,60.32736099695835,
8,14,14,999,0.5,0:10,3,Magenta,['space'],0,0,1,28:50,./completed_changuitos/montage_helqc_71.19_61.95.jpg,left,0,0,0,0,,,,,0,11,11,11,,,,,,,,,0,0,0,0,0,12,12,12,,,,,,,,,,,,,,,,,,,,,,,,,,,,,,,,383.4958173924126,None,None,0,383.4958173924126,None,,,,,,,,,,,,,,,,,,,,,,,,,,,,,,,,,,,,,,,,,,,,,,yair,001,c,2019_Oct_10_1455,Experimento,3.2.3,60.32736099695835,
8,14,14,999,0.5,0:10,3,Red,['space'],0,0,1,28:50,./completed_changuitos/montage_helqc_71.19_61.95.jpg,left,0,0,0,0,,,,,0,11,11,11,,,,,,,,,0,0,0,0,0,13,13,13,,,,,,,,,,,,,,,,,,,,,,,,,,,,,,,,383.4958173924126,None,None,0,383.4958173924126,None,,,,,,,,,,,,,,,,,,,,,,,,,,,,,,,,,,,,,,,,,,,,,,yair,001,c,2019_Oct_10_1455,Experimento,3.2.3,60.32736099695835,
8,14,14,999,0.5,0:10,3,Yellow,None,0,0,1,28:50,./completed_changuitos/montage_helqc_71.19_61.95.jpg,left,0,0,0,0,,,,,0,11,11,11,,,,,,,,,0,0,0,0,0,14,14,14,,,,,,,,,,,,,,,,,,,,,,,,,,,,,,,,383.4958173924126,None,None,1,383.4958173924126,None,,,,,,,,,,,,,,,,,,,,,,,,,,,,,,,,,,,,,,,,,,,,,,yair,001,c,2019_Oct_10_1455,Experimento,3.2.3,60.32736099695835,
8,14,14,999,0.5,0:10,3,Cyan,None,0,0,1,28:50,./completed_changuitos/montage_helqc_71.19_61.95.jpg,left,0,0,0,0,,,,,0,11,11,11,,,,,,,,,0,0,0,0,0,15,15,15,,,,,,,,,,,,,,,,,,,,,,,,,,,,,,,,383.4958173924126,None,None,1,383.4958173924126,None,,,,,,,,,,,,,,,,,,,,,,,,,,,,,,,,,,,,,,,,,,,,,,yair,001,c,2019_Oct_10_1455,Experimento,3.2.3,60.32736099695835,
8,14,14,999,0.5,0:10,3,Green,None,0,0,1,28:50,./completed_changuitos/montage_helqc_71.19_61.95.jpg,left,0,0,0,0,,,,,0,11,11,11,,,,,,,,,0,0,0,0,0,16,16,16,,,,,,,,,,,,,,,,,,,,,,,,,,,,,,,,383.4958173924126,None,None,1,383.4958173924126,None,,,,,,,,,,,,,,,,,,,,,,,,,,,,,,,,,,,,,,,,,,,,,,yair,001,c,2019_Oct_10_1455,Experimento,3.2.3,60.32736099695835,
8,14,14,999,0.5,0:10,3,White,None,0,0,1,28:50,./completed_changuitos/montage_helqc_71.19_61.95.jpg,left,0,0,0,0,,,,,0,11,11,11,,,,,,,,,0,0,0,0,0,17,17,17,,,,,,,,,,,,,,,,,,,,,,,,,,,,,,,,383.4958173924126,None,None,1,383.4958173924126,None,,,,,,,,,,,,,,,,,,,,,,,,,,,,,,,,,,,,,,,,,,,,,,yair,001,c,2019_Oct_10_1455,Experimento,3.2.3,60.32736099695835,
8,14,14,999,0.5,0:10,3,Green,['space'],0,0,1,28:50,./completed_changuitos/montage_helqc_71.19_61.95.jpg,left,0,0,0,0,,,,,0,11,11,11,,,,,,,,,0,0,0,0,0,18,18,18,,,,,,,,,,,,,,,,,,,,,,,,,,,,,,,,383.4958173924126,None,None,0,383.4958173924126,None,,,,,,,,,,,,,,,,,,,,,,,,,,,,,,,,,,,,,,,,,,,,,,yair,001,c,2019_Oct_10_1455,Experimento,3.2.3,60.32736099695835,
8,14,14,999,0.5,0:10,3,Red,None,0,0,1,28:50,./completed_changuitos/montage_helqc_71.19_61.95.jpg,left,0,0,0,0,,,,,0,11,11,11,,,,,,,,,0,0,0,0,0,19,19,19,,,,,,,,,,,,,,,,,,,,,,,,,,,,,,,,383.4958173924126,None,None,1,383.4958173924126,None,,,,,,,,,,,,,,,,,,,,,,,,,,,,,,,,,,,,,,,,,,,,,,yair,001,c,2019_Oct_10_1455,Experimento,3.2.3,60.32736099695835,
8,14,14,999,0.5,0:10,3,Blue,None,0,0,1,28:50,./completed_changuitos/montage_helqc_71.19_61.95.jpg,left,0,0,0,0,,,,,0,11,11,11,,,,,,,,,0,0,0,0,0,20,20,20,,,,,,,,,,,,,,,,,,,,,,,,,,,,,,,,383.4958173924126,None,None,1,383.4958173924126,None,,,,,,,,,,,,,,,,,,,,,,,,,,,,,,,,,,,,,,,,,,,,,,yair,001,c,2019_Oct_10_1455,Experimento,3.2.3,60.32736099695835,
8,14,14,999,0.5,0:10,3,Green,None,0,0,1,28:50,./completed_changuitos/montage_helqc_71.19_61.95.jpg,left,0,0,0,0,,,,,0,11,11,11,,,,,,,,,0,0,0,0,0,21,21,21,,,,,,,,,,,,,,,,,,,,,,,,,,,,,,,,383.4958173924126,None,None,1,383.4958173924126,None,,,,,,,,,,,,,,,,,,,,,,,,,,,,,,,,,,,,,,,,,,,,,,yair,001,c,2019_Oct_10_1455,Experimento,3.2.3,60.32736099695835,
8,14,14,999,0.5,0:10,3,,,0,0,1,28:50,./completed_changuitos/montage_helqc_71.19_61.95.jpg,left,0,0,0,0,,,,,0,11,11,11,,,,,,,,,0,0,0,0,,,,,,,,,,,,,,,,,,,,,,,,,,,,,,,,,,,,,,,,,,,383.54112979500496,None,right,0,1.2375341919978382,383.54112979500496,None,383.54112979500496,None,,,,,,,,,,,,,,,,,,,,,,,,,,,,,,,,,,,,yair,001,c,2019_Oct_10_1455,Experimento,3.2.3,60.32736099695835,
8,14,14,999,0.5,0:10,3,,,0,0,1,28:50,,,0,0,0,0,,,,,0,11,11,11,,,,,,,,,,,,,,,,,,,,,,,,,,,,,,,,,,,,,,,,,,,,,,,,,,,,,,,,,,,,,,,,,,,,,,,,,,,,,,,,,,,,,,,,,,,,,,,,,,,yair,001,c,2019_Oct_10_1455,Experimento,3.2.3,60.32736099695835,
8,14,14,999,0.5,0:10,3,,,1,0,0,30:50,./completed_changuitos/montage_danwk_64.09_75.0.jpg,right,0,0,0,0,,,,,0,12,12,12,0,0,0,0,,,,,,,,,,,,,,,,,,,,,,,,,,,,,,,,,,,,,,,,,,,,,,,,,,,,,,,,,,,,385.3786429360043,386.74446453400014,386.74446453400014,394.75875612899836,left,0,1.5832689550006762,394.75875612899836,None,394.75875612899836,None,394.75875612899836,None,,,,,,,,,,,,,,,,,,,,,,,yair,001,c,2019_Oct_10_1455,Experimento,3.2.3,60.32736099695835,
8,14,14,999,0.5,0:10,3,,,1,0,0,30:50,,,0,0,0,0,,,,,0,12,12,12,,,,,,,,,,,,,,,,,,,,,,,,,,,,,,,,,,,,,,,,,,,,,,,,,,,,,,,,,,,,,,,,,,,,,,,,,,,,,,,,,,,,,,,,,,,,,,,,,,,yair,001,c,2019_Oct_10_1455,Experimento,3.2.3,60.32736099695835,
8,14,14,999,0.5,0:10,3,,,1,0,0,32:50,./completed_changuitos/montage_bccbx_48.15_54.6.jpg,right,0,0,0,0,,,,,0,13,13,13,0,0,0,0,,,,,,,,,,,,,,,,,,,,,,,,,,,,,,,,,,,,,,,,,,,,,,,,,,,,,,,,,,,,396.9913073970092,397.9243452510127,397.9243452510127,405.93826703500235,right,1,1.3010613030055538,405.93826703500235,None,405.93826703500235,None,405.93826703500235,None,,,,,,,,,,,,,,,,,,,,,,,yair,001,c,2019_Oct_10_1455,Experimento,3.2.3,60.32736099695835,
8,14,14,999,0.5,0:10,3,,,1,0,0,32:50,,,0,0,0,0,,,,,0,13,13,13,,,,,,,,,,,,,,,,,,,,,,,,,,,,,,,,,,,,,,,,,,,,,,,,,,,,,,,,,,,,,,,,,,,,,,,,,,,,,,,,,,,,,,,,,,,,,,,,,,,yair,001,c,2019_Oct_10_1455,Experimento,3.2.3,60.32736099695835,
8,14,14,999,0.5,0:10,3,,,1,0,0,34:50,./completed_changuitos/montage_hpsmc_101.65_90.95.jpg,left,0,0,0,0,,,,,0,14,14,14,0,0,0,0,,,,,,,,,,,,,,,,,,,,,,,,,,,,,,,,,,,,,,,,,,,,,,,,,,,,,,,,,,,,407.8875820530084,408.7369067980035,408.7369067980035,416.7512365540024,right,0,1.2855367989977822,416.7512365540024,None,416.7512365540024,None,416.7512365540024,None,,,,,,,,,,,,,,,,,,,,,,,yair,001,c,2019_Oct_10_1455,Experimento,3.2.3,60.32736099695835,
8,14,14,999,0.5,0:10,3,,,1,0,0,34:50,,,0,0,0,0,,,,,0,14,14,14,,,,,,,,,,,,,,,,,,,,,,,,,,,,,,,,,,,,,,,,,,,,,,,,,,,,,,,,,,,,,,,,,,,,,,,,,,,,,,,,,,,,,,,,,,,,,,,,,,,yair,001,c,2019_Oct_10_1455,Experimento,3.2.3,60.32736099695835,
8,14,14,999,0.5,0:10,3,,,1,0,0,30:50,./completed_changuitos/montage_qutcx_384.15_334.9.jpg,left,0,0,0,0,,,,,0,15,15,15,0,0,0,0,,,,,,,,,,,,,,,,,,,,,,,,,,,,,,,,,,,,,,,,,,,,,,,,,,,,,,,,,,,,418.7001421349996,419.9999505330052,419.9999505330052,428.01404451200506,left,1,1.1676083549973555,428.01404451200506,None,428.01404451200506,None,428.01404451200506,None,,,,,,,,,,,,,,,,,,,,,,,yair,001,c,2019_Oct_10_1455,Experimento,3.2.3,60.32736099695835,
8,14,14,999,0.5,0:10,3,,,1,0,0,30:50,,,0,0,0,0,,,,,0,15,15,15,,,,,,,,,,,,,,,,,,,,,,,,,,,,,,,,,,,,,,,,,,,,,,,,,,,,,,,,,,,,,,,,,,,,,,,,,,,,,,,,,,,,,,,,,,,,,,,,,,,yair,001,c,2019_Oct_10_1455,Experimento,3.2.3,60.32736099695835,
8,14,14,999,0.5,0:10,3,,,1,0,0,32:50,./completed_changuitos/montage_usdgf_469.9_410.19.jpg,left,0,0,0,0,,,,,0,16,16,16,0,0,0,0,,,,,,,,,,,,,,,,,,,,,,,,,,,,,,,,,,,,,,,,,,,,,,,,,,,,,,,,,,,,429.82991651800694,430.8630936929985,430.8630936929985,438.87698927000747,left,1,0.8162089590041433,438.87698927000747,None,438.87698927000747,None,438.87698927000747,None,,,,,,,,,,,,,,,,,,,,,,,yair,001,c,2019_Oct_10_1455,Experimento,3.2.3,60.32736099695835,
8,14,14,999,0.5,0:10,3,,,1,0,0,32:50,,,0,0,0,0,,,,,0,16,16,16,,,,,,,,,,,,,,,,,,,,,,,,,,,,,,,,,,,,,,,,,,,,,,,,,,,,,,,,,,,,,,,,,,,,,,,,,,,,,,,,,,,,,,,,,,,,,,,,,,,yair,001,c,2019_Oct_10_1455,Experimento,3.2.3,60.32736099695835,
8,14,14,999,0.5,0:10,3,,,1,0,0,34:50,./completed_changuitos/montage_uulje_192.59_167.45.jpg,left,0,0,0,0,,,,,0,17,17,17,0,0,0,0,,,,,,,,,,,,,,,,,,,,,,,,,,,,,,,,,,,,,,,,,,,,,,,,,,,,,,,,,,,,440.30980043200543,441.259551095005,441.259551095005,449.2734439920023,right,0,1.0327897050010506,449.2734439920023,None,449.2734439920023,None,449.2734439920023,None,,,,,,,,,,,,,,,,,,,,,,,yair,001,c,2019_Oct_10_1455,Experimento,3.2.3,60.32736099695835,
8,14,14,999,0.5,0:10,3,,,1,0,0,34:50,,,0,0,0,0,,,,,0,17,17,17,,,,,,,,,,,,,,,,,,,,,,,,,,,,,,,,,,,,,,,,,,,,,,,,,,,,,,,,,,,,,,,,,,,,,,,,,,,,,,,,,,,,,,,,,,,,,,,,,,,yair,001,c,2019_Oct_10_1455,Experimento,3.2.3,60.32736099695835,
8,14,14,999,0.5,0:10,3,,,,,,,,,0,0,0,0,,,,,,,,,,,,,,,,,,,,,,,,,,,,,,,,,,,,,,,,,,,,,,,,,,,,,,,,,,,,,,,,,,,,,,,,,,,,,,,,,,,,,450.3528141200077,453.03881009601173,1,6.681617366004502,453.03881009601173,None,453.03881009601173,None,b,8.16605727300339,459.73629354999866,None,459.73629354999866,None,459.73629354999866,None,467.9167552900035,None,7,4.565989882990834,467.9167552900035,None,yair,001,c,2019_Oct_10_1455,Experimento,3.2.3,60.32736099695835,
