changuito_time_to_show,time_to_think,time_to_play,total_items,nback_stimulus_time,nback_training,time_to_show_tiny_stimulus,colourtest,corresp,inmediato,consciente,inconsciente,nback_slice,imagen,correcta,trials_5.thisRepN,trials_5.thisTrialN,trials_5.thisN,trials_5.thisIndex,nback_train.thisRepN,nback_train.thisTrialN,nback_train.thisN,nback_train.thisIndex,treatment_order.thisRepN,treatment_order.thisTrialN,treatment_order.thisN,treatment_order.thisIndex,trials.thisRepN,trials.thisTrialN,trials.thisN,trials.thisIndex,trials_2.thisRepN,trials_2.thisTrialN,trials_2.thisN,trials_2.thisIndex,trials_3.thisRepN,trials_3.thisTrialN,trials_3.thisN,trials_3.thisIndex,trials_4.thisRepN,trials_4.thisTrialN,trials_4.thisN,trials_4.thisIndex,Presentacion.started,Presentacion.stopped,Juego.started,Juego.stopped,image_6.started,image_6.stopped,polygon.started,polygon.stopped,nback_train_resp.keys,nback_train_resp.corr,nback_train_resp.started,nback_train_resp.stopped,nback_train_resp.rt,holi.started,holi.stopped,image_3.started,image_3.stopped,polygon_2.started,polygon_2.stopped,nback_train_resp_2.keys,nback_train_resp_2.corr,nback_train_resp_2.started,nback_train_resp_2.stopped,nback_train_resp_2.rt,text_2.started,text_2.stopped,key_resp.keys,key_resp.corr,key_resp.rt,key_resp.started,key_resp.stopped,image_5.started,image_5.stopped,hola.started,hola.stopped,image_2.started,image_2.stopped,tiempo_para_pensar.started,tiempo_para_pensar.stopped,respuesta_consciente.keys,respuesta_consciente.corr,respuesta_consciente.rt,respuesta_consciente.started,respuesta_consciente.stopped,cual_es_la_mas_barata.started,cual_es_la_mas_barata.stopped,image_4.started,image_4.stopped,text.started,text.stopped,image.started,image.stopped,respuesta_inmediato.keys,respuesta_inmediato.corr,respuesta_inmediato.rt,respuesta_inmediato.started,respuesta_inmediato.stopped,pregunta_cual_es_el_mas_barato.started,pregunta_cual_es_el_mas_barato.stopped,short_stim1.started,short_stim1.stopped,gracias.started,gracias.stopped,respuesta1.keys,respuesta1.rt,respuesta1.started,respuesta1.stopped,pregunta1.started,pregunta1.stopped,respuesta3bis_3.keys,respuesta3bis_3.rt,respuesta3bis_3.started,respuesta3bis_3.stopped,pregunta3_3.started,pregunta3_3.stopped,productoCon3RANGOSabc_3.started,productoCon3RANGOSabc_3.stopped,text_3.started,text_3.stopped,key_resp_2.keys,key_resp_2.rt,key_resp_2.started,key_resp_2.stopped,participant,session,group,date,expName,psychopyVersion,frameRate,
8,14,14,999,0.5,0:10,3,White,None,,,,,,,0,0,0,0,0,0,0,0,,,,,,,,,,,,,,,,,,,,,42.63243965699803,None,59.99045168601151,None,59.99045168601151,None,83.44757141500304,83.949210013001,None,1,83.44757141500304,None,,,,,,,,,,,,,,,,,,,,,,,,,,,,,,,,,,,,,,,,,,,,,,,,,,,,,,,,,,,,,,,,,,,,,,,,agusV,001,d,2019_Oct_10_1335,Experimento,3.2.3,60.02040117180178,
8,14,14,999,0.5,0:10,3,Red,None,,,,,,,0,0,0,0,0,1,1,1,,,,,,,,,,,,,,,,,,,,,,,,,,,85.45180649400572,85.96479336600169,None,1,85.45180649400572,85.45180649400572,,,,,,,,,,,,,,,,,,,,,,,,,,,,,,,,,,,,,,,,,,,,,,,,,,,,,,,,,,,,,,,,,,,,,,,,agusV,001,d,2019_Oct_10_1335,Experimento,3.2.3,60.02040117180178,
8,14,14,999,0.5,0:10,3,Magenta,None,,,,,,,0,0,0,0,0,2,2,2,,,,,,,,,,,,,,,,,,,,,,,,,,,87.46459943700756,87.96453933700104,None,1,87.46459943700756,87.46459943700756,,,,,,,,,,,,,,,,,,,,,,,,,,,,,,,,,,,,,,,,,,,,,,,,,,,,,,,,,,,,,,,,,,,,,,,,agusV,001,d,2019_Oct_10_1335,Experimento,3.2.3,60.02040117180178,
8,14,14,999,0.5,0:10,3,Cyan,None,,,,,,,0,0,0,0,0,3,3,3,,,,,,,,,,,,,,,,,,,,,,,,,,,89.46400367699971,89.96346289401117,None,1,89.46400367699971,89.46400367699971,,,,,,,,,,,,,,,,,,,,,,,,,,,,,,,,,,,,,,,,,,,,,,,,,,,,,,,,,,,,,,,,,,,,,,,,agusV,001,d,2019_Oct_10_1335,Experimento,3.2.3,60.02040117180178,
8,14,14,999,0.5,0:10,3,Magenta,['space'],,,,,,,0,0,0,0,0,4,4,4,,,,,,,,,,,,,,,,,,,,,,,,,,,91.462935226009,91.96276159500121,['return'],0,91.462935226009,91.462935226009,[0.6684667700028513],,,,,,,,,,,,,,,,,,,,,,,,,,,,,,,,,,,,,,,,,,,,,,,,,,,,,,,,,,,,,,,,,,,,,,,agusV,001,d,2019_Oct_10_1335,Experimento,3.2.3,60.02040117180178,
8,14,14,999,0.5,0:10,3,Green,None,,,,,,,0,0,0,0,0,5,5,5,,,,,,,,,,,,,,,,,,,,,,,,,,,93.46247963899805,93.96245895999891,None,1,93.46247963899805,93.46247963899805,,,,,,,,,,,,,,,,,,,,,,,,,,,,,,,,,,,,,,,,,,,,,,,,,,,,,,,,,,,,,,,,,,,,,,,,agusV,001,d,2019_Oct_10_1335,Experimento,3.2.3,60.02040117180178,
8,14,14,999,0.5,0:10,3,White,None,,,,,,,0,0,0,0,0,6,6,6,,,,,,,,,,,,,,,,,,,,,,,,,,,95.46195585600799,95.96159836099832,['return'],0,95.46195585600799,95.46195585600799,[0.8495569630031241],,,,,,,,,,,,,,,,,,,,,,,,,,,,,,,,,,,,,,,,,,,,,,,,,,,,,,,,,,,,,,,,,,,,,,,agusV,001,d,2019_Oct_10_1335,Experimento,3.2.3,60.02040117180178,
8,14,14,999,0.5,0:10,3,Green,['space'],,,,,,,0,0,0,0,0,7,7,7,,,,,,,,,,,,,,,,,,,,,,,,,,,97.46121339900128,97.96109190100105,None,0,97.46121339900128,97.46121339900128,,,,,,,,,,,,,,,,,,,,,,,,,,,,,,,,,,,,,,,,,,,,,,,,,,,,,,,,,,,,,,,,,,,,,,,,agusV,001,d,2019_Oct_10_1335,Experimento,3.2.3,60.02040117180178,
8,14,14,999,0.5,0:10,3,Blue,None,,,,,,,0,0,0,0,0,8,8,8,,,,,,,,,,,,,,,,,,,,,,,,,,,99.47684881099849,99.9770697930071,None,1,99.47684881099849,99.47684881099849,,,,,,,,,,,,,,,,,,,,,,,,,,,,,,,,,,,,,,,,,,,,,,,,,,,,,,,,,,,,,,,,,,,,,,,,agusV,001,d,2019_Oct_10_1335,Experimento,3.2.3,60.02040117180178,
8,14,14,999,0.5,0:10,3,Green,['space'],,,,,,,0,0,0,0,0,9,9,9,,,,,,,,,,,,,,,,,,,,,,,,,,,101.4762701580039,101.97640463399875,['return'],0,101.4762701580039,101.4762701580039,[0.7668494279932929],,,,,,,,,,,,,,,,,,,,,,,,,,,,,,,,,,,,,,,,,,,,,,,,,,,,,,,,,,,,,,,,,,,,,,,agusV,001,d,2019_Oct_10_1335,Experimento,3.2.3,60.02040117180178,
8,14,14,999,0.5,0:10,3,Magenta,None,0,0,1,20:50,./completed_changuitos/montage_sdwtw_314.59_369.0.jpg,right,0,0,0,0,,,,,0,0,0,0,,,,,,,,,0,0,0,0,0,0,0,0,,,,,,,,,,,,,,103.58484736501123,114.22300729500421,114.22300729500421,None,122.24098017500364,122.75219817100151,None,1,122.24098017500364,None,,,,,,,,,,,,,,,,,,,,,,,,,,,,,,,,,,,,,,,,,,,,,,,,,,,,,,,,,,,,,agusV,001,d,2019_Oct_10_1335,Experimento,3.2.3,60.02040117180178,
8,14,14,999,0.5,0:10,3,Blue,['space'],0,0,1,20:50,./completed_changuitos/montage_sdwtw_314.59_369.0.jpg,right,0,0,0,0,,,,,0,0,0,0,,,,,,,,,0,0,0,0,0,1,1,1,,,,,,,,,,,,,,,,,,124.25174454601074,124.7519274570077,None,0,124.25174454601074,124.25174454601074,,,,,,,,,,,,,,,,,,,,,,,,,,,,,,,,,,,,,,,,,,,,,,,,,,,,,,,,,,,,,agusV,001,d,2019_Oct_10_1335,Experimento,3.2.3,60.02040117180178,
8,14,14,999,0.5,0:10,3,Cyan,None,0,0,1,20:50,./completed_changuitos/montage_sdwtw_314.59_369.0.jpg,right,0,0,0,0,,,,,0,0,0,0,,,,,,,,,0,0,0,0,0,2,2,2,,,,,,,,,,,,,,,,,,126.25142918201163,126.75124869300635,None,1,126.25142918201163,126.25142918201163,,,,,,,,,,,,,,,,,,,,,,,,,,,,,,,,,,,,,,,,,,,,,,,,,,,,,,,,,,,,,agusV,001,d,2019_Oct_10_1335,Experimento,3.2.3,60.02040117180178,
8,14,14,999,0.5,0:10,3,Yellow,None,0,0,1,20:50,./completed_changuitos/montage_sdwtw_314.59_369.0.jpg,right,0,0,0,0,,,,,0,0,0,0,,,,,,,,,0,0,0,0,0,3,3,3,,,,,,,,,,,,,,,,,,128.25065938199987,128.75059019400214,None,1,128.25065938199987,128.25065938199987,,,,,,,,,,,,,,,,,,,,,,,,,,,,,,,,,,,,,,,,,,,,,,,,,,,,,,,,,,,,,agusV,001,d,2019_Oct_10_1335,Experimento,3.2.3,60.02040117180178,
8,14,14,999,0.5,0:10,3,Cyan,None,0,0,1,20:50,./completed_changuitos/montage_sdwtw_314.59_369.0.jpg,right,0,0,0,0,,,,,0,0,0,0,,,,,,,,,0,0,0,0,0,4,4,4,,,,,,,,,,,,,,,,,,130.25005705900548,130.7499254650029,None,1,130.25005705900548,130.25005705900548,,,,,,,,,,,,,,,,,,,,,,,,,,,,,,,,,,,,,,,,,,,,,,,,,,,,,,,,,,,,,agusV,001,d,2019_Oct_10_1335,Experimento,3.2.3,60.02040117180178,
8,14,14,999,0.5,0:10,3,Blue,None,0,0,1,20:50,./completed_changuitos/montage_sdwtw_314.59_369.0.jpg,right,0,0,0,0,,,,,0,0,0,0,,,,,,,,,0,0,0,0,0,5,5,5,,,,,,,,,,,,,,,,,,132.24927862700133,132.7488264010026,None,1,132.24927862700133,132.24927862700133,,,,,,,,,,,,,,,,,,,,,,,,,,,,,,,,,,,,,,,,,,,,,,,,,,,,,,,,,,,,,agusV,001,d,2019_Oct_10_1335,Experimento,3.2.3,60.02040117180178,
8,14,14,999,0.5,0:10,3,Cyan,['space'],0,0,1,20:50,./completed_changuitos/montage_sdwtw_314.59_369.0.jpg,right,0,0,0,0,,,,,0,0,0,0,,,,,,,,,0,0,0,0,0,6,6,6,,,,,,,,,,,,,,,,,,134.2486315510032,134.74855302801006,['return'],0,134.2486315510032,134.2486315510032,[0.46721813100157306],,,,,,,,,,,,,,,,,,,,,,,,,,,,,,,,,,,,,,,,,,,,,,,,,,,,,,,,,,,,agusV,001,d,2019_Oct_10_1335,Experimento,3.2.3,60.02040117180178,
8,14,14,999,0.5,0:10,3,Magenta,None,0,0,1,20:50,./completed_changuitos/montage_sdwtw_314.59_369.0.jpg,right,0,0,0,0,,,,,0,0,0,0,,,,,,,,,0,0,0,0,0,7,7,7,,,,,,,,,,,,,,,,,,136.24799680300202,None,None,1,136.24799680300202,None,,,,,,,,,,,,,,,,,,,,,,,,,,,,,,,,,,,,,,,,,,,,,,,,,,,,,,,,,,,,,agusV,001,d,2019_Oct_10_1335,Experimento,3.2.3,60.02040117180178,
8,14,14,999,0.5,0:10,3,Red,None,0,0,1,20:50,./completed_changuitos/montage_sdwtw_314.59_369.0.jpg,right,0,0,0,0,,,,,0,0,0,0,,,,,,,,,0,0,0,0,0,8,8,8,,,,,,,,,,,,,,,,,,136.24799680300202,None,None,1,136.24799680300202,None,,,,,,,,,,,,,,,,,,,,,,,,,,,,,,,,,,,,,,,,,,,,,,,,,,,,,,,,,,,,,agusV,001,d,2019_Oct_10_1335,Experimento,3.2.3,60.02040117180178,
8,14,14,999,0.5,0:10,3,Magenta,['space'],0,0,1,20:50,./completed_changuitos/montage_sdwtw_314.59_369.0.jpg,right,0,0,0,0,,,,,0,0,0,0,,,,,,,,,0,0,0,0,0,9,9,9,,,,,,,,,,,,,,,,,,136.24799680300202,None,None,0,136.24799680300202,None,,,,,,,,,,,,,,,,,,,,,,,,,,,,,,,,,,,,,,,,,,,,,,,,,,,,,,,,,,,,,agusV,001,d,2019_Oct_10_1335,Experimento,3.2.3,60.02040117180178,
8,14,14,999,0.5,0:10,3,Green,None,0,0,1,20:50,./completed_changuitos/montage_sdwtw_314.59_369.0.jpg,right,0,0,0,0,,,,,0,0,0,0,,,,,,,,,0,0,0,0,0,10,10,10,,,,,,,,,,,,,,,,,,136.24799680300202,None,None,1,136.24799680300202,None,,,,,,,,,,,,,,,,,,,,,,,,,,,,,,,,,,,,,,,,,,,,,,,,,,,,,,,,,,,,,agusV,001,d,2019_Oct_10_1335,Experimento,3.2.3,60.02040117180178,
8,14,14,999,0.5,0:10,3,Yellow,['space'],0,0,1,20:50,./completed_changuitos/montage_sdwtw_314.59_369.0.jpg,right,0,0,0,0,,,,,0,0,0,0,,,,,,,,,0,0,0,0,0,11,11,11,,,,,,,,,,,,,,,,,,136.26465458200255,None,None,0,136.26465458200255,None,,,,,,,,,,,,,,,,,,,,,,,,,,,,,,,,,,,,,,,,,,,,,,,,,,,,,,,,,,,,,agusV,001,d,2019_Oct_10_1335,Experimento,3.2.3,60.02040117180178,
8,14,14,999,0.5,0:10,3,Blue,None,0,0,1,20:50,./completed_changuitos/montage_sdwtw_314.59_369.0.jpg,right,0,0,0,0,,,,,0,0,0,0,,,,,,,,,0,0,0,0,0,12,12,12,,,,,,,,,,,,,,,,,,136.26465458200255,None,None,1,136.26465458200255,None,,,,,,,,,,,,,,,,,,,,,,,,,,,,,,,,,,,,,,,,,,,,,,,,,,,,,,,,,,,,,agusV,001,d,2019_Oct_10_1335,Experimento,3.2.3,60.02040117180178,
8,14,14,999,0.5,0:10,3,Cyan,None,0,0,1,20:50,./completed_changuitos/montage_sdwtw_314.59_369.0.jpg,right,0,0,0,0,,,,,0,0,0,0,,,,,,,,,0,0,0,0,0,13,13,13,,,,,,,,,,,,,,,,,,136.26465458200255,None,None,1,136.26465458200255,None,,,,,,,,,,,,,,,,,,,,,,,,,,,,,,,,,,,,,,,,,,,,,,,,,,,,,,,,,,,,,agusV,001,d,2019_Oct_10_1335,Experimento,3.2.3,60.02040117180178,
8,14,14,999,0.5,0:10,3,Blue,['space'],0,0,1,20:50,./completed_changuitos/montage_sdwtw_314.59_369.0.jpg,right,0,0,0,0,,,,,0,0,0,0,,,,,,,,,0,0,0,0,0,14,14,14,,,,,,,,,,,,,,,,,,136.26465458200255,None,None,0,136.26465458200255,None,,,,,,,,,,,,,,,,,,,,,,,,,,,,,,,,,,,,,,,,,,,,,,,,,,,,,,,,,,,,,agusV,001,d,2019_Oct_10_1335,Experimento,3.2.3,60.02040117180178,
8,14,14,999,0.5,0:10,3,Yellow,None,0,0,1,20:50,./completed_changuitos/montage_sdwtw_314.59_369.0.jpg,right,0,0,0,0,,,,,0,0,0,0,,,,,,,,,0,0,0,0,0,15,15,15,,,,,,,,,,,,,,,,,,136.26465458200255,None,None,1,136.26465458200255,None,,,,,,,,,,,,,,,,,,,,,,,,,,,,,,,,,,,,,,,,,,,,,,,,,,,,,,,,,,,,,agusV,001,d,2019_Oct_10_1335,Experimento,3.2.3,60.02040117180178,
8,14,14,999,0.5,0:10,3,Cyan,None,0,0,1,20:50,./completed_changuitos/montage_sdwtw_314.59_369.0.jpg,right,0,0,0,0,,,,,0,0,0,0,,,,,,,,,0,0,0,0,0,16,16,16,,,,,,,,,,,,,,,,,,136.26465458200255,None,None,1,136.26465458200255,None,,,,,,,,,,,,,,,,,,,,,,,,,,,,,,,,,,,,,,,,,,,,,,,,,,,,,,,,,,,,,agusV,001,d,2019_Oct_10_1335,Experimento,3.2.3,60.02040117180178,
8,14,14,999,0.5,0:10,3,Yellow,['space'],0,0,1,20:50,./completed_changuitos/montage_sdwtw_314.59_369.0.jpg,right,0,0,0,0,,,,,0,0,0,0,,,,,,,,,0,0,0,0,0,17,17,17,,,,,,,,,,,,,,,,,,136.28131236100307,None,None,0,136.28131236100307,None,,,,,,,,,,,,,,,,,,,,,,,,,,,,,,,,,,,,,,,,,,,,,,,,,,,,,,,,,,,,,agusV,001,d,2019_Oct_10_1335,Experimento,3.2.3,60.02040117180178,
8,14,14,999,0.5,0:10,3,Magenta,None,0,0,1,20:50,./completed_changuitos/montage_sdwtw_314.59_369.0.jpg,right,0,0,0,0,,,,,0,0,0,0,,,,,,,,,0,0,0,0,0,18,18,18,,,,,,,,,,,,,,,,,,136.28131236100307,None,None,1,136.28131236100307,None,,,,,,,,,,,,,,,,,,,,,,,,,,,,,,,,,,,,,,,,,,,,,,,,,,,,,,,,,,,,,agusV,001,d,2019_Oct_10_1335,Experimento,3.2.3,60.02040117180178,
8,14,14,999,0.5,0:10,3,Red,None,0,0,1,20:50,./completed_changuitos/montage_sdwtw_314.59_369.0.jpg,right,0,0,0,0,,,,,0,0,0,0,,,,,,,,,0,0,0,0,0,19,19,19,,,,,,,,,,,,,,,,,,136.28131236100307,None,None,1,136.28131236100307,None,,,,,,,,,,,,,,,,,,,,,,,,,,,,,,,,,,,,,,,,,,,,,,,,,,,,,,,,,,,,,agusV,001,d,2019_Oct_10_1335,Experimento,3.2.3,60.02040117180178,
8,14,14,999,0.5,0:10,3,Magenta,['space'],0,0,1,20:50,./completed_changuitos/montage_sdwtw_314.59_369.0.jpg,right,0,0,0,0,,,,,0,0,0,0,,,,,,,,,0,0,0,0,0,20,20,20,,,,,,,,,,,,,,,,,,136.28131236100307,None,None,0,136.28131236100307,None,,,,,,,,,,,,,,,,,,,,,,,,,,,,,,,,,,,,,,,,,,,,,,,,,,,,,,,,,,,,,agusV,001,d,2019_Oct_10_1335,Experimento,3.2.3,60.02040117180178,
8,14,14,999,0.5,0:10,3,Red,['space'],0,0,1,20:50,./completed_changuitos/montage_sdwtw_314.59_369.0.jpg,right,0,0,0,0,,,,,0,0,0,0,,,,,,,,,0,0,0,0,0,21,21,21,,,,,,,,,,,,,,,,,,136.28131236100307,None,None,0,136.28131236100307,None,,,,,,,,,,,,,,,,,,,,,,,,,,,,,,,,,,,,,,,,,,,,,,,,,,,,,,,,,,,,,agusV,001,d,2019_Oct_10_1335,Experimento,3.2.3,60.02040117180178,
8,14,14,999,0.5,0:10,3,Yellow,None,0,0,1,20:50,./completed_changuitos/montage_sdwtw_314.59_369.0.jpg,right,0,0,0,0,,,,,0,0,0,0,,,,,,,,,0,0,0,0,0,22,22,22,,,,,,,,,,,,,,,,,,136.28131236100307,None,None,1,136.28131236100307,None,,,,,,,,,,,,,,,,,,,,,,,,,,,,,,,,,,,,,,,,,,,,,,,,,,,,,,,,,,,,,agusV,001,d,2019_Oct_10_1335,Experimento,3.2.3,60.02040117180178,
8,14,14,999,0.5,0:10,3,Cyan,None,0,0,1,20:50,./completed_changuitos/montage_sdwtw_314.59_369.0.jpg,right,0,0,0,0,,,,,0,0,0,0,,,,,,,,,0,0,0,0,0,23,23,23,,,,,,,,,,,,,,,,,,136.28131236100307,None,None,1,136.28131236100307,None,,,,,,,,,,,,,,,,,,,,,,,,,,,,,,,,,,,,,,,,,,,,,,,,,,,,,,,,,,,,,agusV,001,d,2019_Oct_10_1335,Experimento,3.2.3,60.02040117180178,
8,14,14,999,0.5,0:10,3,Green,None,0,0,1,20:50,./completed_changuitos/montage_sdwtw_314.59_369.0.jpg,right,0,0,0,0,,,,,0,0,0,0,,,,,,,,,0,0,0,0,0,24,24,24,,,,,,,,,,,,,,,,,,136.28131236100307,None,None,1,136.28131236100307,None,,,,,,,,,,,,,,,,,,,,,,,,,,,,,,,,,,,,,,,,,,,,,,,,,,,,,,,,,,,,,agusV,001,d,2019_Oct_10_1335,Experimento,3.2.3,60.02040117180178,
8,14,14,999,0.5,0:10,3,White,None,0,0,1,20:50,./completed_changuitos/montage_sdwtw_314.59_369.0.jpg,right,0,0,0,0,,,,,0,0,0,0,,,,,,,,,0,0,0,0,0,25,25,25,,,,,,,,,,,,,,,,,,136.28131236100307,None,None,1,136.28131236100307,None,,,,,,,,,,,,,,,,,,,,,,,,,,,,,,,,,,,,,,,,,,,,,,,,,,,,,,,,,,,,,agusV,001,d,2019_Oct_10_1335,Experimento,3.2.3,60.02040117180178,
8,14,14,999,0.5,0:10,3,Green,['space'],0,0,1,20:50,./completed_changuitos/montage_sdwtw_314.59_369.0.jpg,right,0,0,0,0,,,,,0,0,0,0,,,,,,,,,0,0,0,0,0,26,26,26,,,,,,,,,,,,,,,,,,136.28131236100307,None,None,0,136.28131236100307,None,,,,,,,,,,,,,,,,,,,,,,,,,,,,,,,,,,,,,,,,,,,,,,,,,,,,,,,,,,,,,agusV,001,d,2019_Oct_10_1335,Experimento,3.2.3,60.02040117180178,
8,14,14,999,0.5,0:10,3,Red,None,0,0,1,20:50,./completed_changuitos/montage_sdwtw_314.59_369.0.jpg,right,0,0,0,0,,,,,0,0,0,0,,,,,,,,,0,0,0,0,0,27,27,27,,,,,,,,,,,,,,,,,,136.28131236100307,None,None,1,136.28131236100307,None,,,,,,,,,,,,,,,,,,,,,,,,,,,,,,,,,,,,,,,,,,,,,,,,,,,,,,,,,,,,,agusV,001,d,2019_Oct_10_1335,Experimento,3.2.3,60.02040117180178,
8,14,14,999,0.5,0:10,3,Blue,None,0,0,1,20:50,./completed_changuitos/montage_sdwtw_314.59_369.0.jpg,right,0,0,0,0,,,,,0,0,0,0,,,,,,,,,0,0,0,0,0,28,28,28,,,,,,,,,,,,,,,,,,136.28131236100307,None,None,1,136.28131236100307,None,,,,,,,,,,,,,,,,,,,,,,,,,,,,,,,,,,,,,,,,,,,,,,,,,,,,,,,,,,,,,agusV,001,d,2019_Oct_10_1335,Experimento,3.2.3,60.02040117180178,
8,14,14,999,0.5,0:10,3,Green,None,0,0,1,20:50,./completed_changuitos/montage_sdwtw_314.59_369.0.jpg,right,0,0,0,0,,,,,0,0,0,0,,,,,,,,,0,0,0,0,0,29,29,29,,,,,,,,,,,,,,,,,,136.28131236100307,None,None,1,136.28131236100307,None,,,,,,,,,,,,,,,,,,,,,,,,,,,,,,,,,,,,,,,,,,,,,,,,,,,,,,,,,,,,,agusV,001,d,2019_Oct_10_1335,Experimento,3.2.3,60.02040117180178,
8,14,14,999,0.5,0:10,3,,,0,0,1,20:50,./completed_changuitos/montage_sdwtw_314.59_369.0.jpg,right,0,0,0,0,,,,,0,0,0,0,,,,,,,,,0,0,0,0,,,,,,,,,,,,,,,,,,,,,,,,,,,,,136.32816986400576,None,left,0,3.151108222999028,136.32816986400576,None,136.32816986400576,139.33031986901187,,,,,,,,,,,,,,,,,,,,,,,,,,,,,,,,,,,,,,,,,,,,,,,,,,,agusV,001,d,2019_Oct_10_1335,Experimento,3.2.3,60.02040117180178,
8,14,14,999,0.5,0:10,3,,,0,0,1,20:50,,,0,0,0,0,,,,,0,0,0,0,,,,,,,,,,,,,,,,,,,,,,,,,,,,,,,,,,,,,,,,,,,,,,,,,,,,,,,,,,,,,,,,,,,,,,,,,,,,,,,,,,,,,,,,,,,,,,,,,,,,agusV,001,d,2019_Oct_10_1335,Experimento,3.2.3,60.02040117180178,
8,14,14,999,0.5,0:10,3,,,0,1,0,10:50,./completed_changuitos/montage_weksd_579.0_509.35.jpg,left,0,0,0,0,,,,,0,1,1,1,,,,,0,0,0,0,,,,,,,,,,,,,,,,,,,,,,,,,,,,,,,,,,,,,,,,,,139.6499967109994,147.91068387401174,147.91068387401174,155.92461362799804,155.92461362799804,169.9361489340081,right,0,2.100198325002566,169.9361489340081,None,169.9361489340081,None,169.9361489340081,None,,,,,,,,,,,,,,,,,,,,,,,,,,,,,,,,,,,,agusV,001,d,2019_Oct_10_1335,Experimento,3.2.3,60.02040117180178,
8,14,14,999,0.5,0:10,3,,,0,1,0,10:50,,,0,0,0,0,,,,,0,1,1,1,,,,,,,,,,,,,,,,,,,,,,,,,,,,,,,,,,,,,,,,,,,,,,,,,,,,,,,,,,,,,,,,,,,,,,,,,,,,,,,,,,,,,,,,,,,,,,,,,,,,agusV,001,d,2019_Oct_10_1335,Experimento,3.2.3,60.02040117180178,
8,14,14,999,0.5,0:10,3,,,0,1,0,25:50,./completed_changuitos/montage_yptju_84.55_97.39.jpg,right,0,0,0,0,,,,,0,2,2,2,,,,,0,0,0,0,,,,,,,,,,,,,,,,,,,,,,,,,,,,,,,,,,,,,,,,,,172.18995467299828,175.0014070890029,175.0014070890029,183.01533640301204,183.01533640301204,197.02722753300623,left,0,1.6833415490109473,197.02722753300623,None,197.02722753300623,None,197.02722753300623,None,,,,,,,,,,,,,,,,,,,,,,,,,,,,,,,,,,,,agusV,001,d,2019_Oct_10_1335,Experimento,3.2.3,60.02040117180178,
8,14,14,999,0.5,0:10,3,,,0,1,0,25:50,,,0,0,0,0,,,,,0,2,2,2,,,,,,,,,,,,,,,,,,,,,,,,,,,,,,,,,,,,,,,,,,,,,,,,,,,,,,,,,,,,,,,,,,,,,,,,,,,,,,,,,,,,,,,,,,,,,,,,,,,,agusV,001,d,2019_Oct_10_1335,Experimento,3.2.3,60.02040117180178,
8,14,14,999,0.5,0:10,3,Yellow,None,0,0,1,15:50,./completed_changuitos/montage_djeez_90.99_79.19.jpg,left,0,0,0,0,,,,,0,3,3,3,,,,,,,,,0,0,0,0,0,0,0,0,,,,,,,,,,,,,,198.84628216300916,204.04149599000812,204.04149599000812,None,212.0839247660042,212.58855215800577,None,1,212.0839247660042,None,,,,,,,,,,,,,,,,,,,,,,,,,,,,,,,,,,,,,,,,,,,,,,,,,,,,,,,,,,,,,agusV,001,d,2019_Oct_10_1335,Experimento,3.2.3,60.02040117180178,
8,14,14,999,0.5,0:10,3,White,['space'],0,0,1,15:50,./completed_changuitos/montage_djeez_90.99_79.19.jpg,left,0,0,0,0,,,,,0,3,3,3,,,,,,,,,0,0,0,0,0,1,1,1,,,,,,,,,,,,,,,,,,214.08796910000092,214.58789126800548,None,0,214.08796910000092,214.08796910000092,,,,,,,,,,,,,,,,,,,,,,,,,,,,,,,,,,,,,,,,,,,,,,,,,,,,,,,,,,,,,agusV,001,d,2019_Oct_10_1335,Experimento,3.2.3,60.02040117180178,
8,14,14,999,0.5,0:10,3,Magenta,None,0,0,1,15:50,./completed_changuitos/montage_djeez_90.99_79.19.jpg,left,0,0,0,0,,,,,0,3,3,3,,,,,,,,,0,0,0,0,0,2,2,2,,,,,,,,,,,,,,,,,,216.08736739501182,216.58720615701168,None,1,216.08736739501182,216.08736739501182,,,,,,,,,,,,,,,,,,,,,,,,,,,,,,,,,,,,,,,,,,,,,,,,,,,,,,,,,,,,,agusV,001,d,2019_Oct_10_1335,Experimento,3.2.3,60.02040117180178,
8,14,14,999,0.5,0:10,3,Cyan,None,0,0,1,15:50,./completed_changuitos/montage_djeez_90.99_79.19.jpg,left,0,0,0,0,,,,,0,3,3,3,,,,,,,,,0,0,0,0,0,3,3,3,,,,,,,,,,,,,,,,,,218.08664027400664,218.58656633200007,None,1,218.08664027400664,218.08664027400664,,,,,,,,,,,,,,,,,,,,,,,,,,,,,,,,,,,,,,,,,,,,,,,,,,,,,,,,,,,,,agusV,001,d,2019_Oct_10_1335,Experimento,3.2.3,60.02040117180178,
8,14,14,999,0.5,0:10,3,Blue,None,0,0,1,15:50,./completed_changuitos/montage_djeez_90.99_79.19.jpg,left,0,0,0,0,,,,,0,3,3,3,,,,,,,,,0,0,0,0,0,4,4,4,,,,,,,,,,,,,,,,,,220.08594511900446,220.58582311301143,None,1,220.08594511900446,220.08594511900446,,,,,,,,,,,,,,,,,,,,,,,,,,,,,,,,,,,,,,,,,,,,,,,,,,,,,,,,,,,,,agusV,001,d,2019_Oct_10_1335,Experimento,3.2.3,60.02040117180178,
8,14,14,999,0.5,0:10,3,Magenta,None,0,0,1,15:50,./completed_changuitos/montage_djeez_90.99_79.19.jpg,left,0,0,0,0,,,,,0,3,3,3,,,,,,,,,0,0,0,0,0,5,5,5,,,,,,,,,,,,,,,,,,222.08526318400982,222.58477562500047,['return'],0,222.08526318400982,222.08526318400982,[0.5496769650053466],,,,,,,,,,,,,,,,,,,,,,,,,,,,,,,,,,,,,,,,,,,,,,,,,,,,,,,,,,,,agusV,001,d,2019_Oct_10_1335,Experimento,3.2.3,60.02040117180178,
8,14,14,999,0.5,0:10,3,Blue,['space'],0,0,1,15:50,./completed_changuitos/montage_djeez_90.99_79.19.jpg,left,0,0,0,0,,,,,0,3,3,3,,,,,,,,,0,0,0,0,0,6,6,6,,,,,,,,,,,,,,,,,,224.08451819101174,224.58448250401125,None,0,224.08451819101174,224.08451819101174,,,,,,,,,,,,,,,,,,,,,,,,,,,,,,,,,,,,,,,,,,,,,,,,,,,,,,,,,,,,,agusV,001,d,2019_Oct_10_1335,Experimento,3.2.3,60.02040117180178,
8,14,14,999,0.5,0:10,3,Cyan,None,0,0,1,15:50,./completed_changuitos/montage_djeez_90.99_79.19.jpg,left,0,0,0,0,,,,,0,3,3,3,,,,,,,,,0,0,0,0,0,7,7,7,,,,,,,,,,,,,,,,,,226.06729430999985,None,None,1,226.06729430999985,None,,,,,,,,,,,,,,,,,,,,,,,,,,,,,,,,,,,,,,,,,,,,,,,,,,,,,,,,,,,,,agusV,001,d,2019_Oct_10_1335,Experimento,3.2.3,60.02040117180178,
8,14,14,999,0.5,0:10,3,Yellow,None,0,0,1,15:50,./completed_changuitos/montage_djeez_90.99_79.19.jpg,left,0,0,0,0,,,,,0,3,3,3,,,,,,,,,0,0,0,0,0,8,8,8,,,,,,,,,,,,,,,,,,226.06729430999985,None,None,1,226.06729430999985,None,,,,,,,,,,,,,,,,,,,,,,,,,,,,,,,,,,,,,,,,,,,,,,,,,,,,,,,,,,,,,agusV,001,d,2019_Oct_10_1335,Experimento,3.2.3,60.02040117180178,
8,14,14,999,0.5,0:10,3,Cyan,None,0,0,1,15:50,./completed_changuitos/montage_djeez_90.99_79.19.jpg,left,0,0,0,0,,,,,0,3,3,3,,,,,,,,,0,0,0,0,0,9,9,9,,,,,,,,,,,,,,,,,,226.06729430999985,None,None,1,226.06729430999985,None,,,,,,,,,,,,,,,,,,,,,,,,,,,,,,,,,,,,,,,,,,,,,,,,,,,,,,,,,,,,,agusV,001,d,2019_Oct_10_1335,Experimento,3.2.3,60.02040117180178,
8,14,14,999,0.5,0:10,3,Blue,None,0,0,1,15:50,./completed_changuitos/montage_djeez_90.99_79.19.jpg,left,0,0,0,0,,,,,0,3,3,3,,,,,,,,,0,0,0,0,0,10,10,10,,,,,,,,,,,,,,,,,,226.06729430999985,None,None,1,226.06729430999985,None,,,,,,,,,,,,,,,,,,,,,,,,,,,,,,,,,,,,,,,,,,,,,,,,,,,,,,,,,,,,,agusV,001,d,2019_Oct_10_1335,Experimento,3.2.3,60.02040117180178,
8,14,14,999,0.5,0:10,3,Cyan,['space'],0,0,1,15:50,./completed_changuitos/montage_djeez_90.99_79.19.jpg,left,0,0,0,0,,,,,0,3,3,3,,,,,,,,,0,0,0,0,0,11,11,11,,,,,,,,,,,,,,,,,,226.06729430999985,None,None,0,226.06729430999985,None,,,,,,,,,,,,,,,,,,,,,,,,,,,,,,,,,,,,,,,,,,,,,,,,,,,,,,,,,,,,,agusV,001,d,2019_Oct_10_1335,Experimento,3.2.3,60.02040117180178,
8,14,14,999,0.5,0:10,3,Magenta,None,0,0,1,15:50,./completed_changuitos/montage_djeez_90.99_79.19.jpg,left,0,0,0,0,,,,,0,3,3,3,,,,,,,,,0,0,0,0,0,12,12,12,,,,,,,,,,,,,,,,,,226.06729430999985,None,None,1,226.06729430999985,None,,,,,,,,,,,,,,,,,,,,,,,,,,,,,,,,,,,,,,,,,,,,,,,,,,,,,,,,,,,,,agusV,001,d,2019_Oct_10_1335,Experimento,3.2.3,60.02040117180178,
8,14,14,999,0.5,0:10,3,Red,None,0,0,1,15:50,./completed_changuitos/montage_djeez_90.99_79.19.jpg,left,0,0,0,0,,,,,0,3,3,3,,,,,,,,,0,0,0,0,0,13,13,13,,,,,,,,,,,,,,,,,,226.06729430999985,None,None,1,226.06729430999985,None,,,,,,,,,,,,,,,,,,,,,,,,,,,,,,,,,,,,,,,,,,,,,,,,,,,,,,,,,,,,,agusV,001,d,2019_Oct_10_1335,Experimento,3.2.3,60.02040117180178,
8,14,14,999,0.5,0:10,3,Magenta,['space'],0,0,1,15:50,./completed_changuitos/montage_djeez_90.99_79.19.jpg,left,0,0,0,0,,,,,0,3,3,3,,,,,,,,,0,0,0,0,0,14,14,14,,,,,,,,,,,,,,,,,,226.06729430999985,None,None,0,226.06729430999985,None,,,,,,,,,,,,,,,,,,,,,,,,,,,,,,,,,,,,,,,,,,,,,,,,,,,,,,,,,,,,,agusV,001,d,2019_Oct_10_1335,Experimento,3.2.3,60.02040117180178,
8,14,14,999,0.5,0:10,3,Green,None,0,0,1,15:50,./completed_changuitos/montage_djeez_90.99_79.19.jpg,left,0,0,0,0,,,,,0,3,3,3,,,,,,,,,0,0,0,0,0,15,15,15,,,,,,,,,,,,,,,,,,226.06729430999985,None,None,1,226.06729430999985,None,,,,,,,,,,,,,,,,,,,,,,,,,,,,,,,,,,,,,,,,,,,,,,,,,,,,,,,,,,,,,agusV,001,d,2019_Oct_10_1335,Experimento,3.2.3,60.02040117180178,
8,14,14,999,0.5,0:10,3,Yellow,['space'],0,0,1,15:50,./completed_changuitos/montage_djeez_90.99_79.19.jpg,left,0,0,0,0,,,,,0,3,3,3,,,,,,,,,0,0,0,0,0,16,16,16,,,,,,,,,,,,,,,,,,226.06729430999985,None,None,0,226.06729430999985,None,,,,,,,,,,,,,,,,,,,,,,,,,,,,,,,,,,,,,,,,,,,,,,,,,,,,,,,,,,,,,agusV,001,d,2019_Oct_10_1335,Experimento,3.2.3,60.02040117180178,
8,14,14,999,0.5,0:10,3,Blue,None,0,0,1,15:50,./completed_changuitos/montage_djeez_90.99_79.19.jpg,left,0,0,0,0,,,,,0,3,3,3,,,,,,,,,0,0,0,0,0,17,17,17,,,,,,,,,,,,,,,,,,226.06729430999985,None,None,1,226.06729430999985,None,,,,,,,,,,,,,,,,,,,,,,,,,,,,,,,,,,,,,,,,,,,,,,,,,,,,,,,,,,,,,agusV,001,d,2019_Oct_10_1335,Experimento,3.2.3,60.02040117180178,
8,14,14,999,0.5,0:10,3,Cyan,None,0,0,1,15:50,./completed_changuitos/montage_djeez_90.99_79.19.jpg,left,0,0,0,0,,,,,0,3,3,3,,,,,,,,,0,0,0,0,0,18,18,18,,,,,,,,,,,,,,,,,,226.08395208900038,None,None,1,226.08395208900038,None,,,,,,,,,,,,,,,,,,,,,,,,,,,,,,,,,,,,,,,,,,,,,,,,,,,,,,,,,,,,,agusV,001,d,2019_Oct_10_1335,Experimento,3.2.3,60.02040117180178,
8,14,14,999,0.5,0:10,3,Blue,['space'],0,0,1,15:50,./completed_changuitos/montage_djeez_90.99_79.19.jpg,left,0,0,0,0,,,,,0,3,3,3,,,,,,,,,0,0,0,0,0,19,19,19,,,,,,,,,,,,,,,,,,226.08395208900038,None,None,0,226.08395208900038,None,,,,,,,,,,,,,,,,,,,,,,,,,,,,,,,,,,,,,,,,,,,,,,,,,,,,,,,,,,,,,agusV,001,d,2019_Oct_10_1335,Experimento,3.2.3,60.02040117180178,
8,14,14,999,0.5,0:10,3,Yellow,None,0,0,1,15:50,./completed_changuitos/montage_djeez_90.99_79.19.jpg,left,0,0,0,0,,,,,0,3,3,3,,,,,,,,,0,0,0,0,0,20,20,20,,,,,,,,,,,,,,,,,,226.08395208900038,None,None,1,226.08395208900038,None,,,,,,,,,,,,,,,,,,,,,,,,,,,,,,,,,,,,,,,,,,,,,,,,,,,,,,,,,,,,,agusV,001,d,2019_Oct_10_1335,Experimento,3.2.3,60.02040117180178,
8,14,14,999,0.5,0:10,3,Cyan,None,0,0,1,15:50,./completed_changuitos/montage_djeez_90.99_79.19.jpg,left,0,0,0,0,,,,,0,3,3,3,,,,,,,,,0,0,0,0,0,21,21,21,,,,,,,,,,,,,,,,,,226.08395208900038,None,None,1,226.08395208900038,None,,,,,,,,,,,,,,,,,,,,,,,,,,,,,,,,,,,,,,,,,,,,,,,,,,,,,,,,,,,,,agusV,001,d,2019_Oct_10_1335,Experimento,3.2.3,60.02040117180178,
8,14,14,999,0.5,0:10,3,Yellow,['space'],0,0,1,15:50,./completed_changuitos/montage_djeez_90.99_79.19.jpg,left,0,0,0,0,,,,,0,3,3,3,,,,,,,,,0,0,0,0,0,22,22,22,,,,,,,,,,,,,,,,,,226.08395208900038,None,None,0,226.08395208900038,None,,,,,,,,,,,,,,,,,,,,,,,,,,,,,,,,,,,,,,,,,,,,,,,,,,,,,,,,,,,,,agusV,001,d,2019_Oct_10_1335,Experimento,3.2.3,60.02040117180178,
8,14,14,999,0.5,0:10,3,Magenta,None,0,0,1,15:50,./completed_changuitos/montage_djeez_90.99_79.19.jpg,left,0,0,0,0,,,,,0,3,3,3,,,,,,,,,0,0,0,0,0,23,23,23,,,,,,,,,,,,,,,,,,226.08395208900038,None,None,1,226.08395208900038,None,,,,,,,,,,,,,,,,,,,,,,,,,,,,,,,,,,,,,,,,,,,,,,,,,,,,,,,,,,,,,agusV,001,d,2019_Oct_10_1335,Experimento,3.2.3,60.02040117180178,
8,14,14,999,0.5,0:10,3,Red,None,0,0,1,15:50,./completed_changuitos/montage_djeez_90.99_79.19.jpg,left,0,0,0,0,,,,,0,3,3,3,,,,,,,,,0,0,0,0,0,24,24,24,,,,,,,,,,,,,,,,,,226.08395208900038,None,None,1,226.08395208900038,None,,,,,,,,,,,,,,,,,,,,,,,,,,,,,,,,,,,,,,,,,,,,,,,,,,,,,,,,,,,,,agusV,001,d,2019_Oct_10_1335,Experimento,3.2.3,60.02040117180178,
8,14,14,999,0.5,0:10,3,Magenta,['space'],0,0,1,15:50,./completed_changuitos/montage_djeez_90.99_79.19.jpg,left,0,0,0,0,,,,,0,3,3,3,,,,,,,,,0,0,0,0,0,25,25,25,,,,,,,,,,,,,,,,,,226.08395208900038,None,None,0,226.08395208900038,None,,,,,,,,,,,,,,,,,,,,,,,,,,,,,,,,,,,,,,,,,,,,,,,,,,,,,,,,,,,,,agusV,001,d,2019_Oct_10_1335,Experimento,3.2.3,60.02040117180178,
8,14,14,999,0.5,0:10,3,Red,['space'],0,0,1,15:50,./completed_changuitos/montage_djeez_90.99_79.19.jpg,left,0,0,0,0,,,,,0,3,3,3,,,,,,,,,0,0,0,0,0,26,26,26,,,,,,,,,,,,,,,,,,226.08395208900038,None,None,0,226.08395208900038,None,,,,,,,,,,,,,,,,,,,,,,,,,,,,,,,,,,,,,,,,,,,,,,,,,,,,,,,,,,,,,agusV,001,d,2019_Oct_10_1335,Experimento,3.2.3,60.02040117180178,
8,14,14,999,0.5,0:10,3,Yellow,None,0,0,1,15:50,./completed_changuitos/montage_djeez_90.99_79.19.jpg,left,0,0,0,0,,,,,0,3,3,3,,,,,,,,,0,0,0,0,0,27,27,27,,,,,,,,,,,,,,,,,,226.08395208900038,None,None,1,226.08395208900038,None,,,,,,,,,,,,,,,,,,,,,,,,,,,,,,,,,,,,,,,,,,,,,,,,,,,,,,,,,,,,,agusV,001,d,2019_Oct_10_1335,Experimento,3.2.3,60.02040117180178,
8,14,14,999,0.5,0:10,3,Cyan,None,0,0,1,15:50,./completed_changuitos/montage_djeez_90.99_79.19.jpg,left,0,0,0,0,,,,,0,3,3,3,,,,,,,,,0,0,0,0,0,28,28,28,,,,,,,,,,,,,,,,,,226.08395208900038,None,None,1,226.08395208900038,None,,,,,,,,,,,,,,,,,,,,,,,,,,,,,,,,,,,,,,,,,,,,,,,,,,,,,,,,,,,,,agusV,001,d,2019_Oct_10_1335,Experimento,3.2.3,60.02040117180178,
8,14,14,999,0.5,0:10,3,Green,None,0,0,1,15:50,./completed_changuitos/montage_djeez_90.99_79.19.jpg,left,0,0,0,0,,,,,0,3,3,3,,,,,,,,,0,0,0,0,0,29,29,29,,,,,,,,,,,,,,,,,,226.08395208900038,None,None,1,226.08395208900038,None,,,,,,,,,,,,,,,,,,,,,,,,,,,,,,,,,,,,,,,,,,,,,,,,,,,,,,,,,,,,,agusV,001,d,2019_Oct_10_1335,Experimento,3.2.3,60.02040117180178,
8,14,14,999,0.5,0:10,3,White,None,0,0,1,15:50,./completed_changuitos/montage_djeez_90.99_79.19.jpg,left,0,0,0,0,,,,,0,3,3,3,,,,,,,,,0,0,0,0,0,30,30,30,,,,,,,,,,,,,,,,,,226.08395208900038,None,None,1,226.08395208900038,None,,,,,,,,,,,,,,,,,,,,,,,,,,,,,,,,,,,,,,,,,,,,,,,,,,,,,,,,,,,,,agusV,001,d,2019_Oct_10_1335,Experimento,3.2.3,60.02040117180178,
8,14,14,999,0.5,0:10,3,Green,['space'],0,0,1,15:50,./completed_changuitos/montage_djeez_90.99_79.19.jpg,left,0,0,0,0,,,,,0,3,3,3,,,,,,,,,0,0,0,0,0,31,31,31,,,,,,,,,,,,,,,,,,226.08395208900038,None,None,0,226.08395208900038,None,,,,,,,,,,,,,,,,,,,,,,,,,,,,,,,,,,,,,,,,,,,,,,,,,,,,,,,,,,,,,agusV,001,d,2019_Oct_10_1335,Experimento,3.2.3,60.02040117180178,
8,14,14,999,0.5,0:10,3,Red,None,0,0,1,15:50,./completed_changuitos/montage_djeez_90.99_79.19.jpg,left,0,0,0,0,,,,,0,3,3,3,,,,,,,,,0,0,0,0,0,32,32,32,,,,,,,,,,,,,,,,,,226.08395208900038,None,None,1,226.08395208900038,None,,,,,,,,,,,,,,,,,,,,,,,,,,,,,,,,,,,,,,,,,,,,,,,,,,,,,,,,,,,,,agusV,001,d,2019_Oct_10_1335,Experimento,3.2.3,60.02040117180178,
8,14,14,999,0.5,0:10,3,Blue,None,0,0,1,15:50,./completed_changuitos/montage_djeez_90.99_79.19.jpg,left,0,0,0,0,,,,,0,3,3,3,,,,,,,,,0,0,0,0,0,33,33,33,,,,,,,,,,,,,,,,,,226.08395208900038,None,None,1,226.08395208900038,None,,,,,,,,,,,,,,,,,,,,,,,,,,,,,,,,,,,,,,,,,,,,,,,,,,,,,,,,,,,,,agusV,001,d,2019_Oct_10_1335,Experimento,3.2.3,60.02040117180178,
8,14,14,999,0.5,0:10,3,Green,None,0,0,1,15:50,./completed_changuitos/montage_djeez_90.99_79.19.jpg,left,0,0,0,0,,,,,0,3,3,3,,,,,,,,,0,0,0,0,0,34,34,34,,,,,,,,,,,,,,,,,,226.1006098680009,None,None,1,226.1006098680009,None,,,,,,,,,,,,,,,,,,,,,,,,,,,,,,,,,,,,,,,,,,,,,,,,,,,,,,,,,,,,,agusV,001,d,2019_Oct_10_1335,Experimento,3.2.3,60.02040117180178,
8,14,14,999,0.5,0:10,3,,,0,0,1,15:50,./completed_changuitos/montage_djeez_90.99_79.19.jpg,left,0,0,0,0,,,,,0,3,3,3,,,,,,,,,0,0,0,0,,,,,,,,,,,,,,,,,,,,,,,,,,,,,226.12737539100635,None,left,1,3.9886204390058992,226.12737539100635,None,226.12737539100635,229.1329510170035,,,,,,,,,,,,,,,,,,,,,,,,,,,,,,,,,,,,,,,,,,,,,,,,,,,agusV,001,d,2019_Oct_10_1335,Experimento,3.2.3,60.02040117180178,
8,14,14,999,0.5,0:10,3,,,0,0,1,15:50,,,0,0,0,0,,,,,0,3,3,3,,,,,,,,,,,,,,,,,,,,,,,,,,,,,,,,,,,,,,,,,,,,,,,,,,,,,,,,,,,,,,,,,,,,,,,,,,,,,,,,,,,,,,,,,,,,,,,,,,,,agusV,001,d,2019_Oct_10_1335,Experimento,3.2.3,60.02040117180178,
8,14,14,999,0.5,0:10,3,,,0,1,0,10:50,./completed_changuitos/montage_tbawu_156.79_179.75.jpg,right,0,0,0,0,,,,,0,4,4,4,,,,,0,0,0,0,,,,,,,,,,,,,,,,,,,,,,,,,,,,,,,,,,,,,,,,,,230.25596038700314,232.5485548900033,232.5485548900033,240.5623368050001,240.5623368050001,254.57426294800825,right,1,0.7169135630101664,254.57426294800825,None,254.57426294800825,None,254.57426294800825,None,,,,,,,,,,,,,,,,,,,,,,,,,,,,,,,,,,,,agusV,001,d,2019_Oct_10_1335,Experimento,3.2.3,60.02040117180178,
8,14,14,999,0.5,0:10,3,,,0,1,0,10:50,,,0,0,0,0,,,,,0,4,4,4,,,,,,,,,,,,,,,,,,,,,,,,,,,,,,,,,,,,,,,,,,,,,,,,,,,,,,,,,,,,,,,,,,,,,,,,,,,,,,,,,,,,,,,,,,,,,,,,,,,,agusV,001,d,2019_Oct_10_1335,Experimento,3.2.3,60.02040117180178,
8,14,14,999,0.5,0:10,3,Red,None,0,0,1,28:50,./completed_changuitos/montage_prpkq_106.59_120.9.jpg,right,0,0,0,0,,,,,0,5,5,5,,,,,,,,,0,0,0,0,0,0,0,0,,,,,,,,,,,,,,255.43275476001145,260.32224291100283,260.32224291100283,None,268.3638566370064,268.86928566401184,None,1,268.3638566370064,None,,,,,,,,,,,,,,,,,,,,,,,,,,,,,,,,,,,,,,,,,,,,,,,,,,,,,,,,,,,,,agusV,001,d,2019_Oct_10_1335,Experimento,3.2.3,60.02040117180178,
8,14,14,999,0.5,0:10,3,Magenta,['space'],0,0,1,28:50,./completed_changuitos/montage_prpkq_106.59_120.9.jpg,right,0,0,0,0,,,,,0,5,5,5,,,,,,,,,0,0,0,0,0,1,1,1,,,,,,,,,,,,,,,,,,270.3688158300065,270.86870741100574,None,0,270.3688158300065,270.3688158300065,,,,,,,,,,,,,,,,,,,,,,,,,,,,,,,,,,,,,,,,,,,,,,,,,,,,,,,,,,,,,agusV,001,d,2019_Oct_10_1335,Experimento,3.2.3,60.02040117180178,
8,14,14,999,0.5,0:10,3,Green,None,0,0,1,28:50,./completed_changuitos/montage_prpkq_106.59_120.9.jpg,right,0,0,0,0,,,,,0,5,5,5,,,,,,,,,0,0,0,0,0,2,2,2,,,,,,,,,,,,,,,,,,272.36815136900987,272.86801682300575,None,1,272.36815136900987,272.36815136900987,,,,,,,,,,,,,,,,,,,,,,,,,,,,,,,,,,,,,,,,,,,,,,,,,,,,,,,,,,,,,agusV,001,d,2019_Oct_10_1335,Experimento,3.2.3,60.02040117180178,
8,14,14,999,0.5,0:10,3,Yellow,['space'],0,0,1,28:50,./completed_changuitos/montage_prpkq_106.59_120.9.jpg,right,0,0,0,0,,,,,0,5,5,5,,,,,,,,,0,0,0,0,0,3,3,3,,,,,,,,,,,,,,,,,,274.3674023519998,274.86728297700756,None,0,274.3674023519998,274.3674023519998,,,,,,,,,,,,,,,,,,,,,,,,,,,,,,,,,,,,,,,,,,,,,,,,,,,,,,,,,,,,,agusV,001,d,2019_Oct_10_1335,Experimento,3.2.3,60.02040117180178,
8,14,14,999,0.5,0:10,3,Blue,None,0,0,1,28:50,./completed_changuitos/montage_prpkq_106.59_120.9.jpg,right,0,0,0,0,,,,,0,5,5,5,,,,,,,,,0,0,0,0,0,4,4,4,,,,,,,,,,,,,,,,,,276.36677161800617,276.8665916910104,None,1,276.36677161800617,276.36677161800617,,,,,,,,,,,,,,,,,,,,,,,,,,,,,,,,,,,,,,,,,,,,,,,,,,,,,,,,,,,,,agusV,001,d,2019_Oct_10_1335,Experimento,3.2.3,60.02040117180178,
8,14,14,999,0.5,0:10,3,Cyan,None,0,0,1,28:50,./completed_changuitos/montage_prpkq_106.59_120.9.jpg,right,0,0,0,0,,,,,0,5,5,5,,,,,,,,,0,0,0,0,0,5,5,5,,,,,,,,,,,,,,,,,,278.3659968990105,278.86590965300275,None,1,278.3659968990105,278.3659968990105,,,,,,,,,,,,,,,,,,,,,,,,,,,,,,,,,,,,,,,,,,,,,,,,,,,,,,,,,,,,,agusV,001,d,2019_Oct_10_1335,Experimento,3.2.3,60.02040117180178,
8,14,14,999,0.5,0:10,3,Blue,['space'],0,0,1,28:50,./completed_changuitos/montage_prpkq_106.59_120.9.jpg,right,0,0,0,0,,,,,0,5,5,5,,,,,,,,,0,0,0,0,0,6,6,6,,,,,,,,,,,,,,,,,,280.36535320700204,280.86522176500876,['return'],0,280.36535320700204,280.36535320700204,[0.7004678710072767],,,,,,,,,,,,,,,,,,,,,,,,,,,,,,,,,,,,,,,,,,,,,,,,,,,,,,,,,,,,agusV,001,d,2019_Oct_10_1335,Experimento,3.2.3,60.02040117180178,
8,14,14,999,0.5,0:10,3,Yellow,None,0,0,1,28:50,./completed_changuitos/montage_prpkq_106.59_120.9.jpg,right,0,0,0,0,,,,,0,5,5,5,,,,,,,,,0,0,0,0,0,7,7,7,,,,,,,,,,,,,,,,,,282.34805192299973,None,None,1,282.34805192299973,None,,,,,,,,,,,,,,,,,,,,,,,,,,,,,,,,,,,,,,,,,,,,,,,,,,,,,,,,,,,,,agusV,001,d,2019_Oct_10_1335,Experimento,3.2.3,60.02040117180178,
8,14,14,999,0.5,0:10,3,Cyan,None,0,0,1,28:50,./completed_changuitos/montage_prpkq_106.59_120.9.jpg,right,0,0,0,0,,,,,0,5,5,5,,,,,,,,,0,0,0,0,0,8,8,8,,,,,,,,,,,,,,,,,,282.34805192299973,None,None,1,282.34805192299973,None,,,,,,,,,,,,,,,,,,,,,,,,,,,,,,,,,,,,,,,,,,,,,,,,,,,,,,,,,,,,,agusV,001,d,2019_Oct_10_1335,Experimento,3.2.3,60.02040117180178,
8,14,14,999,0.5,0:10,3,Yellow,['space'],0,0,1,28:50,./completed_changuitos/montage_prpkq_106.59_120.9.jpg,right,0,0,0,0,,,,,0,5,5,5,,,,,,,,,0,0,0,0,0,9,9,9,,,,,,,,,,,,,,,,,,282.34805192299973,None,None,0,282.34805192299973,None,,,,,,,,,,,,,,,,,,,,,,,,,,,,,,,,,,,,,,,,,,,,,,,,,,,,,,,,,,,,,agusV,001,d,2019_Oct_10_1335,Experimento,3.2.3,60.02040117180178,
8,14,14,999,0.5,0:10,3,Magenta,None,0,0,1,28:50,./completed_changuitos/montage_prpkq_106.59_120.9.jpg,right,0,0,0,0,,,,,0,5,5,5,,,,,,,,,0,0,0,0,0,10,10,10,,,,,,,,,,,,,,,,,,282.34805192299973,None,None,1,282.34805192299973,None,,,,,,,,,,,,,,,,,,,,,,,,,,,,,,,,,,,,,,,,,,,,,,,,,,,,,,,,,,,,,agusV,001,d,2019_Oct_10_1335,Experimento,3.2.3,60.02040117180178,
8,14,14,999,0.5,0:10,3,Red,None,0,0,1,28:50,./completed_changuitos/montage_prpkq_106.59_120.9.jpg,right,0,0,0,0,,,,,0,5,5,5,,,,,,,,,0,0,0,0,0,11,11,11,,,,,,,,,,,,,,,,,,282.36470970200025,None,None,1,282.36470970200025,None,,,,,,,,,,,,,,,,,,,,,,,,,,,,,,,,,,,,,,,,,,,,,,,,,,,,,,,,,,,,,agusV,001,d,2019_Oct_10_1335,Experimento,3.2.3,60.02040117180178,
8,14,14,999,0.5,0:10,3,Magenta,['space'],0,0,1,28:50,./completed_changuitos/montage_prpkq_106.59_120.9.jpg,right,0,0,0,0,,,,,0,5,5,5,,,,,,,,,0,0,0,0,0,12,12,12,,,,,,,,,,,,,,,,,,282.36470970200025,None,None,0,282.36470970200025,None,,,,,,,,,,,,,,,,,,,,,,,,,,,,,,,,,,,,,,,,,,,,,,,,,,,,,,,,,,,,,agusV,001,d,2019_Oct_10_1335,Experimento,3.2.3,60.02040117180178,
8,14,14,999,0.5,0:10,3,Red,['space'],0,0,1,28:50,./completed_changuitos/montage_prpkq_106.59_120.9.jpg,right,0,0,0,0,,,,,0,5,5,5,,,,,,,,,0,0,0,0,0,13,13,13,,,,,,,,,,,,,,,,,,282.36470970200025,None,None,0,282.36470970200025,None,,,,,,,,,,,,,,,,,,,,,,,,,,,,,,,,,,,,,,,,,,,,,,,,,,,,,,,,,,,,,agusV,001,d,2019_Oct_10_1335,Experimento,3.2.3,60.02040117180178,
8,14,14,999,0.5,0:10,3,Yellow,None,0,0,1,28:50,./completed_changuitos/montage_prpkq_106.59_120.9.jpg,right,0,0,0,0,,,,,0,5,5,5,,,,,,,,,0,0,0,0,0,14,14,14,,,,,,,,,,,,,,,,,,282.36470970200025,None,None,1,282.36470970200025,None,,,,,,,,,,,,,,,,,,,,,,,,,,,,,,,,,,,,,,,,,,,,,,,,,,,,,,,,,,,,,agusV,001,d,2019_Oct_10_1335,Experimento,3.2.3,60.02040117180178,
8,14,14,999,0.5,0:10,3,Cyan,None,0,0,1,28:50,./completed_changuitos/montage_prpkq_106.59_120.9.jpg,right,0,0,0,0,,,,,0,5,5,5,,,,,,,,,0,0,0,0,0,15,15,15,,,,,,,,,,,,,,,,,,282.36470970200025,None,None,1,282.36470970200025,None,,,,,,,,,,,,,,,,,,,,,,,,,,,,,,,,,,,,,,,,,,,,,,,,,,,,,,,,,,,,,agusV,001,d,2019_Oct_10_1335,Experimento,3.2.3,60.02040117180178,
8,14,14,999,0.5,0:10,3,Green,None,0,0,1,28:50,./completed_changuitos/montage_prpkq_106.59_120.9.jpg,right,0,0,0,0,,,,,0,5,5,5,,,,,,,,,0,0,0,0,0,16,16,16,,,,,,,,,,,,,,,,,,282.3813674810008,None,None,1,282.3813674810008,None,,,,,,,,,,,,,,,,,,,,,,,,,,,,,,,,,,,,,,,,,,,,,,,,,,,,,,,,,,,,,agusV,001,d,2019_Oct_10_1335,Experimento,3.2.3,60.02040117180178,
8,14,14,999,0.5,0:10,3,White,None,0,0,1,28:50,./completed_changuitos/montage_prpkq_106.59_120.9.jpg,right,0,0,0,0,,,,,0,5,5,5,,,,,,,,,0,0,0,0,0,17,17,17,,,,,,,,,,,,,,,,,,282.3813674810008,None,None,1,282.3813674810008,None,,,,,,,,,,,,,,,,,,,,,,,,,,,,,,,,,,,,,,,,,,,,,,,,,,,,,,,,,,,,,agusV,001,d,2019_Oct_10_1335,Experimento,3.2.3,60.02040117180178,
8,14,14,999,0.5,0:10,3,Green,['space'],0,0,1,28:50,./completed_changuitos/montage_prpkq_106.59_120.9.jpg,right,0,0,0,0,,,,,0,5,5,5,,,,,,,,,0,0,0,0,0,18,18,18,,,,,,,,,,,,,,,,,,282.3813674810008,None,None,0,282.3813674810008,None,,,,,,,,,,,,,,,,,,,,,,,,,,,,,,,,,,,,,,,,,,,,,,,,,,,,,,,,,,,,,agusV,001,d,2019_Oct_10_1335,Experimento,3.2.3,60.02040117180178,
8,14,14,999,0.5,0:10,3,Red,None,0,0,1,28:50,./completed_changuitos/montage_prpkq_106.59_120.9.jpg,right,0,0,0,0,,,,,0,5,5,5,,,,,,,,,0,0,0,0,0,19,19,19,,,,,,,,,,,,,,,,,,282.3813674810008,None,None,1,282.3813674810008,None,,,,,,,,,,,,,,,,,,,,,,,,,,,,,,,,,,,,,,,,,,,,,,,,,,,,,,,,,,,,,agusV,001,d,2019_Oct_10_1335,Experimento,3.2.3,60.02040117180178,
8,14,14,999,0.5,0:10,3,Blue,None,0,0,1,28:50,./completed_changuitos/montage_prpkq_106.59_120.9.jpg,right,0,0,0,0,,,,,0,5,5,5,,,,,,,,,0,0,0,0,0,20,20,20,,,,,,,,,,,,,,,,,,282.3813674810008,None,None,1,282.3813674810008,None,,,,,,,,,,,,,,,,,,,,,,,,,,,,,,,,,,,,,,,,,,,,,,,,,,,,,,,,,,,,,agusV,001,d,2019_Oct_10_1335,Experimento,3.2.3,60.02040117180178,
8,14,14,999,0.5,0:10,3,Green,None,0,0,1,28:50,./completed_changuitos/montage_prpkq_106.59_120.9.jpg,right,0,0,0,0,,,,,0,5,5,5,,,,,,,,,0,0,0,0,0,21,21,21,,,,,,,,,,,,,,,,,,282.3813674810008,None,None,1,282.3813674810008,None,,,,,,,,,,,,,,,,,,,,,,,,,,,,,,,,,,,,,,,,,,,,,,,,,,,,,,,,,,,,,agusV,001,d,2019_Oct_10_1335,Experimento,3.2.3,60.02040117180178,
8,14,14,999,0.5,0:10,3,,,0,0,1,28:50,./completed_changuitos/montage_prpkq_106.59_120.9.jpg,right,0,0,0,0,,,,,0,5,5,5,,,,,,,,,0,0,0,0,,,,,,,,,,,,,,,,,,,,,,,,,,,,,282.4192000220064,None,right,1,4.610747900995193,282.4192000220064,None,282.4192000220064,285.43034703801095,,,,,,,,,,,,,,,,,,,,,,,,,,,,,,,,,,,,,,,,,,,,,,,,,,,agusV,001,d,2019_Oct_10_1335,Experimento,3.2.3,60.02040117180178,
8,14,14,999,0.5,0:10,3,,,0,0,1,28:50,,,0,0,0,0,,,,,0,5,5,5,,,,,,,,,,,,,,,,,,,,,,,,,,,,,,,,,,,,,,,,,,,,,,,,,,,,,,,,,,,,,,,,,,,,,,,,,,,,,,,,,,,,,,,,,,,,,,,,,,,,agusV,001,d,2019_Oct_10_1335,Experimento,3.2.3,60.02040117180178,
8,14,14,999,0.5,0:10,3,,,0,1,0,19:50,./completed_changuitos/montage_youpl_59.85_53.49.jpg,left,0,0,0,0,,,,,0,6,6,6,,,,,0,0,0,0,,,,,,,,,,,,,,,,,,,,,,,,,,,,,,,,,,,,,,,,,,287.1673750310001,291.061732001006,291.061732001006,299.0756501010037,299.0756501010037,313.08751947300334,left,1,1.1501229849964147,313.08751947300334,None,313.08751947300334,None,313.08751947300334,None,,,,,,,,,,,,,,,,,,,,,,,,,,,,,,,,,,,,agusV,001,d,2019_Oct_10_1335,Experimento,3.2.3,60.02040117180178,
8,14,14,999,0.5,0:10,3,,,0,1,0,19:50,,,0,0,0,0,,,,,0,6,6,6,,,,,,,,,,,,,,,,,,,,,,,,,,,,,,,,,,,,,,,,,,,,,,,,,,,,,,,,,,,,,,,,,,,,,,,,,,,,,,,,,,,,,,,,,,,,,,,,,,,,agusV,001,d,2019_Oct_10_1335,Experimento,3.2.3,60.02040117180178,
8,14,14,999,0.5,0:10,3,,,0,1,0,19:50,./completed_changuitos/montage_stsip_26.75_30.95.jpg,right,0,0,0,0,,,,,0,7,7,7,,,,,0,0,0,0,,,,,,,,,,,,,,,,,,,,,,,,,,,,,,,,,,,,,,,,,,314.3905997490074,318.96894359900034,318.96894359900034,326.98281722200045,326.98281722200045,340.9942961730121,right,1,0.9009774220030522,340.9942961730121,None,340.9942961730121,None,340.9942961730121,None,,,,,,,,,,,,,,,,,,,,,,,,,,,,,,,,,,,,agusV,001,d,2019_Oct_10_1335,Experimento,3.2.3,60.02040117180178,
8,14,14,999,0.5,0:10,3,,,0,1,0,19:50,,,0,0,0,0,,,,,0,7,7,7,,,,,,,,,,,,,,,,,,,,,,,,,,,,,,,,,,,,,,,,,,,,,,,,,,,,,,,,,,,,,,,,,,,,,,,,,,,,,,,,,,,,,,,,,,,,,,,,,,,,agusV,001,d,2019_Oct_10_1335,Experimento,3.2.3,60.02040117180178,
8,14,14,999,0.5,0:10,3,Yellow,None,0,0,1,15:50,./completed_changuitos/montage_luzdw_245.69_209.75.jpg,left,0,0,0,0,,,,,0,8,8,8,,,,,,,,,0,0,0,0,0,0,0,0,,,,,,,,,,,,,,342.0273628230061,343.77703731101064,343.77703731101064,None,351.8182418510114,352.3241208600084,None,1,351.8182418510114,None,,,,,,,,,,,,,,,,,,,,,,,,,,,,,,,,,,,,,,,,,,,,,,,,,,,,,,,,,,,,,agusV,001,d,2019_Oct_10_1335,Experimento,3.2.3,60.02040117180178,
8,14,14,999,0.5,0:10,3,White,['space'],0,0,1,15:50,./completed_changuitos/montage_luzdw_245.69_209.75.jpg,left,0,0,0,0,,,,,0,8,8,8,,,,,,,,,0,0,0,0,0,1,1,1,,,,,,,,,,,,,,,,,,353.8232449940115,354.3230626920122,None,0,353.8232449940115,353.8232449940115,,,,,,,,,,,,,,,,,,,,,,,,,,,,,,,,,,,,,,,,,,,,,,,,,,,,,,,,,,,,,agusV,001,d,2019_Oct_10_1335,Experimento,3.2.3,60.02040117180178,
8,14,14,999,0.5,0:10,3,Magenta,None,0,0,1,15:50,./completed_changuitos/montage_luzdw_245.69_209.75.jpg,left,0,0,0,0,,,,,0,8,8,8,,,,,,,,,0,0,0,0,0,2,2,2,,,,,,,,,,,,,,,,,,355.8228612130042,356.3223559400067,None,1,355.8228612130042,355.8228612130042,,,,,,,,,,,,,,,,,,,,,,,,,,,,,,,,,,,,,,,,,,,,,,,,,,,,,,,,,,,,,agusV,001,d,2019_Oct_10_1335,Experimento,3.2.3,60.02040117180178,
8,14,14,999,0.5,0:10,3,Cyan,None,0,0,1,15:50,./completed_changuitos/montage_luzdw_245.69_209.75.jpg,left,0,0,0,0,,,,,0,8,8,8,,,,,,,,,0,0,0,0,0,3,3,3,,,,,,,,,,,,,,,,,,357.82220923500427,358.32206106300873,None,1,357.82220923500427,357.82220923500427,,,,,,,,,,,,,,,,,,,,,,,,,,,,,,,,,,,,,,,,,,,,,,,,,,,,,,,,,,,,,agusV,001,d,2019_Oct_10_1335,Experimento,3.2.3,60.02040117180178,
8,14,14,999,0.5,0:10,3,Blue,None,0,0,1,15:50,./completed_changuitos/montage_luzdw_245.69_209.75.jpg,left,0,0,0,0,,,,,0,8,8,8,,,,,,,,,0,0,0,0,0,4,4,4,,,,,,,,,,,,,,,,,,359.8215611570049,360.3213898200047,None,1,359.8215611570049,359.8215611570049,,,,,,,,,,,,,,,,,,,,,,,,,,,,,,,,,,,,,,,,,,,,,,,,,,,,,,,,,,,,,agusV,001,d,2019_Oct_10_1335,Experimento,3.2.3,60.02040117180178,
8,14,14,999,0.5,0:10,3,Magenta,None,0,0,1,15:50,./completed_changuitos/montage_luzdw_245.69_209.75.jpg,left,0,0,0,0,,,,,0,8,8,8,,,,,,,,,0,0,0,0,0,5,5,5,,,,,,,,,,,,,,,,,,361.8372220040037,362.3369514320075,['return'],0,361.8372220040037,361.8372220040037,[0.48329395399196073],,,,,,,,,,,,,,,,,,,,,,,,,,,,,,,,,,,,,,,,,,,,,,,,,,,,,,,,,,,,agusV,001,d,2019_Oct_10_1335,Experimento,3.2.3,60.02040117180178,
8,14,14,999,0.5,0:10,3,Blue,['space'],0,0,1,15:50,./completed_changuitos/montage_luzdw_245.69_209.75.jpg,left,0,0,0,0,,,,,0,8,8,8,,,,,,,,,0,0,0,0,0,6,6,6,,,,,,,,,,,,,,,,,,363.8367081559991,364.3366741720092,None,0,363.8367081559991,363.8367081559991,,,,,,,,,,,,,,,,,,,,,,,,,,,,,,,,,,,,,,,,,,,,,,,,,,,,,,,,,,,,,agusV,001,d,2019_Oct_10_1335,Experimento,3.2.3,60.02040117180178,
8,14,14,999,0.5,0:10,3,Cyan,None,0,0,1,15:50,./completed_changuitos/montage_luzdw_245.69_209.75.jpg,left,0,0,0,0,,,,,0,8,8,8,,,,,,,,,0,0,0,0,0,7,7,7,,,,,,,,,,,,,,,,,,365.8028414970104,None,None,1,365.8028414970104,None,,,,,,,,,,,,,,,,,,,,,,,,,,,,,,,,,,,,,,,,,,,,,,,,,,,,,,,,,,,,,agusV,001,d,2019_Oct_10_1335,Experimento,3.2.3,60.02040117180178,
8,14,14,999,0.5,0:10,3,Yellow,None,0,0,1,15:50,./completed_changuitos/montage_luzdw_245.69_209.75.jpg,left,0,0,0,0,,,,,0,8,8,8,,,,,,,,,0,0,0,0,0,8,8,8,,,,,,,,,,,,,,,,,,365.8028414970104,None,None,1,365.8028414970104,None,,,,,,,,,,,,,,,,,,,,,,,,,,,,,,,,,,,,,,,,,,,,,,,,,,,,,,,,,,,,,agusV,001,d,2019_Oct_10_1335,Experimento,3.2.3,60.02040117180178,
8,14,14,999,0.5,0:10,3,Cyan,None,0,0,1,15:50,./completed_changuitos/montage_luzdw_245.69_209.75.jpg,left,0,0,0,0,,,,,0,8,8,8,,,,,,,,,0,0,0,0,0,9,9,9,,,,,,,,,,,,,,,,,,365.8028414970104,None,None,1,365.8028414970104,None,,,,,,,,,,,,,,,,,,,,,,,,,,,,,,,,,,,,,,,,,,,,,,,,,,,,,,,,,,,,,agusV,001,d,2019_Oct_10_1335,Experimento,3.2.3,60.02040117180178,
8,14,14,999,0.5,0:10,3,Blue,None,0,0,1,15:50,./completed_changuitos/montage_luzdw_245.69_209.75.jpg,left,0,0,0,0,,,,,0,8,8,8,,,,,,,,,0,0,0,0,0,10,10,10,,,,,,,,,,,,,,,,,,365.8028414970104,None,None,1,365.8028414970104,None,,,,,,,,,,,,,,,,,,,,,,,,,,,,,,,,,,,,,,,,,,,,,,,,,,,,,,,,,,,,,agusV,001,d,2019_Oct_10_1335,Experimento,3.2.3,60.02040117180178,
8,14,14,999,0.5,0:10,3,Cyan,['space'],0,0,1,15:50,./completed_changuitos/montage_luzdw_245.69_209.75.jpg,left,0,0,0,0,,,,,0,8,8,8,,,,,,,,,0,0,0,0,0,11,11,11,,,,,,,,,,,,,,,,,,365.8194992760109,None,None,0,365.8194992760109,None,,,,,,,,,,,,,,,,,,,,,,,,,,,,,,,,,,,,,,,,,,,,,,,,,,,,,,,,,,,,,agusV,001,d,2019_Oct_10_1335,Experimento,3.2.3,60.02040117180178,
8,14,14,999,0.5,0:10,3,Magenta,None,0,0,1,15:50,./completed_changuitos/montage_luzdw_245.69_209.75.jpg,left,0,0,0,0,,,,,0,8,8,8,,,,,,,,,0,0,0,0,0,12,12,12,,,,,,,,,,,,,,,,,,365.8194992760109,None,None,1,365.8194992760109,None,,,,,,,,,,,,,,,,,,,,,,,,,,,,,,,,,,,,,,,,,,,,,,,,,,,,,,,,,,,,,agusV,001,d,2019_Oct_10_1335,Experimento,3.2.3,60.02040117180178,
8,14,14,999,0.5,0:10,3,Red,None,0,0,1,15:50,./completed_changuitos/montage_luzdw_245.69_209.75.jpg,left,0,0,0,0,,,,,0,8,8,8,,,,,,,,,0,0,0,0,0,13,13,13,,,,,,,,,,,,,,,,,,365.8194992760109,None,None,1,365.8194992760109,None,,,,,,,,,,,,,,,,,,,,,,,,,,,,,,,,,,,,,,,,,,,,,,,,,,,,,,,,,,,,,agusV,001,d,2019_Oct_10_1335,Experimento,3.2.3,60.02040117180178,
8,14,14,999,0.5,0:10,3,Magenta,['space'],0,0,1,15:50,./completed_changuitos/montage_luzdw_245.69_209.75.jpg,left,0,0,0,0,,,,,0,8,8,8,,,,,,,,,0,0,0,0,0,14,14,14,,,,,,,,,,,,,,,,,,365.8194992760109,None,None,0,365.8194992760109,None,,,,,,,,,,,,,,,,,,,,,,,,,,,,,,,,,,,,,,,,,,,,,,,,,,,,,,,,,,,,,agusV,001,d,2019_Oct_10_1335,Experimento,3.2.3,60.02040117180178,
8,14,14,999,0.5,0:10,3,Green,None,0,0,1,15:50,./completed_changuitos/montage_luzdw_245.69_209.75.jpg,left,0,0,0,0,,,,,0,8,8,8,,,,,,,,,0,0,0,0,0,15,15,15,,,,,,,,,,,,,,,,,,365.8194992760109,None,None,1,365.8194992760109,None,,,,,,,,,,,,,,,,,,,,,,,,,,,,,,,,,,,,,,,,,,,,,,,,,,,,,,,,,,,,,agusV,001,d,2019_Oct_10_1335,Experimento,3.2.3,60.02040117180178,
8,14,14,999,0.5,0:10,3,Yellow,['space'],0,0,1,15:50,./completed_changuitos/montage_luzdw_245.69_209.75.jpg,left,0,0,0,0,,,,,0,8,8,8,,,,,,,,,0,0,0,0,0,16,16,16,,,,,,,,,,,,,,,,,,365.8194992760109,None,None,0,365.8194992760109,None,,,,,,,,,,,,,,,,,,,,,,,,,,,,,,,,,,,,,,,,,,,,,,,,,,,,,,,,,,,,,agusV,001,d,2019_Oct_10_1335,Experimento,3.2.3,60.02040117180178,
8,14,14,999,0.5,0:10,3,Blue,None,0,0,1,15:50,./completed_changuitos/montage_luzdw_245.69_209.75.jpg,left,0,0,0,0,,,,,0,8,8,8,,,,,,,,,0,0,0,0,0,17,17,17,,,,,,,,,,,,,,,,,,365.8361570550114,None,None,1,365.8361570550114,None,,,,,,,,,,,,,,,,,,,,,,,,,,,,,,,,,,,,,,,,,,,,,,,,,,,,,,,,,,,,,agusV,001,d,2019_Oct_10_1335,Experimento,3.2.3,60.02040117180178,
8,14,14,999,0.5,0:10,3,Cyan,None,0,0,1,15:50,./completed_changuitos/montage_luzdw_245.69_209.75.jpg,left,0,0,0,0,,,,,0,8,8,8,,,,,,,,,0,0,0,0,0,18,18,18,,,,,,,,,,,,,,,,,,365.8361570550114,None,None,1,365.8361570550114,None,,,,,,,,,,,,,,,,,,,,,,,,,,,,,,,,,,,,,,,,,,,,,,,,,,,,,,,,,,,,,agusV,001,d,2019_Oct_10_1335,Experimento,3.2.3,60.02040117180178,
8,14,14,999,0.5,0:10,3,Blue,['space'],0,0,1,15:50,./completed_changuitos/montage_luzdw_245.69_209.75.jpg,left,0,0,0,0,,,,,0,8,8,8,,,,,,,,,0,0,0,0,0,19,19,19,,,,,,,,,,,,,,,,,,365.8361570550114,None,None,0,365.8361570550114,None,,,,,,,,,,,,,,,,,,,,,,,,,,,,,,,,,,,,,,,,,,,,,,,,,,,,,,,,,,,,,agusV,001,d,2019_Oct_10_1335,Experimento,3.2.3,60.02040117180178,
8,14,14,999,0.5,0:10,3,Yellow,None,0,0,1,15:50,./completed_changuitos/montage_luzdw_245.69_209.75.jpg,left,0,0,0,0,,,,,0,8,8,8,,,,,,,,,0,0,0,0,0,20,20,20,,,,,,,,,,,,,,,,,,365.8361570550114,None,None,1,365.8361570550114,None,,,,,,,,,,,,,,,,,,,,,,,,,,,,,,,,,,,,,,,,,,,,,,,,,,,,,,,,,,,,,agusV,001,d,2019_Oct_10_1335,Experimento,3.2.3,60.02040117180178,
8,14,14,999,0.5,0:10,3,Cyan,None,0,0,1,15:50,./completed_changuitos/montage_luzdw_245.69_209.75.jpg,left,0,0,0,0,,,,,0,8,8,8,,,,,,,,,0,0,0,0,0,21,21,21,,,,,,,,,,,,,,,,,,365.8361570550114,None,None,1,365.8361570550114,None,,,,,,,,,,,,,,,,,,,,,,,,,,,,,,,,,,,,,,,,,,,,,,,,,,,,,,,,,,,,,agusV,001,d,2019_Oct_10_1335,Experimento,3.2.3,60.02040117180178,
8,14,14,999,0.5,0:10,3,Yellow,['space'],0,0,1,15:50,./completed_changuitos/montage_luzdw_245.69_209.75.jpg,left,0,0,0,0,,,,,0,8,8,8,,,,,,,,,0,0,0,0,0,22,22,22,,,,,,,,,,,,,,,,,,365.8361570550114,None,None,0,365.8361570550114,None,,,,,,,,,,,,,,,,,,,,,,,,,,,,,,,,,,,,,,,,,,,,,,,,,,,,,,,,,,,,,agusV,001,d,2019_Oct_10_1335,Experimento,3.2.3,60.02040117180178,
8,14,14,999,0.5,0:10,3,Magenta,None,0,0,1,15:50,./completed_changuitos/montage_luzdw_245.69_209.75.jpg,left,0,0,0,0,,,,,0,8,8,8,,,,,,,,,0,0,0,0,0,23,23,23,,,,,,,,,,,,,,,,,,365.8361570550114,None,None,1,365.8361570550114,None,,,,,,,,,,,,,,,,,,,,,,,,,,,,,,,,,,,,,,,,,,,,,,,,,,,,,,,,,,,,,agusV,001,d,2019_Oct_10_1335,Experimento,3.2.3,60.02040117180178,
8,14,14,999,0.5,0:10,3,Red,None,0,0,1,15:50,./completed_changuitos/montage_luzdw_245.69_209.75.jpg,left,0,0,0,0,,,,,0,8,8,8,,,,,,,,,0,0,0,0,0,24,24,24,,,,,,,,,,,,,,,,,,365.8361570550114,None,None,1,365.8361570550114,None,,,,,,,,,,,,,,,,,,,,,,,,,,,,,,,,,,,,,,,,,,,,,,,,,,,,,,,,,,,,,agusV,001,d,2019_Oct_10_1335,Experimento,3.2.3,60.02040117180178,
8,14,14,999,0.5,0:10,3,Magenta,['space'],0,0,1,15:50,./completed_changuitos/montage_luzdw_245.69_209.75.jpg,left,0,0,0,0,,,,,0,8,8,8,,,,,,,,,0,0,0,0,0,25,25,25,,,,,,,,,,,,,,,,,,365.8361570550114,None,None,0,365.8361570550114,None,,,,,,,,,,,,,,,,,,,,,,,,,,,,,,,,,,,,,,,,,,,,,,,,,,,,,,,,,,,,,agusV,001,d,2019_Oct_10_1335,Experimento,3.2.3,60.02040117180178,
8,14,14,999,0.5,0:10,3,Red,['space'],0,0,1,15:50,./completed_changuitos/montage_luzdw_245.69_209.75.jpg,left,0,0,0,0,,,,,0,8,8,8,,,,,,,,,0,0,0,0,0,26,26,26,,,,,,,,,,,,,,,,,,365.8361570550114,None,None,0,365.8361570550114,None,,,,,,,,,,,,,,,,,,,,,,,,,,,,,,,,,,,,,,,,,,,,,,,,,,,,,,,,,,,,,agusV,001,d,2019_Oct_10_1335,Experimento,3.2.3,60.02040117180178,
8,14,14,999,0.5,0:10,3,Yellow,None,0,0,1,15:50,./completed_changuitos/montage_luzdw_245.69_209.75.jpg,left,0,0,0,0,,,,,0,8,8,8,,,,,,,,,0,0,0,0,0,27,27,27,,,,,,,,,,,,,,,,,,365.8361570550114,None,None,1,365.8361570550114,None,,,,,,,,,,,,,,,,,,,,,,,,,,,,,,,,,,,,,,,,,,,,,,,,,,,,,,,,,,,,,agusV,001,d,2019_Oct_10_1335,Experimento,3.2.3,60.02040117180178,
8,14,14,999,0.5,0:10,3,Cyan,None,0,0,1,15:50,./completed_changuitos/montage_luzdw_245.69_209.75.jpg,left,0,0,0,0,,,,,0,8,8,8,,,,,,,,,0,0,0,0,0,28,28,28,,,,,,,,,,,,,,,,,,365.85281483401195,None,None,1,365.85281483401195,None,,,,,,,,,,,,,,,,,,,,,,,,,,,,,,,,,,,,,,,,,,,,,,,,,,,,,,,,,,,,,agusV,001,d,2019_Oct_10_1335,Experimento,3.2.3,60.02040117180178,
8,14,14,999,0.5,0:10,3,Green,None,0,0,1,15:50,./completed_changuitos/montage_luzdw_245.69_209.75.jpg,left,0,0,0,0,,,,,0,8,8,8,,,,,,,,,0,0,0,0,0,29,29,29,,,,,,,,,,,,,,,,,,365.85281483401195,None,None,1,365.85281483401195,None,,,,,,,,,,,,,,,,,,,,,,,,,,,,,,,,,,,,,,,,,,,,,,,,,,,,,,,,,,,,,agusV,001,d,2019_Oct_10_1335,Experimento,3.2.3,60.02040117180178,
8,14,14,999,0.5,0:10,3,White,None,0,0,1,15:50,./completed_changuitos/montage_luzdw_245.69_209.75.jpg,left,0,0,0,0,,,,,0,8,8,8,,,,,,,,,0,0,0,0,0,30,30,30,,,,,,,,,,,,,,,,,,365.85281483401195,None,None,1,365.85281483401195,None,,,,,,,,,,,,,,,,,,,,,,,,,,,,,,,,,,,,,,,,,,,,,,,,,,,,,,,,,,,,,agusV,001,d,2019_Oct_10_1335,Experimento,3.2.3,60.02040117180178,
8,14,14,999,0.5,0:10,3,Green,['space'],0,0,1,15:50,./completed_changuitos/montage_luzdw_245.69_209.75.jpg,left,0,0,0,0,,,,,0,8,8,8,,,,,,,,,0,0,0,0,0,31,31,31,,,,,,,,,,,,,,,,,,365.85281483401195,None,None,0,365.85281483401195,None,,,,,,,,,,,,,,,,,,,,,,,,,,,,,,,,,,,,,,,,,,,,,,,,,,,,,,,,,,,,,agusV,001,d,2019_Oct_10_1335,Experimento,3.2.3,60.02040117180178,
8,14,14,999,0.5,0:10,3,Red,None,0,0,1,15:50,./completed_changuitos/montage_luzdw_245.69_209.75.jpg,left,0,0,0,0,,,,,0,8,8,8,,,,,,,,,0,0,0,0,0,32,32,32,,,,,,,,,,,,,,,,,,365.85281483401195,None,None,1,365.85281483401195,None,,,,,,,,,,,,,,,,,,,,,,,,,,,,,,,,,,,,,,,,,,,,,,,,,,,,,,,,,,,,,agusV,001,d,2019_Oct_10_1335,Experimento,3.2.3,60.02040117180178,
8,14,14,999,0.5,0:10,3,Blue,None,0,0,1,15:50,./completed_changuitos/montage_luzdw_245.69_209.75.jpg,left,0,0,0,0,,,,,0,8,8,8,,,,,,,,,0,0,0,0,0,33,33,33,,,,,,,,,,,,,,,,,,365.85281483401195,None,None,1,365.85281483401195,None,,,,,,,,,,,,,,,,,,,,,,,,,,,,,,,,,,,,,,,,,,,,,,,,,,,,,,,,,,,,,agusV,001,d,2019_Oct_10_1335,Experimento,3.2.3,60.02040117180178,
8,14,14,999,0.5,0:10,3,Green,None,0,0,1,15:50,./completed_changuitos/montage_luzdw_245.69_209.75.jpg,left,0,0,0,0,,,,,0,8,8,8,,,,,,,,,0,0,0,0,0,34,34,34,,,,,,,,,,,,,,,,,,365.85281483401195,None,None,1,365.85281483401195,None,,,,,,,,,,,,,,,,,,,,,,,,,,,,,,,,,,,,,,,,,,,,,,,,,,,,,,,,,,,,,agusV,001,d,2019_Oct_10_1335,Experimento,3.2.3,60.02040117180178,
8,14,14,999,0.5,0:10,3,,,0,0,1,15:50,./completed_changuitos/montage_luzdw_245.69_209.75.jpg,left,0,0,0,0,,,,,0,8,8,8,,,,,,,,,0,0,0,0,,,,,,,,,,,,,,,,,,,,,,,,,,,,,365.88197230199876,None,left,1,1.6194085140014067,365.88197230199876,None,365.88197230199876,None,,,,,,,,,,,,,,,,,,,,,,,,,,,,,,,,,,,,,,,,,,,,,,,,,,,agusV,001,d,2019_Oct_10_1335,Experimento,3.2.3,60.02040117180178,
8,14,14,999,0.5,0:10,3,,,0,0,1,15:50,,,0,0,0,0,,,,,0,8,8,8,,,,,,,,,,,,,,,,,,,,,,,,,,,,,,,,,,,,,,,,,,,,,,,,,,,,,,,,,,,,,,,,,,,,,,,,,,,,,,,,,,,,,,,,,,,,,,,,,,,,agusV,001,d,2019_Oct_10_1335,Experimento,3.2.3,60.02040117180178,
8,14,14,999,0.5,0:10,3,,,0,1,0,25:50,./completed_changuitos/montage_ubwcb_163.19_190.19.jpg,right,0,0,0,0,,,,,0,9,9,9,,,,,0,0,0,0,,,,,,,,,,,,,,,,,,,,,,,,,,,,,,,,,,,,,,,,,,367.6386677219998,368.68520165700465,368.68520165700465,376.69878681701084,376.69878681701084,390.7110142349993,right,1,0.8501579699950526,390.7110142349993,None,390.7110142349993,None,390.7110142349993,None,,,,,,,,,,,,,,,,,,,,,,,,,,,,,,,,,,,,agusV,001,d,2019_Oct_10_1335,Experimento,3.2.3,60.02040117180178,
8,14,14,999,0.5,0:10,3,,,0,1,0,25:50,,,0,0,0,0,,,,,0,9,9,9,,,,,,,,,,,,,,,,,,,,,,,,,,,,,,,,,,,,,,,,,,,,,,,,,,,,,,,,,,,,,,,,,,,,,,,,,,,,,,,,,,,,,,,,,,,,,,,,,,,,agusV,001,d,2019_Oct_10_1335,Experimento,3.2.3,60.02040117180178,
8,14,14,999,0.5,0:10,3,Magenta,None,0,0,1,20:50,./completed_changuitos/montage_khqzc_103.79_119.85.jpg,right,0,0,0,0,,,,,0,10,10,10,,,,,,,,,0,0,0,0,0,0,0,0,,,,,,,,,,,,,,391.6947040330124,393.11022828701243,393.11022828701243,None,401.14489808400685,401.65725639800075,None,1,401.14489808400685,None,,,,,,,,,,,,,,,,,,,,,,,,,,,,,,,,,,,,,,,,,,,,,,,,,,,,,,,,,,,,,agusV,001,d,2019_Oct_10_1335,Experimento,3.2.3,60.02040117180178,
8,14,14,999,0.5,0:10,3,Blue,['space'],0,0,1,20:50,./completed_changuitos/montage_khqzc_103.79_119.85.jpg,right,0,0,0,0,,,,,0,10,10,10,,,,,,,,,0,0,0,0,0,1,1,1,,,,,,,,,,,,,,,,,,403.1565778590011,403.65659229800804,None,0,403.1565778590011,403.1565778590011,,,,,,,,,,,,,,,,,,,,,,,,,,,,,,,,,,,,,,,,,,,,,,,,,,,,,,,,,,,,,agusV,001,d,2019_Oct_10_1335,Experimento,3.2.3,60.02040117180178,
8,14,14,999,0.5,0:10,3,Cyan,None,0,0,1,20:50,./completed_changuitos/montage_khqzc_103.79_119.85.jpg,right,0,0,0,0,,,,,0,10,10,10,,,,,,,,,0,0,0,0,0,2,2,2,,,,,,,,,,,,,,,,,,405.15569933700317,405.6555123490107,None,1,405.15569933700317,405.15569933700317,,,,,,,,,,,,,,,,,,,,,,,,,,,,,,,,,,,,,,,,,,,,,,,,,,,,,,,,,,,,,agusV,001,d,2019_Oct_10_1335,Experimento,3.2.3,60.02040117180178,
8,14,14,999,0.5,0:10,3,Yellow,None,0,0,1,20:50,./completed_changuitos/montage_khqzc_103.79_119.85.jpg,right,0,0,0,0,,,,,0,10,10,10,,,,,,,,,0,0,0,0,0,3,3,3,,,,,,,,,,,,,,,,,,407.15563588299847,407.6548105180118,None,1,407.15563588299847,407.15563588299847,,,,,,,,,,,,,,,,,,,,,,,,,,,,,,,,,,,,,,,,,,,,,,,,,,,,,,,,,,,,,agusV,001,d,2019_Oct_10_1335,Experimento,3.2.3,60.02040117180178,
8,14,14,999,0.5,0:10,3,Cyan,None,0,0,1,20:50,./completed_changuitos/montage_khqzc_103.79_119.85.jpg,right,0,0,0,0,,,,,0,10,10,10,,,,,,,,,0,0,0,0,0,4,4,4,,,,,,,,,,,,,,,,,,409.15471767001145,409.654503392012,['return'],0,409.15471767001145,409.15471767001145,[0.4330563209950924],,,,,,,,,,,,,,,,,,,,,,,,,,,,,,,,,,,,,,,,,,,,,,,,,,,,,,,,,,,,agusV,001,d,2019_Oct_10_1335,Experimento,3.2.3,60.02040117180178,
8,14,14,999,0.5,0:10,3,Blue,None,0,0,1,20:50,./completed_changuitos/montage_khqzc_103.79_119.85.jpg,right,0,0,0,0,,,,,0,10,10,10,,,,,,,,,0,0,0,0,0,5,5,5,,,,,,,,,,,,,,,,,,411.15388551400974,411.65384153299965,None,1,411.15388551400974,411.15388551400974,,,,,,,,,,,,,,,,,,,,,,,,,,,,,,,,,,,,,,,,,,,,,,,,,,,,,,,,,,,,,agusV,001,d,2019_Oct_10_1335,Experimento,3.2.3,60.02040117180178,
8,14,14,999,0.5,0:10,3,Cyan,['space'],0,0,1,20:50,./completed_changuitos/montage_khqzc_103.79_119.85.jpg,right,0,0,0,0,,,,,0,10,10,10,,,,,,,,,0,0,0,0,0,6,6,6,,,,,,,,,,,,,,,,,,413.15333030201145,413.6531523790036,None,0,413.15333030201145,413.15333030201145,,,,,,,,,,,,,,,,,,,,,,,,,,,,,,,,,,,,,,,,,,,,,,,,,,,,,,,,,,,,,agusV,001,d,2019_Oct_10_1335,Experimento,3.2.3,60.02040117180178,
8,14,14,999,0.5,0:10,3,Magenta,None,0,0,1,20:50,./completed_changuitos/montage_khqzc_103.79_119.85.jpg,right,0,0,0,0,,,,,0,10,10,10,,,,,,,,,0,0,0,0,0,7,7,7,,,,,,,,,,,,,,,,,,415.1359847580097,None,None,1,415.1359847580097,None,,,,,,,,,,,,,,,,,,,,,,,,,,,,,,,,,,,,,,,,,,,,,,,,,,,,,,,,,,,,,agusV,001,d,2019_Oct_10_1335,Experimento,3.2.3,60.02040117180178,
8,14,14,999,0.5,0:10,3,Red,None,0,0,1,20:50,./completed_changuitos/montage_khqzc_103.79_119.85.jpg,right,0,0,0,0,,,,,0,10,10,10,,,,,,,,,0,0,0,0,0,8,8,8,,,,,,,,,,,,,,,,,,415.1359847580097,None,None,1,415.1359847580097,None,,,,,,,,,,,,,,,,,,,,,,,,,,,,,,,,,,,,,,,,,,,,,,,,,,,,,,,,,,,,,agusV,001,d,2019_Oct_10_1335,Experimento,3.2.3,60.02040117180178,
8,14,14,999,0.5,0:10,3,Magenta,['space'],0,0,1,20:50,./completed_changuitos/montage_khqzc_103.79_119.85.jpg,right,0,0,0,0,,,,,0,10,10,10,,,,,,,,,0,0,0,0,0,9,9,9,,,,,,,,,,,,,,,,,,415.1359847580097,None,None,0,415.1359847580097,None,,,,,,,,,,,,,,,,,,,,,,,,,,,,,,,,,,,,,,,,,,,,,,,,,,,,,,,,,,,,,agusV,001,d,2019_Oct_10_1335,Experimento,3.2.3,60.02040117180178,
8,14,14,999,0.5,0:10,3,Green,None,0,0,1,20:50,./completed_changuitos/montage_khqzc_103.79_119.85.jpg,right,0,0,0,0,,,,,0,10,10,10,,,,,,,,,0,0,0,0,0,10,10,10,,,,,,,,,,,,,,,,,,415.1359847580097,None,None,1,415.1359847580097,None,,,,,,,,,,,,,,,,,,,,,,,,,,,,,,,,,,,,,,,,,,,,,,,,,,,,,,,,,,,,,agusV,001,d,2019_Oct_10_1335,Experimento,3.2.3,60.02040117180178,
8,14,14,999,0.5,0:10,3,Yellow,['space'],0,0,1,20:50,./completed_changuitos/montage_khqzc_103.79_119.85.jpg,right,0,0,0,0,,,,,0,10,10,10,,,,,,,,,0,0,0,0,0,11,11,11,,,,,,,,,,,,,,,,,,415.15264253701025,None,None,0,415.15264253701025,None,,,,,,,,,,,,,,,,,,,,,,,,,,,,,,,,,,,,,,,,,,,,,,,,,,,,,,,,,,,,,agusV,001,d,2019_Oct_10_1335,Experimento,3.2.3,60.02040117180178,
8,14,14,999,0.5,0:10,3,Blue,None,0,0,1,20:50,./completed_changuitos/montage_khqzc_103.79_119.85.jpg,right,0,0,0,0,,,,,0,10,10,10,,,,,,,,,0,0,0,0,0,12,12,12,,,,,,,,,,,,,,,,,,415.15264253701025,None,None,1,415.15264253701025,None,,,,,,,,,,,,,,,,,,,,,,,,,,,,,,,,,,,,,,,,,,,,,,,,,,,,,,,,,,,,,agusV,001,d,2019_Oct_10_1335,Experimento,3.2.3,60.02040117180178,
8,14,14,999,0.5,0:10,3,Cyan,None,0,0,1,20:50,./completed_changuitos/montage_khqzc_103.79_119.85.jpg,right,0,0,0,0,,,,,0,10,10,10,,,,,,,,,0,0,0,0,0,13,13,13,,,,,,,,,,,,,,,,,,415.15264253701025,None,None,1,415.15264253701025,None,,,,,,,,,,,,,,,,,,,,,,,,,,,,,,,,,,,,,,,,,,,,,,,,,,,,,,,,,,,,,agusV,001,d,2019_Oct_10_1335,Experimento,3.2.3,60.02040117180178,
8,14,14,999,0.5,0:10,3,Blue,['space'],0,0,1,20:50,./completed_changuitos/montage_khqzc_103.79_119.85.jpg,right,0,0,0,0,,,,,0,10,10,10,,,,,,,,,0,0,0,0,0,14,14,14,,,,,,,,,,,,,,,,,,415.15264253701025,None,None,0,415.15264253701025,None,,,,,,,,,,,,,,,,,,,,,,,,,,,,,,,,,,,,,,,,,,,,,,,,,,,,,,,,,,,,,agusV,001,d,2019_Oct_10_1335,Experimento,3.2.3,60.02040117180178,
8,14,14,999,0.5,0:10,3,Yellow,None,0,0,1,20:50,./completed_changuitos/montage_khqzc_103.79_119.85.jpg,right,0,0,0,0,,,,,0,10,10,10,,,,,,,,,0,0,0,0,0,15,15,15,,,,,,,,,,,,,,,,,,415.15264253701025,None,None,1,415.15264253701025,None,,,,,,,,,,,,,,,,,,,,,,,,,,,,,,,,,,,,,,,,,,,,,,,,,,,,,,,,,,,,,agusV,001,d,2019_Oct_10_1335,Experimento,3.2.3,60.02040117180178,
8,14,14,999,0.5,0:10,3,Cyan,None,0,0,1,20:50,./completed_changuitos/montage_khqzc_103.79_119.85.jpg,right,0,0,0,0,,,,,0,10,10,10,,,,,,,,,0,0,0,0,0,16,16,16,,,,,,,,,,,,,,,,,,415.15264253701025,None,None,1,415.15264253701025,None,,,,,,,,,,,,,,,,,,,,,,,,,,,,,,,,,,,,,,,,,,,,,,,,,,,,,,,,,,,,,agusV,001,d,2019_Oct_10_1335,Experimento,3.2.3,60.02040117180178,
8,14,14,999,0.5,0:10,3,Yellow,['space'],0,0,1,20:50,./completed_changuitos/montage_khqzc_103.79_119.85.jpg,right,0,0,0,0,,,,,0,10,10,10,,,,,,,,,0,0,0,0,0,17,17,17,,,,,,,,,,,,,,,,,,415.1693003160108,None,None,0,415.1693003160108,None,,,,,,,,,,,,,,,,,,,,,,,,,,,,,,,,,,,,,,,,,,,,,,,,,,,,,,,,,,,,,agusV,001,d,2019_Oct_10_1335,Experimento,3.2.3,60.02040117180178,
8,14,14,999,0.5,0:10,3,Magenta,None,0,0,1,20:50,./completed_changuitos/montage_khqzc_103.79_119.85.jpg,right,0,0,0,0,,,,,0,10,10,10,,,,,,,,,0,0,0,0,0,18,18,18,,,,,,,,,,,,,,,,,,415.1693003160108,None,None,1,415.1693003160108,None,,,,,,,,,,,,,,,,,,,,,,,,,,,,,,,,,,,,,,,,,,,,,,,,,,,,,,,,,,,,,agusV,001,d,2019_Oct_10_1335,Experimento,3.2.3,60.02040117180178,
8,14,14,999,0.5,0:10,3,Red,None,0,0,1,20:50,./completed_changuitos/montage_khqzc_103.79_119.85.jpg,right,0,0,0,0,,,,,0,10,10,10,,,,,,,,,0,0,0,0,0,19,19,19,,,,,,,,,,,,,,,,,,415.1693003160108,None,None,1,415.1693003160108,None,,,,,,,,,,,,,,,,,,,,,,,,,,,,,,,,,,,,,,,,,,,,,,,,,,,,,,,,,,,,,agusV,001,d,2019_Oct_10_1335,Experimento,3.2.3,60.02040117180178,
8,14,14,999,0.5,0:10,3,Magenta,['space'],0,0,1,20:50,./completed_changuitos/montage_khqzc_103.79_119.85.jpg,right,0,0,0,0,,,,,0,10,10,10,,,,,,,,,0,0,0,0,0,20,20,20,,,,,,,,,,,,,,,,,,415.1693003160108,None,None,0,415.1693003160108,None,,,,,,,,,,,,,,,,,,,,,,,,,,,,,,,,,,,,,,,,,,,,,,,,,,,,,,,,,,,,,agusV,001,d,2019_Oct_10_1335,Experimento,3.2.3,60.02040117180178,
8,14,14,999,0.5,0:10,3,Red,['space'],0,0,1,20:50,./completed_changuitos/montage_khqzc_103.79_119.85.jpg,right,0,0,0,0,,,,,0,10,10,10,,,,,,,,,0,0,0,0,0,21,21,21,,,,,,,,,,,,,,,,,,415.1693003160108,None,None,0,415.1693003160108,None,,,,,,,,,,,,,,,,,,,,,,,,,,,,,,,,,,,,,,,,,,,,,,,,,,,,,,,,,,,,,agusV,001,d,2019_Oct_10_1335,Experimento,3.2.3,60.02040117180178,
8,14,14,999,0.5,0:10,3,Yellow,None,0,0,1,20:50,./completed_changuitos/montage_khqzc_103.79_119.85.jpg,right,0,0,0,0,,,,,0,10,10,10,,,,,,,,,0,0,0,0,0,22,22,22,,,,,,,,,,,,,,,,,,415.1693003160108,None,None,1,415.1693003160108,None,,,,,,,,,,,,,,,,,,,,,,,,,,,,,,,,,,,,,,,,,,,,,,,,,,,,,,,,,,,,,agusV,001,d,2019_Oct_10_1335,Experimento,3.2.3,60.02040117180178,
8,14,14,999,0.5,0:10,3,Cyan,None,0,0,1,20:50,./completed_changuitos/montage_khqzc_103.79_119.85.jpg,right,0,0,0,0,,,,,0,10,10,10,,,,,,,,,0,0,0,0,0,23,23,23,,,,,,,,,,,,,,,,,,415.1693003160108,None,None,1,415.1693003160108,None,,,,,,,,,,,,,,,,,,,,,,,,,,,,,,,,,,,,,,,,,,,,,,,,,,,,,,,,,,,,,agusV,001,d,2019_Oct_10_1335,Experimento,3.2.3,60.02040117180178,
8,14,14,999,0.5,0:10,3,Green,None,0,0,1,20:50,./completed_changuitos/montage_khqzc_103.79_119.85.jpg,right,0,0,0,0,,,,,0,10,10,10,,,,,,,,,0,0,0,0,0,24,24,24,,,,,,,,,,,,,,,,,,415.1693003160108,None,None,1,415.1693003160108,None,,,,,,,,,,,,,,,,,,,,,,,,,,,,,,,,,,,,,,,,,,,,,,,,,,,,,,,,,,,,,agusV,001,d,2019_Oct_10_1335,Experimento,3.2.3,60.02040117180178,
8,14,14,999,0.5,0:10,3,White,None,0,0,1,20:50,./completed_changuitos/montage_khqzc_103.79_119.85.jpg,right,0,0,0,0,,,,,0,10,10,10,,,,,,,,,0,0,0,0,0,25,25,25,,,,,,,,,,,,,,,,,,415.1693003160108,None,None,1,415.1693003160108,None,,,,,,,,,,,,,,,,,,,,,,,,,,,,,,,,,,,,,,,,,,,,,,,,,,,,,,,,,,,,,agusV,001,d,2019_Oct_10_1335,Experimento,3.2.3,60.02040117180178,
8,14,14,999,0.5,0:10,3,Green,['space'],0,0,1,20:50,./completed_changuitos/montage_khqzc_103.79_119.85.jpg,right,0,0,0,0,,,,,0,10,10,10,,,,,,,,,0,0,0,0,0,26,26,26,,,,,,,,,,,,,,,,,,415.1693003160108,None,None,0,415.1693003160108,None,,,,,,,,,,,,,,,,,,,,,,,,,,,,,,,,,,,,,,,,,,,,,,,,,,,,,,,,,,,,,agusV,001,d,2019_Oct_10_1335,Experimento,3.2.3,60.02040117180178,
8,14,14,999,0.5,0:10,3,Red,None,0,0,1,20:50,./completed_changuitos/montage_khqzc_103.79_119.85.jpg,right,0,0,0,0,,,,,0,10,10,10,,,,,,,,,0,0,0,0,0,27,27,27,,,,,,,,,,,,,,,,,,415.1693003160108,None,None,1,415.1693003160108,None,,,,,,,,,,,,,,,,,,,,,,,,,,,,,,,,,,,,,,,,,,,,,,,,,,,,,,,,,,,,,agusV,001,d,2019_Oct_10_1335,Experimento,3.2.3,60.02040117180178,
8,14,14,999,0.5,0:10,3,Blue,None,0,0,1,20:50,./completed_changuitos/montage_khqzc_103.79_119.85.jpg,right,0,0,0,0,,,,,0,10,10,10,,,,,,,,,0,0,0,0,0,28,28,28,,,,,,,,,,,,,,,,,,415.1693003160108,None,None,1,415.1693003160108,None,,,,,,,,,,,,,,,,,,,,,,,,,,,,,,,,,,,,,,,,,,,,,,,,,,,,,,,,,,,,,agusV,001,d,2019_Oct_10_1335,Experimento,3.2.3,60.02040117180178,
8,14,14,999,0.5,0:10,3,Green,None,0,0,1,20:50,./completed_changuitos/montage_khqzc_103.79_119.85.jpg,right,0,0,0,0,,,,,0,10,10,10,,,,,,,,,0,0,0,0,0,29,29,29,,,,,,,,,,,,,,,,,,415.1693003160108,None,None,1,415.1693003160108,None,,,,,,,,,,,,,,,,,,,,,,,,,,,,,,,,,,,,,,,,,,,,,,,,,,,,,,,,,,,,,agusV,001,d,2019_Oct_10_1335,Experimento,3.2.3,60.02040117180178,
8,14,14,999,0.5,0:10,3,,,0,0,1,20:50,./completed_changuitos/montage_khqzc_103.79_119.85.jpg,right,0,0,0,0,,,,,0,10,10,10,,,,,,,,,0,0,0,0,,,,,,,,,,,,,,,,,,,,,,,,,,,,,415.2107531299989,None,left,0,1.8570156889909413,415.2107531299989,None,415.2107531299989,None,,,,,,,,,,,,,,,,,,,,,,,,,,,,,,,,,,,,,,,,,,,,,,,,,,,agusV,001,d,2019_Oct_10_1335,Experimento,3.2.3,60.02040117180178,
8,14,14,999,0.5,0:10,3,,,0,0,1,20:50,,,0,0,0,0,,,,,0,10,10,10,,,,,,,,,,,,,,,,,,,,,,,,,,,,,,,,,,,,,,,,,,,,,,,,,,,,,,,,,,,,,,,,,,,,,,,,,,,,,,,,,,,,,,,,,,,,,,,,,,,,agusV,001,d,2019_Oct_10_1335,Experimento,3.2.3,60.02040117180178,
8,14,14,999,0.5,0:10,3,Red,None,0,0,1,28:50,./completed_changuitos/montage_lferj_262.15_309.0.jpg,right,0,0,0,0,,,,,0,11,11,11,,,,,,,,,0,0,0,0,0,0,0,0,,,,,,,,,,,,,,417.19135426900175,418.2349506830069,418.2349506830069,None,426.2772042090073,426.78200605799793,None,1,426.2772042090073,None,,,,,,,,,,,,,,,,,,,,,,,,,,,,,,,,,,,,,,,,,,,,,,,,,,,,,,,,,,,,,agusV,001,d,2019_Oct_10_1335,Experimento,3.2.3,60.02040117180178,
8,14,14,999,0.5,0:10,3,Magenta,['space'],0,0,1,28:50,./completed_changuitos/montage_lferj_262.15_309.0.jpg,right,0,0,0,0,,,,,0,11,11,11,,,,,,,,,0,0,0,0,0,1,1,1,,,,,,,,,,,,,,,,,,428.28123751000385,428.7811322280031,None,0,428.28123751000385,428.28123751000385,,,,,,,,,,,,,,,,,,,,,,,,,,,,,,,,,,,,,,,,,,,,,,,,,,,,,,,,,,,,,agusV,001,d,2019_Oct_10_1335,Experimento,3.2.3,60.02040117180178,
8,14,14,999,0.5,0:10,3,Green,None,0,0,1,28:50,./completed_changuitos/montage_lferj_262.15_309.0.jpg,right,0,0,0,0,,,,,0,11,11,11,,,,,,,,,0,0,0,0,0,2,2,2,,,,,,,,,,,,,,,,,,430.28051684401,430.78062599600526,None,1,430.28051684401,430.28051684401,,,,,,,,,,,,,,,,,,,,,,,,,,,,,,,,,,,,,,,,,,,,,,,,,,,,,,,,,,,,,agusV,001,d,2019_Oct_10_1335,Experimento,3.2.3,60.02040117180178,
8,14,14,999,0.5,0:10,3,Yellow,['space'],0,0,1,28:50,./completed_changuitos/montage_lferj_262.15_309.0.jpg,right,0,0,0,0,,,,,0,11,11,11,,,,,,,,,0,0,0,0,0,3,3,3,,,,,,,,,,,,,,,,,,432.2813848180085,432.7962307990092,None,0,432.2813848180085,432.2813848180085,,,,,,,,,,,,,,,,,,,,,,,,,,,,,,,,,,,,,,,,,,,,,,,,,,,,,,,,,,,,,agusV,001,d,2019_Oct_10_1335,Experimento,3.2.3,60.02040117180178,
8,14,14,999,0.5,0:10,3,Blue,None,0,0,1,28:50,./completed_changuitos/montage_lferj_262.15_309.0.jpg,right,0,0,0,0,,,,,0,11,11,11,,,,,,,,,0,0,0,0,0,4,4,4,,,,,,,,,,,,,,,,,,434.2960789390054,434.7959323219984,None,1,434.2960789390054,434.2960789390054,,,,,,,,,,,,,,,,,,,,,,,,,,,,,,,,,,,,,,,,,,,,,,,,,,,,,,,,,,,,,agusV,001,d,2019_Oct_10_1335,Experimento,3.2.3,60.02040117180178,
8,14,14,999,0.5,0:10,3,Cyan,None,0,0,1,28:50,./completed_changuitos/montage_lferj_262.15_309.0.jpg,right,0,0,0,0,,,,,0,11,11,11,,,,,,,,,0,0,0,0,0,5,5,5,,,,,,,,,,,,,,,,,,436.29534084600164,436.7952208790084,None,1,436.29534084600164,436.29534084600164,,,,,,,,,,,,,,,,,,,,,,,,,,,,,,,,,,,,,,,,,,,,,,,,,,,,,,,,,,,,,agusV,001,d,2019_Oct_10_1335,Experimento,3.2.3,60.02040117180178,
8,14,14,999,0.5,0:10,3,Blue,['space'],0,0,1,28:50,./completed_changuitos/montage_lferj_262.15_309.0.jpg,right,0,0,0,0,,,,,0,11,11,11,,,,,,,,,0,0,0,0,0,6,6,6,,,,,,,,,,,,,,,,,,438.2947466510086,438.79454680399795,['return'],0,438.2947466510086,438.2947466510086,[0.8008593389968155],,,,,,,,,,,,,,,,,,,,,,,,,,,,,,,,,,,,,,,,,,,,,,,,,,,,,,,,,,,,agusV,001,d,2019_Oct_10_1335,Experimento,3.2.3,60.02040117180178,
8,14,14,999,0.5,0:10,3,Yellow,None,0,0,1,28:50,./completed_changuitos/montage_lferj_262.15_309.0.jpg,right,0,0,0,0,,,,,0,11,11,11,,,,,,,,,0,0,0,0,0,7,7,7,,,,,,,,,,,,,,,,,,440.26073635501234,None,None,1,440.26073635501234,None,,,,,,,,,,,,,,,,,,,,,,,,,,,,,,,,,,,,,,,,,,,,,,,,,,,,,,,,,,,,,agusV,001,d,2019_Oct_10_1335,Experimento,3.2.3,60.02040117180178,
8,14,14,999,0.5,0:10,3,Cyan,None,0,0,1,28:50,./completed_changuitos/montage_lferj_262.15_309.0.jpg,right,0,0,0,0,,,,,0,11,11,11,,,,,,,,,0,0,0,0,0,8,8,8,,,,,,,,,,,,,,,,,,440.26073635501234,None,None,1,440.26073635501234,None,,,,,,,,,,,,,,,,,,,,,,,,,,,,,,,,,,,,,,,,,,,,,,,,,,,,,,,,,,,,,agusV,001,d,2019_Oct_10_1335,Experimento,3.2.3,60.02040117180178,
8,14,14,999,0.5,0:10,3,Yellow,['space'],0,0,1,28:50,./completed_changuitos/montage_lferj_262.15_309.0.jpg,right,0,0,0,0,,,,,0,11,11,11,,,,,,,,,0,0,0,0,0,9,9,9,,,,,,,,,,,,,,,,,,440.26073635501234,None,None,0,440.26073635501234,None,,,,,,,,,,,,,,,,,,,,,,,,,,,,,,,,,,,,,,,,,,,,,,,,,,,,,,,,,,,,,agusV,001,d,2019_Oct_10_1335,Experimento,3.2.3,60.02040117180178,
8,14,14,999,0.5,0:10,3,Magenta,None,0,0,1,28:50,./completed_changuitos/montage_lferj_262.15_309.0.jpg,right,0,0,0,0,,,,,0,11,11,11,,,,,,,,,0,0,0,0,0,10,10,10,,,,,,,,,,,,,,,,,,440.26073635501234,None,None,1,440.26073635501234,None,,,,,,,,,,,,,,,,,,,,,,,,,,,,,,,,,,,,,,,,,,,,,,,,,,,,,,,,,,,,,agusV,001,d,2019_Oct_10_1335,Experimento,3.2.3,60.02040117180178,
8,14,14,999,0.5,0:10,3,Red,None,0,0,1,28:50,./completed_changuitos/montage_lferj_262.15_309.0.jpg,right,0,0,0,0,,,,,0,11,11,11,,,,,,,,,0,0,0,0,0,11,11,11,,,,,,,,,,,,,,,,,,440.27739413401287,None,None,1,440.27739413401287,None,,,,,,,,,,,,,,,,,,,,,,,,,,,,,,,,,,,,,,,,,,,,,,,,,,,,,,,,,,,,,agusV,001,d,2019_Oct_10_1335,Experimento,3.2.3,60.02040117180178,
8,14,14,999,0.5,0:10,3,Magenta,['space'],0,0,1,28:50,./completed_changuitos/montage_lferj_262.15_309.0.jpg,right,0,0,0,0,,,,,0,11,11,11,,,,,,,,,0,0,0,0,0,12,12,12,,,,,,,,,,,,,,,,,,440.27739413401287,None,None,0,440.27739413401287,None,,,,,,,,,,,,,,,,,,,,,,,,,,,,,,,,,,,,,,,,,,,,,,,,,,,,,,,,,,,,,agusV,001,d,2019_Oct_10_1335,Experimento,3.2.3,60.02040117180178,
8,14,14,999,0.5,0:10,3,Red,['space'],0,0,1,28:50,./completed_changuitos/montage_lferj_262.15_309.0.jpg,right,0,0,0,0,,,,,0,11,11,11,,,,,,,,,0,0,0,0,0,13,13,13,,,,,,,,,,,,,,,,,,440.27739413401287,None,None,0,440.27739413401287,None,,,,,,,,,,,,,,,,,,,,,,,,,,,,,,,,,,,,,,,,,,,,,,,,,,,,,,,,,,,,,agusV,001,d,2019_Oct_10_1335,Experimento,3.2.3,60.02040117180178,
8,14,14,999,0.5,0:10,3,Yellow,None,0,0,1,28:50,./completed_changuitos/montage_lferj_262.15_309.0.jpg,right,0,0,0,0,,,,,0,11,11,11,,,,,,,,,0,0,0,0,0,14,14,14,,,,,,,,,,,,,,,,,,440.27739413401287,None,None,1,440.27739413401287,None,,,,,,,,,,,,,,,,,,,,,,,,,,,,,,,,,,,,,,,,,,,,,,,,,,,,,,,,,,,,,agusV,001,d,2019_Oct_10_1335,Experimento,3.2.3,60.02040117180178,
8,14,14,999,0.5,0:10,3,Cyan,None,0,0,1,28:50,./completed_changuitos/montage_lferj_262.15_309.0.jpg,right,0,0,0,0,,,,,0,11,11,11,,,,,,,,,0,0,0,0,0,15,15,15,,,,,,,,,,,,,,,,,,440.27739413401287,None,None,1,440.27739413401287,None,,,,,,,,,,,,,,,,,,,,,,,,,,,,,,,,,,,,,,,,,,,,,,,,,,,,,,,,,,,,,agusV,001,d,2019_Oct_10_1335,Experimento,3.2.3,60.02040117180178,
8,14,14,999,0.5,0:10,3,Green,None,0,0,1,28:50,./completed_changuitos/montage_lferj_262.15_309.0.jpg,right,0,0,0,0,,,,,0,11,11,11,,,,,,,,,0,0,0,0,0,16,16,16,,,,,,,,,,,,,,,,,,440.27739413401287,None,None,1,440.27739413401287,None,,,,,,,,,,,,,,,,,,,,,,,,,,,,,,,,,,,,,,,,,,,,,,,,,,,,,,,,,,,,,agusV,001,d,2019_Oct_10_1335,Experimento,3.2.3,60.02040117180178,
8,14,14,999,0.5,0:10,3,White,None,0,0,1,28:50,./completed_changuitos/montage_lferj_262.15_309.0.jpg,right,0,0,0,0,,,,,0,11,11,11,,,,,,,,,0,0,0,0,0,17,17,17,,,,,,,,,,,,,,,,,,440.2940519130134,None,None,1,440.2940519130134,None,,,,,,,,,,,,,,,,,,,,,,,,,,,,,,,,,,,,,,,,,,,,,,,,,,,,,,,,,,,,,agusV,001,d,2019_Oct_10_1335,Experimento,3.2.3,60.02040117180178,
8,14,14,999,0.5,0:10,3,Green,['space'],0,0,1,28:50,./completed_changuitos/montage_lferj_262.15_309.0.jpg,right,0,0,0,0,,,,,0,11,11,11,,,,,,,,,0,0,0,0,0,18,18,18,,,,,,,,,,,,,,,,,,440.2940519130134,None,None,0,440.2940519130134,None,,,,,,,,,,,,,,,,,,,,,,,,,,,,,,,,,,,,,,,,,,,,,,,,,,,,,,,,,,,,,agusV,001,d,2019_Oct_10_1335,Experimento,3.2.3,60.02040117180178,
8,14,14,999,0.5,0:10,3,Red,None,0,0,1,28:50,./completed_changuitos/montage_lferj_262.15_309.0.jpg,right,0,0,0,0,,,,,0,11,11,11,,,,,,,,,0,0,0,0,0,19,19,19,,,,,,,,,,,,,,,,,,440.2940519130134,None,None,1,440.2940519130134,None,,,,,,,,,,,,,,,,,,,,,,,,,,,,,,,,,,,,,,,,,,,,,,,,,,,,,,,,,,,,,agusV,001,d,2019_Oct_10_1335,Experimento,3.2.3,60.02040117180178,
8,14,14,999,0.5,0:10,3,Blue,None,0,0,1,28:50,./completed_changuitos/montage_lferj_262.15_309.0.jpg,right,0,0,0,0,,,,,0,11,11,11,,,,,,,,,0,0,0,0,0,20,20,20,,,,,,,,,,,,,,,,,,440.2940519130134,None,None,1,440.2940519130134,None,,,,,,,,,,,,,,,,,,,,,,,,,,,,,,,,,,,,,,,,,,,,,,,,,,,,,,,,,,,,,agusV,001,d,2019_Oct_10_1335,Experimento,3.2.3,60.02040117180178,
8,14,14,999,0.5,0:10,3,Green,None,0,0,1,28:50,./completed_changuitos/montage_lferj_262.15_309.0.jpg,right,0,0,0,0,,,,,0,11,11,11,,,,,,,,,0,0,0,0,0,21,21,21,,,,,,,,,,,,,,,,,,440.2940519130134,None,None,1,440.2940519130134,None,,,,,,,,,,,,,,,,,,,,,,,,,,,,,,,,,,,,,,,,,,,,,,,,,,,,,,,,,,,,,agusV,001,d,2019_Oct_10_1335,Experimento,3.2.3,60.02040117180178,
8,14,14,999,0.5,0:10,3,,,0,0,1,28:50,./completed_changuitos/montage_lferj_262.15_309.0.jpg,right,0,0,0,0,,,,,0,11,11,11,,,,,,,,,0,0,0,0,,,,,,,,,,,,,,,,,,,,,,,,,,,,,440.328193319001,None,right,1,2.548656414001016,440.328193319001,None,440.328193319001,None,,,,,,,,,,,,,,,,,,,,,,,,,,,,,,,,,,,,,,,,,,,,,,,,,,,agusV,001,d,2019_Oct_10_1335,Experimento,3.2.3,60.02040117180178,
8,14,14,999,0.5,0:10,3,,,0,0,1,28:50,,,0,0,0,0,,,,,0,11,11,11,,,,,,,,,,,,,,,,,,,,,,,,,,,,,,,,,,,,,,,,,,,,,,,,,,,,,,,,,,,,,,,,,,,,,,,,,,,,,,,,,,,,,,,,,,,,,,,,,,,,agusV,001,d,2019_Oct_10_1335,Experimento,3.2.3,60.02040117180178,
8,14,14,999,0.5,0:10,3,,,1,0,0,30:50,./completed_changuitos/montage_gvtsp_63.65_54.79.jpg,left,0,0,0,0,,,,,0,12,12,12,0,0,0,0,,,,,,,,,,,,,,,,,,,,,,,,,,,,,,,,,,,,,,,,,,,,,,,,,,,,,,,,,,,,,443.4929337580106,444.5759065239981,444.5759065239981,452.58984418700857,right,0,0.916840965001029,452.58984418700857,None,452.58984418700857,None,452.58984418700857,None,,,,,,,,,,,,,,,,,,,,,,,agusV,001,d,2019_Oct_10_1335,Experimento,3.2.3,60.02040117180178,
8,14,14,999,0.5,0:10,3,,,1,0,0,30:50,,,0,0,0,0,,,,,0,12,12,12,,,,,,,,,,,,,,,,,,,,,,,,,,,,,,,,,,,,,,,,,,,,,,,,,,,,,,,,,,,,,,,,,,,,,,,,,,,,,,,,,,,,,,,,,,,,,,,,,,,,agusV,001,d,2019_Oct_10_1335,Experimento,3.2.3,60.02040117180178,
8,14,14,999,0.5,0:10,3,,,1,0,0,32:50,./completed_changuitos/montage_moivf_65.85_76.09.jpg,right,0,0,0,0,,,,,0,13,13,13,0,0,0,0,,,,,,,,,,,,,,,,,,,,,,,,,,,,,,,,,,,,,,,,,,,,,,,,,,,,,,,,,,,,,454.1560048780084,455.8554548390093,455.8554548390093,463.8693258030107,left,0,1.1168692789942725,463.8693258030107,None,463.8693258030107,None,463.8693258030107,None,,,,,,,,,,,,,,,,,,,,,,,agusV,001,d,2019_Oct_10_1335,Experimento,3.2.3,60.02040117180178,
8,14,14,999,0.5,0:10,3,,,1,0,0,32:50,,,0,0,0,0,,,,,0,13,13,13,,,,,,,,,,,,,,,,,,,,,,,,,,,,,,,,,,,,,,,,,,,,,,,,,,,,,,,,,,,,,,,,,,,,,,,,,,,,,,,,,,,,,,,,,,,,,,,,,,,,agusV,001,d,2019_Oct_10_1335,Experimento,3.2.3,60.02040117180178,
8,14,14,999,0.5,0:10,3,,,1,0,0,34:50,./completed_changuitos/montage_jygaf_77.05_87.65.jpg,right,0,0,0,0,,,,,0,14,14,14,0,0,0,0,,,,,,,,,,,,,,,,,,,,,,,,,,,,,,,,,,,,,,,,,,,,,,,,,,,,,,,,,,,,,465.6187093680055,466.7513255520025,466.7513255520025,474.76519389300665,left,0,0.5504244090116117,474.76519389300665,None,474.76519389300665,None,474.76519389300665,None,,,,,,,,,,,,,,,,,,,,,,,agusV,001,d,2019_Oct_10_1335,Experimento,3.2.3,60.02040117180178,
8,14,14,999,0.5,0:10,3,,,1,0,0,34:50,,,0,0,0,0,,,,,0,14,14,14,,,,,,,,,,,,,,,,,,,,,,,,,,,,,,,,,,,,,,,,,,,,,,,,,,,,,,,,,,,,,,,,,,,,,,,,,,,,,,,,,,,,,,,,,,,,,,,,,,,,agusV,001,d,2019_Oct_10_1335,Experimento,3.2.3,60.02040117180178,
8,14,14,999,0.5,0:10,3,,,1,0,0,30:50,./completed_changuitos/montage_tacrp_112.25_126.25.jpg,right,0,0,0,0,,,,,0,15,15,15,0,0,0,0,,,,,,,,,,,,,,,,,,,,,,,,,,,,,,,,,,,,,,,,,,,,,,,,,,,,,,,,,,,,,475.94815117301187,476.7145350540086,476.7145350540086,484.7285281730001,right,1,0.5666594130016165,484.7285281730001,None,484.7285281730001,None,484.7285281730001,None,,,,,,,,,,,,,,,,,,,,,,,agusV,001,d,2019_Oct_10_1335,Experimento,3.2.3,60.02040117180178,
8,14,14,999,0.5,0:10,3,,,1,0,0,30:50,,,0,0,0,0,,,,,0,15,15,15,,,,,,,,,,,,,,,,,,,,,,,,,,,,,,,,,,,,,,,,,,,,,,,,,,,,,,,,,,,,,,,,,,,,,,,,,,,,,,,,,,,,,,,,,,,,,,,,,,,,agusV,001,d,2019_Oct_10_1335,Experimento,3.2.3,60.02040117180178,
8,14,14,999,0.5,0:10,3,,,1,0,0,32:50,./completed_changuitos/montage_lqhpq_169.0_147.29.jpg,left,0,0,0,0,,,,,0,16,16,16,0,0,0,0,,,,,,,,,,,,,,,,,,,,,,,,,,,,,,,,,,,,,,,,,,,,,,,,,,,,,,,,,,,,,485.94473019900033,486.7282190570113,486.7282190570113,494.7417364540015,right,0,2.1164575809962116,494.7417364540015,None,494.7417364540015,None,494.7417364540015,None,,,,,,,,,,,,,,,,,,,,,,,agusV,001,d,2019_Oct_10_1335,Experimento,3.2.3,60.02040117180178,
8,14,14,999,0.5,0:10,3,,,1,0,0,32:50,,,0,0,0,0,,,,,0,16,16,16,,,,,,,,,,,,,,,,,,,,,,,,,,,,,,,,,,,,,,,,,,,,,,,,,,,,,,,,,,,,,,,,,,,,,,,,,,,,,,,,,,,,,,,,,,,,,,,,,,,,agusV,001,d,2019_Oct_10_1335,Experimento,3.2.3,60.02040117180178,
8,14,14,999,0.5,0:10,3,,,1,0,0,34:50,./completed_changuitos/montage_bfrml_95.75_83.99.jpg,left,0,0,0,0,,,,,0,17,17,17,0,0,0,0,,,,,,,,,,,,,,,,,,,,,,,,,,,,,,,,,,,,,,,,,,,,,,,,,,,,,,,,,,,,,497.49111538400757,498.1743876640103,498.1743876640103,506.18821159700747,left,1,0.6168938259943388,506.18821159700747,None,506.18821159700747,None,506.18821159700747,None,,,,,,,,,,,,,,,,,,,,,,,agusV,001,d,2019_Oct_10_1335,Experimento,3.2.3,60.02040117180178,
8,14,14,999,0.5,0:10,3,,,1,0,0,34:50,,,0,0,0,0,,,,,0,17,17,17,,,,,,,,,,,,,,,,,,,,,,,,,,,,,,,,,,,,,,,,,,,,,,,,,,,,,,,,,,,,,,,,,,,,,,,,,,,,,,,,,,,,,,,,,,,,,,,,,,,,agusV,001,d,2019_Oct_10_1335,Experimento,3.2.3,60.02040117180178,
8,14,14,999,0.5,0:10,3,,,,,,,,,0,0,0,0,,,,,,,,,,,,,,,,,,,,,,,,,,,,,,,,,,,,,,,,,,,,,,,,,,,,,,,,,,,,,,,,,,,,,,,,,,,,,,,,,,,,,,506.8737894490041,507.82100787499803,1,12.49592909499188,507.82100787499803,None,507.82100787499803,None,b,6.3816308209934505,520.33312944301,None,520.33312944301,None,520.33312944301,None,526.731030904004,None,5,5.5320693960093195,526.731030904004,None,agusV,001,d,2019_Oct_10_1335,Experimento,3.2.3,60.02040117180178,
