changuito_time_to_show,time_to_think,time_to_play,total_items,nback_stimulus_time,nback_training,time_to_show_tiny_stimulus,colourtest,corresp,inmediato,consciente,inconsciente,nback_slice,imagen,correcta,trials_5.thisRepN,trials_5.thisTrialN,trials_5.thisN,trials_5.thisIndex,nback_train.thisRepN,nback_train.thisTrialN,nback_train.thisN,nback_train.thisIndex,treatment_order.thisRepN,treatment_order.thisTrialN,treatment_order.thisN,treatment_order.thisIndex,trials.thisRepN,trials.thisTrialN,trials.thisN,trials.thisIndex,trials_2.thisRepN,trials_2.thisTrialN,trials_2.thisN,trials_2.thisIndex,trials_3.thisRepN,trials_3.thisTrialN,trials_3.thisN,trials_3.thisIndex,trials_4.thisRepN,trials_4.thisTrialN,trials_4.thisN,trials_4.thisIndex,Presentacion.started,Presentacion.stopped,Juego.started,Juego.stopped,image_6.started,image_6.stopped,polygon.started,polygon.stopped,nback_train_resp.keys,nback_train_resp.corr,nback_train_resp.started,nback_train_resp.stopped,nback_train_resp.rt,holi.started,holi.stopped,image_3.started,image_3.stopped,polygon_2.started,polygon_2.stopped,nback_train_resp_2.keys,nback_train_resp_2.corr,nback_train_resp_2.started,nback_train_resp_2.stopped,nback_train_resp_2.rt,text_2.started,text_2.stopped,key_resp.keys,key_resp.corr,key_resp.rt,key_resp.started,key_resp.stopped,image_5.started,image_5.stopped,hola.started,hola.stopped,image_2.started,image_2.stopped,tiempo_para_pensar.started,tiempo_para_pensar.stopped,respuesta_consciente.keys,respuesta_consciente.corr,respuesta_consciente.rt,respuesta_consciente.started,respuesta_consciente.stopped,cual_es_la_mas_barata.started,cual_es_la_mas_barata.stopped,image_4.started,image_4.stopped,text.started,text.stopped,image.started,image.stopped,respuesta_inmediato.keys,respuesta_inmediato.corr,respuesta_inmediato.rt,respuesta_inmediato.started,respuesta_inmediato.stopped,pregunta_cual_es_el_mas_barato.started,pregunta_cual_es_el_mas_barato.stopped,short_stim1.started,short_stim1.stopped,gracias.started,gracias.stopped,respuesta1.keys,respuesta1.rt,respuesta1.started,respuesta1.stopped,pregunta1.started,pregunta1.stopped,respuesta3bis_3.keys,respuesta3bis_3.rt,respuesta3bis_3.started,respuesta3bis_3.stopped,pregunta3_3.started,pregunta3_3.stopped,productoCon3RANGOSabc_3.started,productoCon3RANGOSabc_3.stopped,text_3.started,text_3.stopped,key_resp_2.keys,key_resp_2.rt,key_resp_2.started,key_resp_2.stopped,participant,session,group,date,expName,psychopyVersion,frameRate,
8,14,14,999,0.5,0:10,3,White,None,,,,,,,0,0,0,0,0,0,0,0,,,,,,,,,,,,,,,,,,,,,13.544495091999124,None,43.95447786099976,None,43.95447786099976,None,106.38400143000035,106.88478417299484,None,1,106.38400143000035,None,,,,,,,,,,,,,,,,,,,,,,,,,,,,,,,,,,,,,,,,,,,,,,,,,,,,,,,,,,,,,,,,,,,,,,,,alejandroD,001,b,2019_Oct_11_2028,Experimento,3.2.3,59.825309854137416,
8,14,14,999,0.5,0:10,3,Red,None,,,,,,,0,0,0,0,0,1,1,1,,,,,,,,,,,,,,,,,,,,,,,,,,,108.38540336900041,108.88518859099713,None,1,108.38540336900041,108.38540336900041,,,,,,,,,,,,,,,,,,,,,,,,,,,,,,,,,,,,,,,,,,,,,,,,,,,,,,,,,,,,,,,,,,,,,,,,alejandroD,001,b,2019_Oct_11_2028,Experimento,3.2.3,59.825309854137416,
8,14,14,999,0.5,0:10,3,Magenta,None,,,,,,,0,0,0,0,0,2,2,2,,,,,,,,,,,,,,,,,,,,,,,,,,,110.38468027600175,110.88535010399937,None,1,110.38468027600175,110.38468027600175,,,,,,,,,,,,,,,,,,,,,,,,,,,,,,,,,,,,,,,,,,,,,,,,,,,,,,,,,,,,,,,,,,,,,,,,alejandroD,001,b,2019_Oct_11_2028,Experimento,3.2.3,59.825309854137416,
8,14,14,999,0.5,0:10,3,Cyan,None,,,,,,,0,0,0,0,0,3,3,3,,,,,,,,,,,,,,,,,,,,,,,,,,,112.38535091900121,112.88531843899545,None,1,112.38535091900121,112.38535091900121,,,,,,,,,,,,,,,,,,,,,,,,,,,,,,,,,,,,,,,,,,,,,,,,,,,,,,,,,,,,,,,,,,,,,,,,alejandroD,001,b,2019_Oct_11_2028,Experimento,3.2.3,59.825309854137416,
8,14,14,999,0.5,0:10,3,Magenta,['space'],,,,,,,0,0,0,0,0,4,4,4,,,,,,,,,,,,,,,,,,,,,,,,,,,114.38533591099986,114.88523094899574,['return'],0,114.38533591099986,114.38533591099986,[0.6061575510029797],,,,,,,,,,,,,,,,,,,,,,,,,,,,,,,,,,,,,,,,,,,,,,,,,,,,,,,,,,,,,,,,,,,,,,,alejandroD,001,b,2019_Oct_11_2028,Experimento,3.2.3,59.825309854137416,
8,14,14,999,0.5,0:10,3,Green,None,,,,,,,0,0,0,0,0,5,5,5,,,,,,,,,,,,,,,,,,,,,,,,,,,116.38507582999591,116.88519609600189,None,1,116.38507582999591,116.38507582999591,,,,,,,,,,,,,,,,,,,,,,,,,,,,,,,,,,,,,,,,,,,,,,,,,,,,,,,,,,,,,,,,,,,,,,,,alejandroD,001,b,2019_Oct_11_2028,Experimento,3.2.3,59.825309854137416,
8,14,14,999,0.5,0:10,3,White,None,,,,,,,0,0,0,0,0,6,6,6,,,,,,,,,,,,,,,,,,,,,,,,,,,118.38531850699655,118.88517305899586,['return'],0,118.38531850699655,118.38531850699655,[0.5687133480023476],,,,,,,,,,,,,,,,,,,,,,,,,,,,,,,,,,,,,,,,,,,,,,,,,,,,,,,,,,,,,,,,,,,,,,,alejandroD,001,b,2019_Oct_11_2028,Experimento,3.2.3,59.825309854137416,
8,14,14,999,0.5,0:10,3,Green,['space'],,,,,,,0,0,0,0,0,7,7,7,,,,,,,,,,,,,,,,,,,,,,,,,,,120.38477697399503,120.88497759799793,['return'],0,120.38477697399503,120.38477697399503,[0.9960182780050673],,,,,,,,,,,,,,,,,,,,,,,,,,,,,,,,,,,,,,,,,,,,,,,,,,,,,,,,,,,,,,,,,,,,,,,alejandroD,001,b,2019_Oct_11_2028,Experimento,3.2.3,59.825309854137416,
8,14,14,999,0.5,0:10,3,Blue,None,,,,,,,0,0,0,0,0,8,8,8,,,,,,,,,,,,,,,,,,,,,,,,,,,122.3848124540018,122.88501784500113,None,1,122.3848124540018,122.3848124540018,,,,,,,,,,,,,,,,,,,,,,,,,,,,,,,,,,,,,,,,,,,,,,,,,,,,,,,,,,,,,,,,,,,,,,,,alejandroD,001,b,2019_Oct_11_2028,Experimento,3.2.3,59.825309854137416,
8,14,14,999,0.5,0:10,3,Green,['space'],,,,,,,0,0,0,0,0,9,9,9,,,,,,,,,,,,,,,,,,,,,,,,,,,124.38509977099602,124.8850089539992,['return'],0,124.38509977099602,124.38509977099602,[0.5476842049974948],,,,,,,,,,,,,,,,,,,,,,,,,,,,,,,,,,,,,,,,,,,,,,,,,,,,,,,,,,,,,,,,,,,,,,,alejandroD,001,b,2019_Oct_11_2028,Experimento,3.2.3,59.825309854137416,
8,14,14,999,0.5,0:10,3,Yellow,None,0,0,1,15:50,./completed_changuitos/montage_ypuzy_45.89_51.99.jpg,right,0,0,0,0,,,,,0,0,0,0,,,,,,,,,0,0,0,0,0,0,0,0,,,,,,,,,,,,,,126.61876683299488,156.25169427299988,156.25169427299988,None,164.2714709799984,164.7849969070012,None,1,164.2714709799984,None,,,,,,,,,,,,,,,,,,,,,,,,,,,,,,,,,,,,,,,,,,,,,,,,,,,,,,,,,,,,,alejandroD,001,b,2019_Oct_11_2028,Experimento,3.2.3,59.825309854137416,
8,14,14,999,0.5,0:10,3,White,['space'],0,0,1,15:50,./completed_changuitos/montage_ypuzy_45.89_51.99.jpg,right,0,0,0,0,,,,,0,0,0,0,,,,,,,,,0,0,0,0,0,1,1,1,,,,,,,,,,,,,,,,,,166.28556294400187,166.78499622499658,None,0,166.28556294400187,166.28556294400187,,,,,,,,,,,,,,,,,,,,,,,,,,,,,,,,,,,,,,,,,,,,,,,,,,,,,,,,,,,,,alejandroD,001,b,2019_Oct_11_2028,Experimento,3.2.3,59.825309854137416,
8,14,14,999,0.5,0:10,3,Magenta,None,0,0,1,15:50,./completed_changuitos/montage_ypuzy_45.89_51.99.jpg,right,0,0,0,0,,,,,0,0,0,0,,,,,,,,,0,0,0,0,0,2,2,2,,,,,,,,,,,,,,,,,,168.28502287899755,168.78505210099684,None,1,168.28502287899755,168.28502287899755,,,,,,,,,,,,,,,,,,,,,,,,,,,,,,,,,,,,,,,,,,,,,,,,,,,,,,,,,,,,,alejandroD,001,b,2019_Oct_11_2028,Experimento,3.2.3,59.825309854137416,
8,14,14,999,0.5,0:10,3,Cyan,None,0,0,1,15:50,./completed_changuitos/montage_ypuzy_45.89_51.99.jpg,right,0,0,0,0,,,,,0,0,0,0,,,,,,,,,0,0,0,0,0,3,3,3,,,,,,,,,,,,,,,,,,170.28499072900013,170.78432089599664,None,1,170.28499072900013,170.28499072900013,,,,,,,,,,,,,,,,,,,,,,,,,,,,,,,,,,,,,,,,,,,,,,,,,,,,,,,,,,,,,alejandroD,001,b,2019_Oct_11_2028,Experimento,3.2.3,59.825309854137416,
8,14,14,999,0.5,0:10,3,Blue,None,0,0,1,15:50,./completed_changuitos/montage_ypuzy_45.89_51.99.jpg,right,0,0,0,0,,,,,0,0,0,0,,,,,,,,,0,0,0,0,0,4,4,4,,,,,,,,,,,,,,,,,,172.28497592899657,172.78495621899492,None,1,172.28497592899657,172.28497592899657,,,,,,,,,,,,,,,,,,,,,,,,,,,,,,,,,,,,,,,,,,,,,,,,,,,,,,,,,,,,,alejandroD,001,b,2019_Oct_11_2028,Experimento,3.2.3,59.825309854137416,
8,14,14,999,0.5,0:10,3,Magenta,None,0,0,1,15:50,./completed_changuitos/montage_ypuzy_45.89_51.99.jpg,right,0,0,0,0,,,,,0,0,0,0,,,,,,,,,0,0,0,0,0,5,5,5,,,,,,,,,,,,,,,,,,174.28497417199833,174.78522952099593,['return'],0,174.28497417199833,174.28497417199833,[0.5167650749936001],,,,,,,,,,,,,,,,,,,,,,,,,,,,,,,,,,,,,,,,,,,,,,,,,,,,,,,,,,,,alejandroD,001,b,2019_Oct_11_2028,Experimento,3.2.3,59.825309854137416,
8,14,14,999,0.5,0:10,3,Blue,['space'],0,0,1,15:50,./completed_changuitos/montage_ypuzy_45.89_51.99.jpg,right,0,0,0,0,,,,,0,0,0,0,,,,,,,,,0,0,0,0,0,6,6,6,,,,,,,,,,,,,,,,,,176.2850436009976,176.78489597999578,['return'],0,176.2850436009976,176.2850436009976,[0.7294654589932179],,,,,,,,,,,,,,,,,,,,,,,,,,,,,,,,,,,,,,,,,,,,,,,,,,,,,,,,,,,,alejandroD,001,b,2019_Oct_11_2028,Experimento,3.2.3,59.825309854137416,
8,14,14,999,0.5,0:10,3,Cyan,None,0,0,1,15:50,./completed_changuitos/montage_ypuzy_45.89_51.99.jpg,right,0,0,0,0,,,,,0,0,0,0,,,,,,,,,0,0,0,0,0,7,7,7,,,,,,,,,,,,,,,,,,178.25146134400057,None,None,1,178.25146134400057,None,,,,,,,,,,,,,,,,,,,,,,,,,,,,,,,,,,,,,,,,,,,,,,,,,,,,,,,,,,,,,alejandroD,001,b,2019_Oct_11_2028,Experimento,3.2.3,59.825309854137416,
8,14,14,999,0.5,0:10,3,Yellow,None,0,0,1,15:50,./completed_changuitos/montage_ypuzy_45.89_51.99.jpg,right,0,0,0,0,,,,,0,0,0,0,,,,,,,,,0,0,0,0,0,8,8,8,,,,,,,,,,,,,,,,,,178.25146134400057,None,None,1,178.25146134400057,None,,,,,,,,,,,,,,,,,,,,,,,,,,,,,,,,,,,,,,,,,,,,,,,,,,,,,,,,,,,,,alejandroD,001,b,2019_Oct_11_2028,Experimento,3.2.3,59.825309854137416,
8,14,14,999,0.5,0:10,3,Cyan,None,0,0,1,15:50,./completed_changuitos/montage_ypuzy_45.89_51.99.jpg,right,0,0,0,0,,,,,0,0,0,0,,,,,,,,,0,0,0,0,0,9,9,9,,,,,,,,,,,,,,,,,,178.25146134400057,None,None,1,178.25146134400057,None,,,,,,,,,,,,,,,,,,,,,,,,,,,,,,,,,,,,,,,,,,,,,,,,,,,,,,,,,,,,,alejandroD,001,b,2019_Oct_11_2028,Experimento,3.2.3,59.825309854137416,
8,14,14,999,0.5,0:10,3,Blue,None,0,0,1,15:50,./completed_changuitos/montage_ypuzy_45.89_51.99.jpg,right,0,0,0,0,,,,,0,0,0,0,,,,,,,,,0,0,0,0,0,10,10,10,,,,,,,,,,,,,,,,,,178.25146134400057,None,None,1,178.25146134400057,None,,,,,,,,,,,,,,,,,,,,,,,,,,,,,,,,,,,,,,,,,,,,,,,,,,,,,,,,,,,,,alejandroD,001,b,2019_Oct_11_2028,Experimento,3.2.3,59.825309854137416,
8,14,14,999,0.5,0:10,3,Cyan,['space'],0,0,1,15:50,./completed_changuitos/montage_ypuzy_45.89_51.99.jpg,right,0,0,0,0,,,,,0,0,0,0,,,,,,,,,0,0,0,0,0,11,11,11,,,,,,,,,,,,,,,,,,178.25146134400057,None,None,0,178.25146134400057,None,,,,,,,,,,,,,,,,,,,,,,,,,,,,,,,,,,,,,,,,,,,,,,,,,,,,,,,,,,,,,alejandroD,001,b,2019_Oct_11_2028,Experimento,3.2.3,59.825309854137416,
8,14,14,999,0.5,0:10,3,Magenta,None,0,0,1,15:50,./completed_changuitos/montage_ypuzy_45.89_51.99.jpg,right,0,0,0,0,,,,,0,0,0,0,,,,,,,,,0,0,0,0,0,12,12,12,,,,,,,,,,,,,,,,,,178.25146134400057,None,None,1,178.25146134400057,None,,,,,,,,,,,,,,,,,,,,,,,,,,,,,,,,,,,,,,,,,,,,,,,,,,,,,,,,,,,,,alejandroD,001,b,2019_Oct_11_2028,Experimento,3.2.3,59.825309854137416,
8,14,14,999,0.5,0:10,3,Red,None,0,0,1,15:50,./completed_changuitos/montage_ypuzy_45.89_51.99.jpg,right,0,0,0,0,,,,,0,0,0,0,,,,,,,,,0,0,0,0,0,13,13,13,,,,,,,,,,,,,,,,,,178.25146134400057,None,None,1,178.25146134400057,None,,,,,,,,,,,,,,,,,,,,,,,,,,,,,,,,,,,,,,,,,,,,,,,,,,,,,,,,,,,,,alejandroD,001,b,2019_Oct_11_2028,Experimento,3.2.3,59.825309854137416,
8,14,14,999,0.5,0:10,3,Magenta,['space'],0,0,1,15:50,./completed_changuitos/montage_ypuzy_45.89_51.99.jpg,right,0,0,0,0,,,,,0,0,0,0,,,,,,,,,0,0,0,0,0,14,14,14,,,,,,,,,,,,,,,,,,178.26802638000083,None,None,0,178.26802638000083,None,,,,,,,,,,,,,,,,,,,,,,,,,,,,,,,,,,,,,,,,,,,,,,,,,,,,,,,,,,,,,alejandroD,001,b,2019_Oct_11_2028,Experimento,3.2.3,59.825309854137416,
8,14,14,999,0.5,0:10,3,Green,None,0,0,1,15:50,./completed_changuitos/montage_ypuzy_45.89_51.99.jpg,right,0,0,0,0,,,,,0,0,0,0,,,,,,,,,0,0,0,0,0,15,15,15,,,,,,,,,,,,,,,,,,178.26802638000083,None,None,1,178.26802638000083,None,,,,,,,,,,,,,,,,,,,,,,,,,,,,,,,,,,,,,,,,,,,,,,,,,,,,,,,,,,,,,alejandroD,001,b,2019_Oct_11_2028,Experimento,3.2.3,59.825309854137416,
8,14,14,999,0.5,0:10,3,Yellow,['space'],0,0,1,15:50,./completed_changuitos/montage_ypuzy_45.89_51.99.jpg,right,0,0,0,0,,,,,0,0,0,0,,,,,,,,,0,0,0,0,0,16,16,16,,,,,,,,,,,,,,,,,,178.26802638000083,None,None,0,178.26802638000083,None,,,,,,,,,,,,,,,,,,,,,,,,,,,,,,,,,,,,,,,,,,,,,,,,,,,,,,,,,,,,,alejandroD,001,b,2019_Oct_11_2028,Experimento,3.2.3,59.825309854137416,
8,14,14,999,0.5,0:10,3,Blue,None,0,0,1,15:50,./completed_changuitos/montage_ypuzy_45.89_51.99.jpg,right,0,0,0,0,,,,,0,0,0,0,,,,,,,,,0,0,0,0,0,17,17,17,,,,,,,,,,,,,,,,,,178.26802638000083,None,None,1,178.26802638000083,None,,,,,,,,,,,,,,,,,,,,,,,,,,,,,,,,,,,,,,,,,,,,,,,,,,,,,,,,,,,,,alejandroD,001,b,2019_Oct_11_2028,Experimento,3.2.3,59.825309854137416,
8,14,14,999,0.5,0:10,3,Cyan,None,0,0,1,15:50,./completed_changuitos/montage_ypuzy_45.89_51.99.jpg,right,0,0,0,0,,,,,0,0,0,0,,,,,,,,,0,0,0,0,0,18,18,18,,,,,,,,,,,,,,,,,,178.26802638000083,None,None,1,178.26802638000083,None,,,,,,,,,,,,,,,,,,,,,,,,,,,,,,,,,,,,,,,,,,,,,,,,,,,,,,,,,,,,,alejandroD,001,b,2019_Oct_11_2028,Experimento,3.2.3,59.825309854137416,
8,14,14,999,0.5,0:10,3,Blue,['space'],0,0,1,15:50,./completed_changuitos/montage_ypuzy_45.89_51.99.jpg,right,0,0,0,0,,,,,0,0,0,0,,,,,,,,,0,0,0,0,0,19,19,19,,,,,,,,,,,,,,,,,,178.26802638000083,None,None,0,178.26802638000083,None,,,,,,,,,,,,,,,,,,,,,,,,,,,,,,,,,,,,,,,,,,,,,,,,,,,,,,,,,,,,,alejandroD,001,b,2019_Oct_11_2028,Experimento,3.2.3,59.825309854137416,
8,14,14,999,0.5,0:10,3,Yellow,None,0,0,1,15:50,./completed_changuitos/montage_ypuzy_45.89_51.99.jpg,right,0,0,0,0,,,,,0,0,0,0,,,,,,,,,0,0,0,0,0,20,20,20,,,,,,,,,,,,,,,,,,178.26802638000083,None,None,1,178.26802638000083,None,,,,,,,,,,,,,,,,,,,,,,,,,,,,,,,,,,,,,,,,,,,,,,,,,,,,,,,,,,,,,alejandroD,001,b,2019_Oct_11_2028,Experimento,3.2.3,59.825309854137416,
8,14,14,999,0.5,0:10,3,Cyan,None,0,0,1,15:50,./completed_changuitos/montage_ypuzy_45.89_51.99.jpg,right,0,0,0,0,,,,,0,0,0,0,,,,,,,,,0,0,0,0,0,21,21,21,,,,,,,,,,,,,,,,,,178.26802638000083,None,None,1,178.26802638000083,None,,,,,,,,,,,,,,,,,,,,,,,,,,,,,,,,,,,,,,,,,,,,,,,,,,,,,,,,,,,,,alejandroD,001,b,2019_Oct_11_2028,Experimento,3.2.3,59.825309854137416,
8,14,14,999,0.5,0:10,3,Yellow,['space'],0,0,1,15:50,./completed_changuitos/montage_ypuzy_45.89_51.99.jpg,right,0,0,0,0,,,,,0,0,0,0,,,,,,,,,0,0,0,0,0,22,22,22,,,,,,,,,,,,,,,,,,178.26802638000083,None,None,0,178.26802638000083,None,,,,,,,,,,,,,,,,,,,,,,,,,,,,,,,,,,,,,,,,,,,,,,,,,,,,,,,,,,,,,alejandroD,001,b,2019_Oct_11_2028,Experimento,3.2.3,59.825309854137416,
8,14,14,999,0.5,0:10,3,Magenta,None,0,0,1,15:50,./completed_changuitos/montage_ypuzy_45.89_51.99.jpg,right,0,0,0,0,,,,,0,0,0,0,,,,,,,,,0,0,0,0,0,23,23,23,,,,,,,,,,,,,,,,,,178.26802638000083,None,None,1,178.26802638000083,None,,,,,,,,,,,,,,,,,,,,,,,,,,,,,,,,,,,,,,,,,,,,,,,,,,,,,,,,,,,,,alejandroD,001,b,2019_Oct_11_2028,Experimento,3.2.3,59.825309854137416,
8,14,14,999,0.5,0:10,3,Red,None,0,0,1,15:50,./completed_changuitos/montage_ypuzy_45.89_51.99.jpg,right,0,0,0,0,,,,,0,0,0,0,,,,,,,,,0,0,0,0,0,24,24,24,,,,,,,,,,,,,,,,,,178.26802638000083,None,None,1,178.26802638000083,None,,,,,,,,,,,,,,,,,,,,,,,,,,,,,,,,,,,,,,,,,,,,,,,,,,,,,,,,,,,,,alejandroD,001,b,2019_Oct_11_2028,Experimento,3.2.3,59.825309854137416,
8,14,14,999,0.5,0:10,3,Magenta,['space'],0,0,1,15:50,./completed_changuitos/montage_ypuzy_45.89_51.99.jpg,right,0,0,0,0,,,,,0,0,0,0,,,,,,,,,0,0,0,0,0,25,25,25,,,,,,,,,,,,,,,,,,178.28459141600106,None,None,0,178.28459141600106,None,,,,,,,,,,,,,,,,,,,,,,,,,,,,,,,,,,,,,,,,,,,,,,,,,,,,,,,,,,,,,alejandroD,001,b,2019_Oct_11_2028,Experimento,3.2.3,59.825309854137416,
8,14,14,999,0.5,0:10,3,Red,['space'],0,0,1,15:50,./completed_changuitos/montage_ypuzy_45.89_51.99.jpg,right,0,0,0,0,,,,,0,0,0,0,,,,,,,,,0,0,0,0,0,26,26,26,,,,,,,,,,,,,,,,,,178.28459141600106,None,None,0,178.28459141600106,None,,,,,,,,,,,,,,,,,,,,,,,,,,,,,,,,,,,,,,,,,,,,,,,,,,,,,,,,,,,,,alejandroD,001,b,2019_Oct_11_2028,Experimento,3.2.3,59.825309854137416,
8,14,14,999,0.5,0:10,3,Yellow,None,0,0,1,15:50,./completed_changuitos/montage_ypuzy_45.89_51.99.jpg,right,0,0,0,0,,,,,0,0,0,0,,,,,,,,,0,0,0,0,0,27,27,27,,,,,,,,,,,,,,,,,,178.28459141600106,None,None,1,178.28459141600106,None,,,,,,,,,,,,,,,,,,,,,,,,,,,,,,,,,,,,,,,,,,,,,,,,,,,,,,,,,,,,,alejandroD,001,b,2019_Oct_11_2028,Experimento,3.2.3,59.825309854137416,
8,14,14,999,0.5,0:10,3,Cyan,None,0,0,1,15:50,./completed_changuitos/montage_ypuzy_45.89_51.99.jpg,right,0,0,0,0,,,,,0,0,0,0,,,,,,,,,0,0,0,0,0,28,28,28,,,,,,,,,,,,,,,,,,178.28459141600106,None,None,1,178.28459141600106,None,,,,,,,,,,,,,,,,,,,,,,,,,,,,,,,,,,,,,,,,,,,,,,,,,,,,,,,,,,,,,alejandroD,001,b,2019_Oct_11_2028,Experimento,3.2.3,59.825309854137416,
8,14,14,999,0.5,0:10,3,Green,None,0,0,1,15:50,./completed_changuitos/montage_ypuzy_45.89_51.99.jpg,right,0,0,0,0,,,,,0,0,0,0,,,,,,,,,0,0,0,0,0,29,29,29,,,,,,,,,,,,,,,,,,178.28459141600106,None,None,1,178.28459141600106,None,,,,,,,,,,,,,,,,,,,,,,,,,,,,,,,,,,,,,,,,,,,,,,,,,,,,,,,,,,,,,alejandroD,001,b,2019_Oct_11_2028,Experimento,3.2.3,59.825309854137416,
8,14,14,999,0.5,0:10,3,White,None,0,0,1,15:50,./completed_changuitos/montage_ypuzy_45.89_51.99.jpg,right,0,0,0,0,,,,,0,0,0,0,,,,,,,,,0,0,0,0,0,30,30,30,,,,,,,,,,,,,,,,,,178.28459141600106,None,None,1,178.28459141600106,None,,,,,,,,,,,,,,,,,,,,,,,,,,,,,,,,,,,,,,,,,,,,,,,,,,,,,,,,,,,,,alejandroD,001,b,2019_Oct_11_2028,Experimento,3.2.3,59.825309854137416,
8,14,14,999,0.5,0:10,3,Green,['space'],0,0,1,15:50,./completed_changuitos/montage_ypuzy_45.89_51.99.jpg,right,0,0,0,0,,,,,0,0,0,0,,,,,,,,,0,0,0,0,0,31,31,31,,,,,,,,,,,,,,,,,,178.28459141600106,None,None,0,178.28459141600106,None,,,,,,,,,,,,,,,,,,,,,,,,,,,,,,,,,,,,,,,,,,,,,,,,,,,,,,,,,,,,,alejandroD,001,b,2019_Oct_11_2028,Experimento,3.2.3,59.825309854137416,
8,14,14,999,0.5,0:10,3,Red,None,0,0,1,15:50,./completed_changuitos/montage_ypuzy_45.89_51.99.jpg,right,0,0,0,0,,,,,0,0,0,0,,,,,,,,,0,0,0,0,0,32,32,32,,,,,,,,,,,,,,,,,,178.28459141600106,None,None,1,178.28459141600106,None,,,,,,,,,,,,,,,,,,,,,,,,,,,,,,,,,,,,,,,,,,,,,,,,,,,,,,,,,,,,,alejandroD,001,b,2019_Oct_11_2028,Experimento,3.2.3,59.825309854137416,
8,14,14,999,0.5,0:10,3,Blue,None,0,0,1,15:50,./completed_changuitos/montage_ypuzy_45.89_51.99.jpg,right,0,0,0,0,,,,,0,0,0,0,,,,,,,,,0,0,0,0,0,33,33,33,,,,,,,,,,,,,,,,,,178.30115645200132,None,None,1,178.30115645200132,None,,,,,,,,,,,,,,,,,,,,,,,,,,,,,,,,,,,,,,,,,,,,,,,,,,,,,,,,,,,,,alejandroD,001,b,2019_Oct_11_2028,Experimento,3.2.3,59.825309854137416,
8,14,14,999,0.5,0:10,3,Green,None,0,0,1,15:50,./completed_changuitos/montage_ypuzy_45.89_51.99.jpg,right,0,0,0,0,,,,,0,0,0,0,,,,,,,,,0,0,0,0,0,34,34,34,,,,,,,,,,,,,,,,,,178.30115645200132,None,None,1,178.30115645200132,None,,,,,,,,,,,,,,,,,,,,,,,,,,,,,,,,,,,,,,,,,,,,,,,,,,,,,,,,,,,,,alejandroD,001,b,2019_Oct_11_2028,Experimento,3.2.3,59.825309854137416,
8,14,14,999,0.5,0:10,3,,,0,0,1,15:50,./completed_changuitos/montage_ypuzy_45.89_51.99.jpg,right,0,0,0,0,,,,,0,0,0,0,,,,,,,,,0,0,0,0,,,,,,,,,,,,,,,,,,,,,,,,,,,,,178.40148210500047,None,right,1,15.05851889400219,178.40148210500047,None,178.40148210500047,181.40203765600018,,,,,,,,,,,,,,,,,,,,,,,,,,,,,,,,,,,,,,,,,,,,,,,,,,,alejandroD,001,b,2019_Oct_11_2028,Experimento,3.2.3,59.825309854137416,
8,14,14,999,0.5,0:10,3,,,0,0,1,15:50,,,0,0,0,0,,,,,0,0,0,0,,,,,,,,,,,,,,,,,,,,,,,,,,,,,,,,,,,,,,,,,,,,,,,,,,,,,,,,,,,,,,,,,,,,,,,,,,,,,,,,,,,,,,,,,,,,,,,,,,,,alejandroD,001,b,2019_Oct_11_2028,Experimento,3.2.3,59.825309854137416,
8,14,14,999,0.5,0:10,3,,,0,1,0,19:50,./completed_changuitos/montage_oebdv_64.09_74.89.jpg,right,0,0,0,0,,,,,0,1,1,1,,,,,0,0,0,0,,,,,,,,,,,,,,,,,,,,,,,,,,,,,,,,,,,,,,,,,,193.80714204599644,207.72120330500184,207.72120330500184,215.73390639699937,215.73390639699937,229.73343744399608,right,1,3.410500330996001,229.73343744399608,None,229.73343744399608,None,229.73343744399608,232.73336284700054,,,,,,,,,,,,,,,,,,,,,,,,,,,,,,,,,,,,alejandroD,001,b,2019_Oct_11_2028,Experimento,3.2.3,59.825309854137416,
8,14,14,999,0.5,0:10,3,,,0,1,0,19:50,,,0,0,0,0,,,,,0,1,1,1,,,,,,,,,,,,,,,,,,,,,,,,,,,,,,,,,,,,,,,,,,,,,,,,,,,,,,,,,,,,,,,,,,,,,,,,,,,,,,,,,,,,,,,,,,,,,,,,,,,,alejandroD,001,b,2019_Oct_11_2028,Experimento,3.2.3,59.825309854137416,
8,14,14,999,0.5,0:10,3,Magenta,None,0,0,1,20:50,./completed_changuitos/montage_pssky_35.5_40.55.jpg,right,0,0,0,0,,,,,0,2,2,2,,,,,,,,,0,0,0,0,0,0,0,0,,,,,,,,,,,,,,233.40061247899575,236.9370985689966,236.9370985689966,None,244.96985852599755,245.4848417999965,None,1,244.96985852599755,None,,,,,,,,,,,,,,,,,,,,,,,,,,,,,,,,,,,,,,,,,,,,,,,,,,,,,,,,,,,,,alejandroD,001,b,2019_Oct_11_2028,Experimento,3.2.3,59.825309854137416,
8,14,14,999,0.5,0:10,3,Blue,['space'],0,0,1,20:50,./completed_changuitos/montage_pssky_35.5_40.55.jpg,right,0,0,0,0,,,,,0,2,2,2,,,,,,,,,0,0,0,0,0,1,1,1,,,,,,,,,,,,,,,,,,246.98595332900004,247.50114879499597,None,0,246.98595332900004,246.98595332900004,,,,,,,,,,,,,,,,,,,,,,,,,,,,,,,,,,,,,,,,,,,,,,,,,,,,,,,,,,,,,alejandroD,001,b,2019_Oct_11_2028,Experimento,3.2.3,59.825309854137416,
8,14,14,999,0.5,0:10,3,Cyan,None,0,0,1,20:50,./completed_changuitos/montage_pssky_35.5_40.55.jpg,right,0,0,0,0,,,,,0,2,2,2,,,,,,,,,0,0,0,0,0,2,2,2,,,,,,,,,,,,,,,,,,249.00181313999929,249.50152676899597,None,1,249.00181313999929,249.00181313999929,,,,,,,,,,,,,,,,,,,,,,,,,,,,,,,,,,,,,,,,,,,,,,,,,,,,,,,,,,,,,alejandroD,001,b,2019_Oct_11_2028,Experimento,3.2.3,59.825309854137416,
8,14,14,999,0.5,0:10,3,Yellow,None,0,0,1,20:50,./completed_changuitos/montage_pssky_35.5_40.55.jpg,right,0,0,0,0,,,,,0,2,2,2,,,,,,,,,0,0,0,0,0,3,3,3,,,,,,,,,,,,,,,,,,251.00144643599924,251.5013757919951,None,1,251.00144643599924,251.00144643599924,,,,,,,,,,,,,,,,,,,,,,,,,,,,,,,,,,,,,,,,,,,,,,,,,,,,,,,,,,,,,alejandroD,001,b,2019_Oct_11_2028,Experimento,3.2.3,59.825309854137416,
8,14,14,999,0.5,0:10,3,Cyan,None,0,0,1,20:50,./completed_changuitos/montage_pssky_35.5_40.55.jpg,right,0,0,0,0,,,,,0,2,2,2,,,,,,,,,0,0,0,0,0,4,4,4,,,,,,,,,,,,,,,,,,253.00157160899835,253.50119350099703,None,1,253.00157160899835,253.00157160899835,,,,,,,,,,,,,,,,,,,,,,,,,,,,,,,,,,,,,,,,,,,,,,,,,,,,,,,,,,,,,alejandroD,001,b,2019_Oct_11_2028,Experimento,3.2.3,59.825309854137416,
8,14,14,999,0.5,0:10,3,Blue,None,0,0,1,20:50,./completed_changuitos/montage_pssky_35.5_40.55.jpg,right,0,0,0,0,,,,,0,2,2,2,,,,,,,,,0,0,0,0,0,5,5,5,,,,,,,,,,,,,,,,,,255.0017178729977,255.50137180299498,['return'],0,255.0017178729977,255.0017178729977,[1.3725806750007905],,,,,,,,,,,,,,,,,,,,,,,,,,,,,,,,,,,,,,,,,,,,,,,,,,,,,,,,,,,,alejandroD,001,b,2019_Oct_11_2028,Experimento,3.2.3,59.825309854137416,
8,14,14,999,0.5,0:10,3,Cyan,['space'],0,0,1,20:50,./completed_changuitos/montage_pssky_35.5_40.55.jpg,right,0,0,0,0,,,,,0,2,2,2,,,,,,,,,0,0,0,0,0,6,6,6,,,,,,,,,,,,,,,,,,257.0020573389993,257.51777491199755,['return'],0,257.0020573389993,257.0020573389993,[0.8529662919972907],,,,,,,,,,,,,,,,,,,,,,,,,,,,,,,,,,,,,,,,,,,,,,,,,,,,,,,,,,,,alejandroD,001,b,2019_Oct_11_2028,Experimento,3.2.3,59.825309854137416,
8,14,14,999,0.5,0:10,3,Magenta,None,0,0,1,20:50,./completed_changuitos/montage_pssky_35.5_40.55.jpg,right,0,0,0,0,,,,,0,2,2,2,,,,,,,,,0,0,0,0,0,7,7,7,,,,,,,,,,,,,,,,,,258.95110114799974,None,None,1,258.95110114799974,None,,,,,,,,,,,,,,,,,,,,,,,,,,,,,,,,,,,,,,,,,,,,,,,,,,,,,,,,,,,,,alejandroD,001,b,2019_Oct_11_2028,Experimento,3.2.3,59.825309854137416,
8,14,14,999,0.5,0:10,3,Red,None,0,0,1,20:50,./completed_changuitos/montage_pssky_35.5_40.55.jpg,right,0,0,0,0,,,,,0,2,2,2,,,,,,,,,0,0,0,0,0,8,8,8,,,,,,,,,,,,,,,,,,258.95110114799974,None,None,1,258.95110114799974,None,,,,,,,,,,,,,,,,,,,,,,,,,,,,,,,,,,,,,,,,,,,,,,,,,,,,,,,,,,,,,alejandroD,001,b,2019_Oct_11_2028,Experimento,3.2.3,59.825309854137416,
8,14,14,999,0.5,0:10,3,Magenta,['space'],0,0,1,20:50,./completed_changuitos/montage_pssky_35.5_40.55.jpg,right,0,0,0,0,,,,,0,2,2,2,,,,,,,,,0,0,0,0,0,9,9,9,,,,,,,,,,,,,,,,,,258.95110114799974,None,None,0,258.95110114799974,None,,,,,,,,,,,,,,,,,,,,,,,,,,,,,,,,,,,,,,,,,,,,,,,,,,,,,,,,,,,,,alejandroD,001,b,2019_Oct_11_2028,Experimento,3.2.3,59.825309854137416,
8,14,14,999,0.5,0:10,3,Green,None,0,0,1,20:50,./completed_changuitos/montage_pssky_35.5_40.55.jpg,right,0,0,0,0,,,,,0,2,2,2,,,,,,,,,0,0,0,0,0,10,10,10,,,,,,,,,,,,,,,,,,258.95110114799974,None,None,1,258.95110114799974,None,,,,,,,,,,,,,,,,,,,,,,,,,,,,,,,,,,,,,,,,,,,,,,,,,,,,,,,,,,,,,alejandroD,001,b,2019_Oct_11_2028,Experimento,3.2.3,59.825309854137416,
8,14,14,999,0.5,0:10,3,Yellow,['space'],0,0,1,20:50,./completed_changuitos/montage_pssky_35.5_40.55.jpg,right,0,0,0,0,,,,,0,2,2,2,,,,,,,,,0,0,0,0,0,11,11,11,,,,,,,,,,,,,,,,,,258.95110114799974,None,None,0,258.95110114799974,None,,,,,,,,,,,,,,,,,,,,,,,,,,,,,,,,,,,,,,,,,,,,,,,,,,,,,,,,,,,,,alejandroD,001,b,2019_Oct_11_2028,Experimento,3.2.3,59.825309854137416,
8,14,14,999,0.5,0:10,3,Blue,None,0,0,1,20:50,./completed_changuitos/montage_pssky_35.5_40.55.jpg,right,0,0,0,0,,,,,0,2,2,2,,,,,,,,,0,0,0,0,0,12,12,12,,,,,,,,,,,,,,,,,,258.95110114799974,None,None,1,258.95110114799974,None,,,,,,,,,,,,,,,,,,,,,,,,,,,,,,,,,,,,,,,,,,,,,,,,,,,,,,,,,,,,,alejandroD,001,b,2019_Oct_11_2028,Experimento,3.2.3,59.825309854137416,
8,14,14,999,0.5,0:10,3,Cyan,None,0,0,1,20:50,./completed_changuitos/montage_pssky_35.5_40.55.jpg,right,0,0,0,0,,,,,0,2,2,2,,,,,,,,,0,0,0,0,0,13,13,13,,,,,,,,,,,,,,,,,,258.95110114799974,None,None,1,258.95110114799974,None,,,,,,,,,,,,,,,,,,,,,,,,,,,,,,,,,,,,,,,,,,,,,,,,,,,,,,,,,,,,,alejandroD,001,b,2019_Oct_11_2028,Experimento,3.2.3,59.825309854137416,
8,14,14,999,0.5,0:10,3,Blue,['space'],0,0,1,20:50,./completed_changuitos/montage_pssky_35.5_40.55.jpg,right,0,0,0,0,,,,,0,2,2,2,,,,,,,,,0,0,0,0,0,14,14,14,,,,,,,,,,,,,,,,,,258.967666184,None,None,0,258.967666184,None,,,,,,,,,,,,,,,,,,,,,,,,,,,,,,,,,,,,,,,,,,,,,,,,,,,,,,,,,,,,,alejandroD,001,b,2019_Oct_11_2028,Experimento,3.2.3,59.825309854137416,
8,14,14,999,0.5,0:10,3,Yellow,None,0,0,1,20:50,./completed_changuitos/montage_pssky_35.5_40.55.jpg,right,0,0,0,0,,,,,0,2,2,2,,,,,,,,,0,0,0,0,0,15,15,15,,,,,,,,,,,,,,,,,,258.967666184,None,None,1,258.967666184,None,,,,,,,,,,,,,,,,,,,,,,,,,,,,,,,,,,,,,,,,,,,,,,,,,,,,,,,,,,,,,alejandroD,001,b,2019_Oct_11_2028,Experimento,3.2.3,59.825309854137416,
8,14,14,999,0.5,0:10,3,Cyan,None,0,0,1,20:50,./completed_changuitos/montage_pssky_35.5_40.55.jpg,right,0,0,0,0,,,,,0,2,2,2,,,,,,,,,0,0,0,0,0,16,16,16,,,,,,,,,,,,,,,,,,258.967666184,None,None,1,258.967666184,None,,,,,,,,,,,,,,,,,,,,,,,,,,,,,,,,,,,,,,,,,,,,,,,,,,,,,,,,,,,,,alejandroD,001,b,2019_Oct_11_2028,Experimento,3.2.3,59.825309854137416,
8,14,14,999,0.5,0:10,3,Yellow,['space'],0,0,1,20:50,./completed_changuitos/montage_pssky_35.5_40.55.jpg,right,0,0,0,0,,,,,0,2,2,2,,,,,,,,,0,0,0,0,0,17,17,17,,,,,,,,,,,,,,,,,,258.967666184,None,None,0,258.967666184,None,,,,,,,,,,,,,,,,,,,,,,,,,,,,,,,,,,,,,,,,,,,,,,,,,,,,,,,,,,,,,alejandroD,001,b,2019_Oct_11_2028,Experimento,3.2.3,59.825309854137416,
8,14,14,999,0.5,0:10,3,Magenta,None,0,0,1,20:50,./completed_changuitos/montage_pssky_35.5_40.55.jpg,right,0,0,0,0,,,,,0,2,2,2,,,,,,,,,0,0,0,0,0,18,18,18,,,,,,,,,,,,,,,,,,258.967666184,None,None,1,258.967666184,None,,,,,,,,,,,,,,,,,,,,,,,,,,,,,,,,,,,,,,,,,,,,,,,,,,,,,,,,,,,,,alejandroD,001,b,2019_Oct_11_2028,Experimento,3.2.3,59.825309854137416,
8,14,14,999,0.5,0:10,3,Red,None,0,0,1,20:50,./completed_changuitos/montage_pssky_35.5_40.55.jpg,right,0,0,0,0,,,,,0,2,2,2,,,,,,,,,0,0,0,0,0,19,19,19,,,,,,,,,,,,,,,,,,258.967666184,None,None,1,258.967666184,None,,,,,,,,,,,,,,,,,,,,,,,,,,,,,,,,,,,,,,,,,,,,,,,,,,,,,,,,,,,,,alejandroD,001,b,2019_Oct_11_2028,Experimento,3.2.3,59.825309854137416,
8,14,14,999,0.5,0:10,3,Magenta,['space'],0,0,1,20:50,./completed_changuitos/montage_pssky_35.5_40.55.jpg,right,0,0,0,0,,,,,0,2,2,2,,,,,,,,,0,0,0,0,0,20,20,20,,,,,,,,,,,,,,,,,,258.967666184,None,None,0,258.967666184,None,,,,,,,,,,,,,,,,,,,,,,,,,,,,,,,,,,,,,,,,,,,,,,,,,,,,,,,,,,,,,alejandroD,001,b,2019_Oct_11_2028,Experimento,3.2.3,59.825309854137416,
8,14,14,999,0.5,0:10,3,Red,['space'],0,0,1,20:50,./completed_changuitos/montage_pssky_35.5_40.55.jpg,right,0,0,0,0,,,,,0,2,2,2,,,,,,,,,0,0,0,0,0,21,21,21,,,,,,,,,,,,,,,,,,258.967666184,None,None,0,258.967666184,None,,,,,,,,,,,,,,,,,,,,,,,,,,,,,,,,,,,,,,,,,,,,,,,,,,,,,,,,,,,,,alejandroD,001,b,2019_Oct_11_2028,Experimento,3.2.3,59.825309854137416,
8,14,14,999,0.5,0:10,3,Yellow,None,0,0,1,20:50,./completed_changuitos/montage_pssky_35.5_40.55.jpg,right,0,0,0,0,,,,,0,2,2,2,,,,,,,,,0,0,0,0,0,22,22,22,,,,,,,,,,,,,,,,,,258.967666184,None,None,1,258.967666184,None,,,,,,,,,,,,,,,,,,,,,,,,,,,,,,,,,,,,,,,,,,,,,,,,,,,,,,,,,,,,,alejandroD,001,b,2019_Oct_11_2028,Experimento,3.2.3,59.825309854137416,
8,14,14,999,0.5,0:10,3,Cyan,None,0,0,1,20:50,./completed_changuitos/montage_pssky_35.5_40.55.jpg,right,0,0,0,0,,,,,0,2,2,2,,,,,,,,,0,0,0,0,0,23,23,23,,,,,,,,,,,,,,,,,,258.967666184,None,None,1,258.967666184,None,,,,,,,,,,,,,,,,,,,,,,,,,,,,,,,,,,,,,,,,,,,,,,,,,,,,,,,,,,,,,alejandroD,001,b,2019_Oct_11_2028,Experimento,3.2.3,59.825309854137416,
8,14,14,999,0.5,0:10,3,Green,None,0,0,1,20:50,./completed_changuitos/montage_pssky_35.5_40.55.jpg,right,0,0,0,0,,,,,0,2,2,2,,,,,,,,,0,0,0,0,0,24,24,24,,,,,,,,,,,,,,,,,,258.967666184,None,None,1,258.967666184,None,,,,,,,,,,,,,,,,,,,,,,,,,,,,,,,,,,,,,,,,,,,,,,,,,,,,,,,,,,,,,alejandroD,001,b,2019_Oct_11_2028,Experimento,3.2.3,59.825309854137416,
8,14,14,999,0.5,0:10,3,White,None,0,0,1,20:50,./completed_changuitos/montage_pssky_35.5_40.55.jpg,right,0,0,0,0,,,,,0,2,2,2,,,,,,,,,0,0,0,0,0,25,25,25,,,,,,,,,,,,,,,,,,258.98423122000025,None,None,1,258.98423122000025,None,,,,,,,,,,,,,,,,,,,,,,,,,,,,,,,,,,,,,,,,,,,,,,,,,,,,,,,,,,,,,alejandroD,001,b,2019_Oct_11_2028,Experimento,3.2.3,59.825309854137416,
8,14,14,999,0.5,0:10,3,Green,['space'],0,0,1,20:50,./completed_changuitos/montage_pssky_35.5_40.55.jpg,right,0,0,0,0,,,,,0,2,2,2,,,,,,,,,0,0,0,0,0,26,26,26,,,,,,,,,,,,,,,,,,258.98423122000025,None,None,0,258.98423122000025,None,,,,,,,,,,,,,,,,,,,,,,,,,,,,,,,,,,,,,,,,,,,,,,,,,,,,,,,,,,,,,alejandroD,001,b,2019_Oct_11_2028,Experimento,3.2.3,59.825309854137416,
8,14,14,999,0.5,0:10,3,Red,None,0,0,1,20:50,./completed_changuitos/montage_pssky_35.5_40.55.jpg,right,0,0,0,0,,,,,0,2,2,2,,,,,,,,,0,0,0,0,0,27,27,27,,,,,,,,,,,,,,,,,,258.98423122000025,None,None,1,258.98423122000025,None,,,,,,,,,,,,,,,,,,,,,,,,,,,,,,,,,,,,,,,,,,,,,,,,,,,,,,,,,,,,,alejandroD,001,b,2019_Oct_11_2028,Experimento,3.2.3,59.825309854137416,
8,14,14,999,0.5,0:10,3,Blue,None,0,0,1,20:50,./completed_changuitos/montage_pssky_35.5_40.55.jpg,right,0,0,0,0,,,,,0,2,2,2,,,,,,,,,0,0,0,0,0,28,28,28,,,,,,,,,,,,,,,,,,258.98423122000025,None,None,1,258.98423122000025,None,,,,,,,,,,,,,,,,,,,,,,,,,,,,,,,,,,,,,,,,,,,,,,,,,,,,,,,,,,,,,alejandroD,001,b,2019_Oct_11_2028,Experimento,3.2.3,59.825309854137416,
8,14,14,999,0.5,0:10,3,Green,None,0,0,1,20:50,./completed_changuitos/montage_pssky_35.5_40.55.jpg,right,0,0,0,0,,,,,0,2,2,2,,,,,,,,,0,0,0,0,0,29,29,29,,,,,,,,,,,,,,,,,,258.98423122000025,None,None,1,258.98423122000025,None,,,,,,,,,,,,,,,,,,,,,,,,,,,,,,,,,,,,,,,,,,,,,,,,,,,,,,,,,,,,,alejandroD,001,b,2019_Oct_11_2028,Experimento,3.2.3,59.825309854137416,
8,14,14,999,0.5,0:10,3,,,0,0,1,20:50,./completed_changuitos/montage_pssky_35.5_40.55.jpg,right,0,0,0,0,,,,,0,2,2,2,,,,,,,,,0,0,0,0,,,,,,,,,,,,,,,,,,,,,,,,,,,,,259.08551447699574,None,left,0,1.3240172880032333,259.08551447699574,None,259.08551447699574,None,,,,,,,,,,,,,,,,,,,,,,,,,,,,,,,,,,,,,,,,,,,,,,,,,,,alejandroD,001,b,2019_Oct_11_2028,Experimento,3.2.3,59.825309854137416,
8,14,14,999,0.5,0:10,3,,,0,0,1,20:50,,,0,0,0,0,,,,,0,2,2,2,,,,,,,,,,,,,,,,,,,,,,,,,,,,,,,,,,,,,,,,,,,,,,,,,,,,,,,,,,,,,,,,,,,,,,,,,,,,,,,,,,,,,,,,,,,,,,,,,,,,alejandroD,001,b,2019_Oct_11_2028,Experimento,3.2.3,59.825309854137416,
8,14,14,999,0.5,0:10,3,,,0,1,0,25:50,./completed_changuitos/montage_rkurc_59.85_53.49.jpg,left,0,0,0,0,,,,,0,3,3,3,,,,,0,0,0,0,,,,,,,,,,,,,,,,,,,,,,,,,,,,,,,,,,,,,,,,,,260.722124549,262.5195794350002,262.5195794350002,270.53305076799734,270.53305076799734,284.5329871329959,right,0,2.6850409940016107,284.5329871329959,None,284.5329871329959,None,284.5329871329959,None,,,,,,,,,,,,,,,,,,,,,,,,,,,,,,,,,,,,alejandroD,001,b,2019_Oct_11_2028,Experimento,3.2.3,59.825309854137416,
8,14,14,999,0.5,0:10,3,,,0,1,0,25:50,,,0,0,0,0,,,,,0,3,3,3,,,,,,,,,,,,,,,,,,,,,,,,,,,,,,,,,,,,,,,,,,,,,,,,,,,,,,,,,,,,,,,,,,,,,,,,,,,,,,,,,,,,,,,,,,,,,,,,,,,,alejandroD,001,b,2019_Oct_11_2028,Experimento,3.2.3,59.825309854137416,
8,14,14,999,0.5,0:10,3,Red,None,0,0,1,28:50,./completed_changuitos/montage_lceqc_146.19_171.09.jpg,right,0,0,0,0,,,,,0,4,4,4,,,,,,,,,0,0,0,0,0,0,0,0,,,,,,,,,,,,,,287.4999913020001,288.8026667869999,288.8026667869999,None,296.84966951599927,297.3504861199981,None,1,296.84966951599927,None,,,,,,,,,,,,,,,,,,,,,,,,,,,,,,,,,,,,,,,,,,,,,,,,,,,,,,,,,,,,,alejandroD,001,b,2019_Oct_11_2028,Experimento,3.2.3,59.825309854137416,
8,14,14,999,0.5,0:10,3,Magenta,['space'],0,0,1,28:50,./completed_changuitos/montage_lceqc_146.19_171.09.jpg,right,0,0,0,0,,,,,0,4,4,4,,,,,,,,,0,0,0,0,0,1,1,1,,,,,,,,,,,,,,,,,,298.85189868199814,299.3671362690002,None,0,298.85189868199814,298.85189868199814,,,,,,,,,,,,,,,,,,,,,,,,,,,,,,,,,,,,,,,,,,,,,,,,,,,,,,,,,,,,,alejandroD,001,b,2019_Oct_11_2028,Experimento,3.2.3,59.825309854137416,
8,14,14,999,0.5,0:10,3,Green,None,0,0,1,28:50,./completed_changuitos/montage_lceqc_146.19_171.09.jpg,right,0,0,0,0,,,,,0,4,4,4,,,,,,,,,0,0,0,0,0,2,2,2,,,,,,,,,,,,,,,,,,300.86741795799753,301.3668625220016,None,1,300.86741795799753,300.86741795799753,,,,,,,,,,,,,,,,,,,,,,,,,,,,,,,,,,,,,,,,,,,,,,,,,,,,,,,,,,,,,alejandroD,001,b,2019_Oct_11_2028,Experimento,3.2.3,59.825309854137416,
8,14,14,999,0.5,0:10,3,Yellow,['space'],0,0,1,28:50,./completed_changuitos/montage_lceqc_146.19_171.09.jpg,right,0,0,0,0,,,,,0,4,4,4,,,,,,,,,0,0,0,0,0,3,3,3,,,,,,,,,,,,,,,,,,302.8677413589976,303.36681202199543,None,0,302.8677413589976,302.8677413589976,,,,,,,,,,,,,,,,,,,,,,,,,,,,,,,,,,,,,,,,,,,,,,,,,,,,,,,,,,,,,alejandroD,001,b,2019_Oct_11_2028,Experimento,3.2.3,59.825309854137416,
8,14,14,999,0.5,0:10,3,Blue,None,0,0,1,28:50,./completed_changuitos/montage_lceqc_146.19_171.09.jpg,right,0,0,0,0,,,,,0,4,4,4,,,,,,,,,0,0,0,0,0,4,4,4,,,,,,,,,,,,,,,,,,304.8676703509991,305.36710315600067,None,1,304.8676703509991,304.8676703509991,,,,,,,,,,,,,,,,,,,,,,,,,,,,,,,,,,,,,,,,,,,,,,,,,,,,,,,,,,,,,alejandroD,001,b,2019_Oct_11_2028,Experimento,3.2.3,59.825309854137416,
8,14,14,999,0.5,0:10,3,Cyan,None,0,0,1,28:50,./completed_changuitos/montage_lceqc_146.19_171.09.jpg,right,0,0,0,0,,,,,0,4,4,4,,,,,,,,,0,0,0,0,0,5,5,5,,,,,,,,,,,,,,,,,,306.8839951869959,307.3837269239957,None,1,306.8839951869959,306.8839951869959,,,,,,,,,,,,,,,,,,,,,,,,,,,,,,,,,,,,,,,,,,,,,,,,,,,,,,,,,,,,,alejandroD,001,b,2019_Oct_11_2028,Experimento,3.2.3,59.825309854137416,
8,14,14,999,0.5,0:10,3,Blue,['space'],0,0,1,28:50,./completed_changuitos/montage_lceqc_146.19_171.09.jpg,right,0,0,0,0,,,,,0,4,4,4,,,,,,,,,0,0,0,0,0,6,6,6,,,,,,,,,,,,,,,,,,308.8840906089972,309.38379888399504,['return'],0,308.8840906089972,308.8840906089972,[0.5670469949982362],,,,,,,,,,,,,,,,,,,,,,,,,,,,,,,,,,,,,,,,,,,,,,,,,,,,,,,,,,,,alejandroD,001,b,2019_Oct_11_2028,Experimento,3.2.3,59.825309854137416,
8,14,14,999,0.5,0:10,3,Yellow,None,0,0,1,28:50,./completed_changuitos/montage_lceqc_146.19_171.09.jpg,right,0,0,0,0,,,,,0,4,4,4,,,,,,,,,0,0,0,0,0,7,7,7,,,,,,,,,,,,,,,,,,310.8171027819997,None,None,1,310.8171027819997,None,,,,,,,,,,,,,,,,,,,,,,,,,,,,,,,,,,,,,,,,,,,,,,,,,,,,,,,,,,,,,alejandroD,001,b,2019_Oct_11_2028,Experimento,3.2.3,59.825309854137416,
8,14,14,999,0.5,0:10,3,Cyan,None,0,0,1,28:50,./completed_changuitos/montage_lceqc_146.19_171.09.jpg,right,0,0,0,0,,,,,0,4,4,4,,,,,,,,,0,0,0,0,0,8,8,8,,,,,,,,,,,,,,,,,,310.8171027819997,None,None,1,310.8171027819997,None,,,,,,,,,,,,,,,,,,,,,,,,,,,,,,,,,,,,,,,,,,,,,,,,,,,,,,,,,,,,,alejandroD,001,b,2019_Oct_11_2028,Experimento,3.2.3,59.825309854137416,
8,14,14,999,0.5,0:10,3,Yellow,['space'],0,0,1,28:50,./completed_changuitos/montage_lceqc_146.19_171.09.jpg,right,0,0,0,0,,,,,0,4,4,4,,,,,,,,,0,0,0,0,0,9,9,9,,,,,,,,,,,,,,,,,,310.8171027819997,None,None,0,310.8171027819997,None,,,,,,,,,,,,,,,,,,,,,,,,,,,,,,,,,,,,,,,,,,,,,,,,,,,,,,,,,,,,,alejandroD,001,b,2019_Oct_11_2028,Experimento,3.2.3,59.825309854137416,
8,14,14,999,0.5,0:10,3,Magenta,None,0,0,1,28:50,./completed_changuitos/montage_lceqc_146.19_171.09.jpg,right,0,0,0,0,,,,,0,4,4,4,,,,,,,,,0,0,0,0,0,10,10,10,,,,,,,,,,,,,,,,,,310.8171027819997,None,None,1,310.8171027819997,None,,,,,,,,,,,,,,,,,,,,,,,,,,,,,,,,,,,,,,,,,,,,,,,,,,,,,,,,,,,,,alejandroD,001,b,2019_Oct_11_2028,Experimento,3.2.3,59.825309854137416,
8,14,14,999,0.5,0:10,3,Red,None,0,0,1,28:50,./completed_changuitos/montage_lceqc_146.19_171.09.jpg,right,0,0,0,0,,,,,0,4,4,4,,,,,,,,,0,0,0,0,0,11,11,11,,,,,,,,,,,,,,,,,,310.8171027819997,None,None,1,310.8171027819997,None,,,,,,,,,,,,,,,,,,,,,,,,,,,,,,,,,,,,,,,,,,,,,,,,,,,,,,,,,,,,,alejandroD,001,b,2019_Oct_11_2028,Experimento,3.2.3,59.825309854137416,
8,14,14,999,0.5,0:10,3,Magenta,['space'],0,0,1,28:50,./completed_changuitos/montage_lceqc_146.19_171.09.jpg,right,0,0,0,0,,,,,0,4,4,4,,,,,,,,,0,0,0,0,0,12,12,12,,,,,,,,,,,,,,,,,,310.8171027819997,None,None,0,310.8171027819997,None,,,,,,,,,,,,,,,,,,,,,,,,,,,,,,,,,,,,,,,,,,,,,,,,,,,,,,,,,,,,,alejandroD,001,b,2019_Oct_11_2028,Experimento,3.2.3,59.825309854137416,
8,14,14,999,0.5,0:10,3,Red,['space'],0,0,1,28:50,./completed_changuitos/montage_lceqc_146.19_171.09.jpg,right,0,0,0,0,,,,,0,4,4,4,,,,,,,,,0,0,0,0,0,13,13,13,,,,,,,,,,,,,,,,,,310.8171027819997,None,None,0,310.8171027819997,None,,,,,,,,,,,,,,,,,,,,,,,,,,,,,,,,,,,,,,,,,,,,,,,,,,,,,,,,,,,,,alejandroD,001,b,2019_Oct_11_2028,Experimento,3.2.3,59.825309854137416,
8,14,14,999,0.5,0:10,3,Yellow,None,0,0,1,28:50,./completed_changuitos/montage_lceqc_146.19_171.09.jpg,right,0,0,0,0,,,,,0,4,4,4,,,,,,,,,0,0,0,0,0,14,14,14,,,,,,,,,,,,,,,,,,310.833667818,None,None,1,310.833667818,None,,,,,,,,,,,,,,,,,,,,,,,,,,,,,,,,,,,,,,,,,,,,,,,,,,,,,,,,,,,,,alejandroD,001,b,2019_Oct_11_2028,Experimento,3.2.3,59.825309854137416,
8,14,14,999,0.5,0:10,3,Cyan,None,0,0,1,28:50,./completed_changuitos/montage_lceqc_146.19_171.09.jpg,right,0,0,0,0,,,,,0,4,4,4,,,,,,,,,0,0,0,0,0,15,15,15,,,,,,,,,,,,,,,,,,310.833667818,None,None,1,310.833667818,None,,,,,,,,,,,,,,,,,,,,,,,,,,,,,,,,,,,,,,,,,,,,,,,,,,,,,,,,,,,,,alejandroD,001,b,2019_Oct_11_2028,Experimento,3.2.3,59.825309854137416,
8,14,14,999,0.5,0:10,3,Green,None,0,0,1,28:50,./completed_changuitos/montage_lceqc_146.19_171.09.jpg,right,0,0,0,0,,,,,0,4,4,4,,,,,,,,,0,0,0,0,0,16,16,16,,,,,,,,,,,,,,,,,,310.833667818,None,None,1,310.833667818,None,,,,,,,,,,,,,,,,,,,,,,,,,,,,,,,,,,,,,,,,,,,,,,,,,,,,,,,,,,,,,alejandroD,001,b,2019_Oct_11_2028,Experimento,3.2.3,59.825309854137416,
8,14,14,999,0.5,0:10,3,White,None,0,0,1,28:50,./completed_changuitos/montage_lceqc_146.19_171.09.jpg,right,0,0,0,0,,,,,0,4,4,4,,,,,,,,,0,0,0,0,0,17,17,17,,,,,,,,,,,,,,,,,,310.833667818,None,None,1,310.833667818,None,,,,,,,,,,,,,,,,,,,,,,,,,,,,,,,,,,,,,,,,,,,,,,,,,,,,,,,,,,,,,alejandroD,001,b,2019_Oct_11_2028,Experimento,3.2.3,59.825309854137416,
8,14,14,999,0.5,0:10,3,Green,['space'],0,0,1,28:50,./completed_changuitos/montage_lceqc_146.19_171.09.jpg,right,0,0,0,0,,,,,0,4,4,4,,,,,,,,,0,0,0,0,0,18,18,18,,,,,,,,,,,,,,,,,,310.833667818,None,None,0,310.833667818,None,,,,,,,,,,,,,,,,,,,,,,,,,,,,,,,,,,,,,,,,,,,,,,,,,,,,,,,,,,,,,alejandroD,001,b,2019_Oct_11_2028,Experimento,3.2.3,59.825309854137416,
8,14,14,999,0.5,0:10,3,Red,None,0,0,1,28:50,./completed_changuitos/montage_lceqc_146.19_171.09.jpg,right,0,0,0,0,,,,,0,4,4,4,,,,,,,,,0,0,0,0,0,19,19,19,,,,,,,,,,,,,,,,,,310.833667818,None,None,1,310.833667818,None,,,,,,,,,,,,,,,,,,,,,,,,,,,,,,,,,,,,,,,,,,,,,,,,,,,,,,,,,,,,,alejandroD,001,b,2019_Oct_11_2028,Experimento,3.2.3,59.825309854137416,
8,14,14,999,0.5,0:10,3,Blue,None,0,0,1,28:50,./completed_changuitos/montage_lceqc_146.19_171.09.jpg,right,0,0,0,0,,,,,0,4,4,4,,,,,,,,,0,0,0,0,0,20,20,20,,,,,,,,,,,,,,,,,,310.833667818,None,None,1,310.833667818,None,,,,,,,,,,,,,,,,,,,,,,,,,,,,,,,,,,,,,,,,,,,,,,,,,,,,,,,,,,,,,alejandroD,001,b,2019_Oct_11_2028,Experimento,3.2.3,59.825309854137416,
8,14,14,999,0.5,0:10,3,Green,None,0,0,1,28:50,./completed_changuitos/montage_lceqc_146.19_171.09.jpg,right,0,0,0,0,,,,,0,4,4,4,,,,,,,,,0,0,0,0,0,21,21,21,,,,,,,,,,,,,,,,,,310.833667818,None,None,1,310.833667818,None,,,,,,,,,,,,,,,,,,,,,,,,,,,,,,,,,,,,,,,,,,,,,,,,,,,,,,,,,,,,,alejandroD,001,b,2019_Oct_11_2028,Experimento,3.2.3,59.825309854137416,
8,14,14,999,0.5,0:10,3,,,0,0,1,28:50,./completed_changuitos/montage_lceqc_146.19_171.09.jpg,right,0,0,0,0,,,,,0,4,4,4,,,,,,,,,0,0,0,0,,,,,,,,,,,,,,,,,,,,,,,,,,,,,310.93511018499703,None,left,0,2.848528308997629,310.93511018499703,None,310.93511018499703,None,,,,,,,,,,,,,,,,,,,,,,,,,,,,,,,,,,,,,,,,,,,,,,,,,,,alejandroD,001,b,2019_Oct_11_2028,Experimento,3.2.3,59.825309854137416,
8,14,14,999,0.5,0:10,3,,,0,0,1,28:50,,,0,0,0,0,,,,,0,4,4,4,,,,,,,,,,,,,,,,,,,,,,,,,,,,,,,,,,,,,,,,,,,,,,,,,,,,,,,,,,,,,,,,,,,,,,,,,,,,,,,,,,,,,,,,,,,,,,,,,,,,alejandroD,001,b,2019_Oct_11_2028,Experimento,3.2.3,59.825309854137416,
8,14,14,999,0.5,0:10,3,,,0,1,0,10:50,./completed_changuitos/montage_dksds_186.19_160.9.jpg,left,0,0,0,0,,,,,0,5,5,5,,,,,0,0,0,0,,,,,,,,,,,,,,,,,,,,,,,,,,,,,,,,,,,,,,,,,,314.10177187599766,315.2853296969988,315.2853296969988,323.2990586429951,323.2990586429951,337.29893562399957,left,1,1.564455284998985,337.29893562399957,None,337.29893562399957,None,337.29893562399957,None,,,,,,,,,,,,,,,,,,,,,,,,,,,,,,,,,,,,alejandroD,001,b,2019_Oct_11_2028,Experimento,3.2.3,59.825309854137416,
8,14,14,999,0.5,0:10,3,,,0,1,0,10:50,,,0,0,0,0,,,,,0,5,5,5,,,,,,,,,,,,,,,,,,,,,,,,,,,,,,,,,,,,,,,,,,,,,,,,,,,,,,,,,,,,,,,,,,,,,,,,,,,,,,,,,,,,,,,,,,,,,,,,,,,,alejandroD,001,b,2019_Oct_11_2028,Experimento,3.2.3,59.825309854137416,
8,14,14,999,0.5,0:10,3,Yellow,None,0,0,1,15:50,./completed_changuitos/montage_crlru_81.35_92.55.jpg,right,0,0,0,0,,,,,0,6,6,6,,,,,,,,,0,0,0,0,0,0,0,0,,,,,,,,,,,,,,339.0990229059971,340.91874426900176,340.91874426900176,None,348.9654182649974,349.4666739489985,None,1,348.9654182649974,None,,,,,,,,,,,,,,,,,,,,,,,,,,,,,,,,,,,,,,,,,,,,,,,,,,,,,,,,,,,,,alejandroD,001,b,2019_Oct_11_2028,Experimento,3.2.3,59.825309854137416,
8,14,14,999,0.5,0:10,3,White,['space'],0,0,1,15:50,./completed_changuitos/montage_crlru_81.35_92.55.jpg,right,0,0,0,0,,,,,0,6,6,6,,,,,,,,,0,0,0,0,0,1,1,1,,,,,,,,,,,,,,,,,,350.96854156899644,351.48297924800136,None,0,350.96854156899644,350.96854156899644,,,,,,,,,,,,,,,,,,,,,,,,,,,,,,,,,,,,,,,,,,,,,,,,,,,,,,,,,,,,,alejandroD,001,b,2019_Oct_11_2028,Experimento,3.2.3,59.825309854137416,
8,14,14,999,0.5,0:10,3,Magenta,None,0,0,1,15:50,./completed_changuitos/montage_crlru_81.35_92.55.jpg,right,0,0,0,0,,,,,0,6,6,6,,,,,,,,,0,0,0,0,0,2,2,2,,,,,,,,,,,,,,,,,,352.98245222699916,353.4825487689959,None,1,352.98245222699916,352.98245222699916,,,,,,,,,,,,,,,,,,,,,,,,,,,,,,,,,,,,,,,,,,,,,,,,,,,,,,,,,,,,,alejandroD,001,b,2019_Oct_11_2028,Experimento,3.2.3,59.825309854137416,
8,14,14,999,0.5,0:10,3,Cyan,None,0,0,1,15:50,./completed_changuitos/montage_crlru_81.35_92.55.jpg,right,0,0,0,0,,,,,0,6,6,6,,,,,,,,,0,0,0,0,0,3,3,3,,,,,,,,,,,,,,,,,,354.98273046300164,355.48246832400037,None,1,354.98273046300164,354.98273046300164,,,,,,,,,,,,,,,,,,,,,,,,,,,,,,,,,,,,,,,,,,,,,,,,,,,,,,,,,,,,,alejandroD,001,b,2019_Oct_11_2028,Experimento,3.2.3,59.825309854137416,
8,14,14,999,0.5,0:10,3,Blue,None,0,0,1,15:50,./completed_changuitos/montage_crlru_81.35_92.55.jpg,right,0,0,0,0,,,,,0,6,6,6,,,,,,,,,0,0,0,0,0,4,4,4,,,,,,,,,,,,,,,,,,356.98262992200034,357.4824258029985,None,1,356.98262992200034,356.98262992200034,,,,,,,,,,,,,,,,,,,,,,,,,,,,,,,,,,,,,,,,,,,,,,,,,,,,,,,,,,,,,alejandroD,001,b,2019_Oct_11_2028,Experimento,3.2.3,59.825309854137416,
8,14,14,999,0.5,0:10,3,Magenta,None,0,0,1,15:50,./completed_changuitos/montage_crlru_81.35_92.55.jpg,right,0,0,0,0,,,,,0,6,6,6,,,,,,,,,0,0,0,0,0,5,5,5,,,,,,,,,,,,,,,,,,358.983157552997,359.48255050499574,None,1,358.983157552997,358.983157552997,,,,,,,,,,,,,,,,,,,,,,,,,,,,,,,,,,,,,,,,,,,,,,,,,,,,,,,,,,,,,alejandroD,001,b,2019_Oct_11_2028,Experimento,3.2.3,59.825309854137416,
8,14,14,999,0.5,0:10,3,Blue,['space'],0,0,1,15:50,./completed_changuitos/montage_crlru_81.35_92.55.jpg,right,0,0,0,0,,,,,0,6,6,6,,,,,,,,,0,0,0,0,0,6,6,6,,,,,,,,,,,,,,,,,,360.98269000800065,361.48242259700055,['return'],0,360.98269000800065,360.98269000800065,[0.9923140659957426],,,,,,,,,,,,,,,,,,,,,,,,,,,,,,,,,,,,,,,,,,,,,,,,,,,,,,,,,,,,alejandroD,001,b,2019_Oct_11_2028,Experimento,3.2.3,59.825309854137416,
8,14,14,999,0.5,0:10,3,Cyan,None,0,0,1,15:50,./completed_changuitos/montage_crlru_81.35_92.55.jpg,right,0,0,0,0,,,,,0,6,6,6,,,,,,,,,0,0,0,0,0,7,7,7,,,,,,,,,,,,,,,,,,362.93227738700153,None,None,1,362.93227738700153,None,,,,,,,,,,,,,,,,,,,,,,,,,,,,,,,,,,,,,,,,,,,,,,,,,,,,,,,,,,,,,alejandroD,001,b,2019_Oct_11_2028,Experimento,3.2.3,59.825309854137416,
8,14,14,999,0.5,0:10,3,Yellow,None,0,0,1,15:50,./completed_changuitos/montage_crlru_81.35_92.55.jpg,right,0,0,0,0,,,,,0,6,6,6,,,,,,,,,0,0,0,0,0,8,8,8,,,,,,,,,,,,,,,,,,362.93227738700153,None,None,1,362.93227738700153,None,,,,,,,,,,,,,,,,,,,,,,,,,,,,,,,,,,,,,,,,,,,,,,,,,,,,,,,,,,,,,alejandroD,001,b,2019_Oct_11_2028,Experimento,3.2.3,59.825309854137416,
8,14,14,999,0.5,0:10,3,Cyan,None,0,0,1,15:50,./completed_changuitos/montage_crlru_81.35_92.55.jpg,right,0,0,0,0,,,,,0,6,6,6,,,,,,,,,0,0,0,0,0,9,9,9,,,,,,,,,,,,,,,,,,362.93227738700153,None,None,1,362.93227738700153,None,,,,,,,,,,,,,,,,,,,,,,,,,,,,,,,,,,,,,,,,,,,,,,,,,,,,,,,,,,,,,alejandroD,001,b,2019_Oct_11_2028,Experimento,3.2.3,59.825309854137416,
8,14,14,999,0.5,0:10,3,Blue,None,0,0,1,15:50,./completed_changuitos/montage_crlru_81.35_92.55.jpg,right,0,0,0,0,,,,,0,6,6,6,,,,,,,,,0,0,0,0,0,10,10,10,,,,,,,,,,,,,,,,,,362.93227738700153,None,None,1,362.93227738700153,None,,,,,,,,,,,,,,,,,,,,,,,,,,,,,,,,,,,,,,,,,,,,,,,,,,,,,,,,,,,,,alejandroD,001,b,2019_Oct_11_2028,Experimento,3.2.3,59.825309854137416,
8,14,14,999,0.5,0:10,3,Cyan,['space'],0,0,1,15:50,./completed_changuitos/montage_crlru_81.35_92.55.jpg,right,0,0,0,0,,,,,0,6,6,6,,,,,,,,,0,0,0,0,0,11,11,11,,,,,,,,,,,,,,,,,,362.93227738700153,None,None,0,362.93227738700153,None,,,,,,,,,,,,,,,,,,,,,,,,,,,,,,,,,,,,,,,,,,,,,,,,,,,,,,,,,,,,,alejandroD,001,b,2019_Oct_11_2028,Experimento,3.2.3,59.825309854137416,
8,14,14,999,0.5,0:10,3,Magenta,None,0,0,1,15:50,./completed_changuitos/montage_crlru_81.35_92.55.jpg,right,0,0,0,0,,,,,0,6,6,6,,,,,,,,,0,0,0,0,0,12,12,12,,,,,,,,,,,,,,,,,,362.93227738700153,None,None,1,362.93227738700153,None,,,,,,,,,,,,,,,,,,,,,,,,,,,,,,,,,,,,,,,,,,,,,,,,,,,,,,,,,,,,,alejandroD,001,b,2019_Oct_11_2028,Experimento,3.2.3,59.825309854137416,
8,14,14,999,0.5,0:10,3,Red,None,0,0,1,15:50,./completed_changuitos/montage_crlru_81.35_92.55.jpg,right,0,0,0,0,,,,,0,6,6,6,,,,,,,,,0,0,0,0,0,13,13,13,,,,,,,,,,,,,,,,,,362.93227738700153,None,None,1,362.93227738700153,None,,,,,,,,,,,,,,,,,,,,,,,,,,,,,,,,,,,,,,,,,,,,,,,,,,,,,,,,,,,,,alejandroD,001,b,2019_Oct_11_2028,Experimento,3.2.3,59.825309854137416,
8,14,14,999,0.5,0:10,3,Magenta,['space'],0,0,1,15:50,./completed_changuitos/montage_crlru_81.35_92.55.jpg,right,0,0,0,0,,,,,0,6,6,6,,,,,,,,,0,0,0,0,0,14,14,14,,,,,,,,,,,,,,,,,,362.9488424230018,None,None,0,362.9488424230018,None,,,,,,,,,,,,,,,,,,,,,,,,,,,,,,,,,,,,,,,,,,,,,,,,,,,,,,,,,,,,,alejandroD,001,b,2019_Oct_11_2028,Experimento,3.2.3,59.825309854137416,
8,14,14,999,0.5,0:10,3,Green,None,0,0,1,15:50,./completed_changuitos/montage_crlru_81.35_92.55.jpg,right,0,0,0,0,,,,,0,6,6,6,,,,,,,,,0,0,0,0,0,15,15,15,,,,,,,,,,,,,,,,,,362.9488424230018,None,None,1,362.9488424230018,None,,,,,,,,,,,,,,,,,,,,,,,,,,,,,,,,,,,,,,,,,,,,,,,,,,,,,,,,,,,,,alejandroD,001,b,2019_Oct_11_2028,Experimento,3.2.3,59.825309854137416,
8,14,14,999,0.5,0:10,3,Yellow,['space'],0,0,1,15:50,./completed_changuitos/montage_crlru_81.35_92.55.jpg,right,0,0,0,0,,,,,0,6,6,6,,,,,,,,,0,0,0,0,0,16,16,16,,,,,,,,,,,,,,,,,,362.9488424230018,None,None,0,362.9488424230018,None,,,,,,,,,,,,,,,,,,,,,,,,,,,,,,,,,,,,,,,,,,,,,,,,,,,,,,,,,,,,,alejandroD,001,b,2019_Oct_11_2028,Experimento,3.2.3,59.825309854137416,
8,14,14,999,0.5,0:10,3,Blue,None,0,0,1,15:50,./completed_changuitos/montage_crlru_81.35_92.55.jpg,right,0,0,0,0,,,,,0,6,6,6,,,,,,,,,0,0,0,0,0,17,17,17,,,,,,,,,,,,,,,,,,362.9488424230018,None,None,1,362.9488424230018,None,,,,,,,,,,,,,,,,,,,,,,,,,,,,,,,,,,,,,,,,,,,,,,,,,,,,,,,,,,,,,alejandroD,001,b,2019_Oct_11_2028,Experimento,3.2.3,59.825309854137416,
8,14,14,999,0.5,0:10,3,Cyan,None,0,0,1,15:50,./completed_changuitos/montage_crlru_81.35_92.55.jpg,right,0,0,0,0,,,,,0,6,6,6,,,,,,,,,0,0,0,0,0,18,18,18,,,,,,,,,,,,,,,,,,362.9488424230018,None,None,1,362.9488424230018,None,,,,,,,,,,,,,,,,,,,,,,,,,,,,,,,,,,,,,,,,,,,,,,,,,,,,,,,,,,,,,alejandroD,001,b,2019_Oct_11_2028,Experimento,3.2.3,59.825309854137416,
8,14,14,999,0.5,0:10,3,Blue,['space'],0,0,1,15:50,./completed_changuitos/montage_crlru_81.35_92.55.jpg,right,0,0,0,0,,,,,0,6,6,6,,,,,,,,,0,0,0,0,0,19,19,19,,,,,,,,,,,,,,,,,,362.9488424230018,None,None,0,362.9488424230018,None,,,,,,,,,,,,,,,,,,,,,,,,,,,,,,,,,,,,,,,,,,,,,,,,,,,,,,,,,,,,,alejandroD,001,b,2019_Oct_11_2028,Experimento,3.2.3,59.825309854137416,
8,14,14,999,0.5,0:10,3,Yellow,None,0,0,1,15:50,./completed_changuitos/montage_crlru_81.35_92.55.jpg,right,0,0,0,0,,,,,0,6,6,6,,,,,,,,,0,0,0,0,0,20,20,20,,,,,,,,,,,,,,,,,,362.9488424230018,None,None,1,362.9488424230018,None,,,,,,,,,,,,,,,,,,,,,,,,,,,,,,,,,,,,,,,,,,,,,,,,,,,,,,,,,,,,,alejandroD,001,b,2019_Oct_11_2028,Experimento,3.2.3,59.825309854137416,
8,14,14,999,0.5,0:10,3,Cyan,None,0,0,1,15:50,./completed_changuitos/montage_crlru_81.35_92.55.jpg,right,0,0,0,0,,,,,0,6,6,6,,,,,,,,,0,0,0,0,0,21,21,21,,,,,,,,,,,,,,,,,,362.9488424230018,None,None,1,362.9488424230018,None,,,,,,,,,,,,,,,,,,,,,,,,,,,,,,,,,,,,,,,,,,,,,,,,,,,,,,,,,,,,,alejandroD,001,b,2019_Oct_11_2028,Experimento,3.2.3,59.825309854137416,
8,14,14,999,0.5,0:10,3,Yellow,['space'],0,0,1,15:50,./completed_changuitos/montage_crlru_81.35_92.55.jpg,right,0,0,0,0,,,,,0,6,6,6,,,,,,,,,0,0,0,0,0,22,22,22,,,,,,,,,,,,,,,,,,362.9488424230018,None,None,0,362.9488424230018,None,,,,,,,,,,,,,,,,,,,,,,,,,,,,,,,,,,,,,,,,,,,,,,,,,,,,,,,,,,,,,alejandroD,001,b,2019_Oct_11_2028,Experimento,3.2.3,59.825309854137416,
8,14,14,999,0.5,0:10,3,Magenta,None,0,0,1,15:50,./completed_changuitos/montage_crlru_81.35_92.55.jpg,right,0,0,0,0,,,,,0,6,6,6,,,,,,,,,0,0,0,0,0,23,23,23,,,,,,,,,,,,,,,,,,362.9488424230018,None,None,1,362.9488424230018,None,,,,,,,,,,,,,,,,,,,,,,,,,,,,,,,,,,,,,,,,,,,,,,,,,,,,,,,,,,,,,alejandroD,001,b,2019_Oct_11_2028,Experimento,3.2.3,59.825309854137416,
8,14,14,999,0.5,0:10,3,Red,None,0,0,1,15:50,./completed_changuitos/montage_crlru_81.35_92.55.jpg,right,0,0,0,0,,,,,0,6,6,6,,,,,,,,,0,0,0,0,0,24,24,24,,,,,,,,,,,,,,,,,,362.9488424230018,None,None,1,362.9488424230018,None,,,,,,,,,,,,,,,,,,,,,,,,,,,,,,,,,,,,,,,,,,,,,,,,,,,,,,,,,,,,,alejandroD,001,b,2019_Oct_11_2028,Experimento,3.2.3,59.825309854137416,
8,14,14,999,0.5,0:10,3,Magenta,['space'],0,0,1,15:50,./completed_changuitos/montage_crlru_81.35_92.55.jpg,right,0,0,0,0,,,,,0,6,6,6,,,,,,,,,0,0,0,0,0,25,25,25,,,,,,,,,,,,,,,,,,362.96540745900205,None,None,0,362.96540745900205,None,,,,,,,,,,,,,,,,,,,,,,,,,,,,,,,,,,,,,,,,,,,,,,,,,,,,,,,,,,,,,alejandroD,001,b,2019_Oct_11_2028,Experimento,3.2.3,59.825309854137416,
8,14,14,999,0.5,0:10,3,Red,['space'],0,0,1,15:50,./completed_changuitos/montage_crlru_81.35_92.55.jpg,right,0,0,0,0,,,,,0,6,6,6,,,,,,,,,0,0,0,0,0,26,26,26,,,,,,,,,,,,,,,,,,362.96540745900205,None,None,0,362.96540745900205,None,,,,,,,,,,,,,,,,,,,,,,,,,,,,,,,,,,,,,,,,,,,,,,,,,,,,,,,,,,,,,alejandroD,001,b,2019_Oct_11_2028,Experimento,3.2.3,59.825309854137416,
8,14,14,999,0.5,0:10,3,Yellow,None,0,0,1,15:50,./completed_changuitos/montage_crlru_81.35_92.55.jpg,right,0,0,0,0,,,,,0,6,6,6,,,,,,,,,0,0,0,0,0,27,27,27,,,,,,,,,,,,,,,,,,362.96540745900205,None,None,1,362.96540745900205,None,,,,,,,,,,,,,,,,,,,,,,,,,,,,,,,,,,,,,,,,,,,,,,,,,,,,,,,,,,,,,alejandroD,001,b,2019_Oct_11_2028,Experimento,3.2.3,59.825309854137416,
8,14,14,999,0.5,0:10,3,Cyan,None,0,0,1,15:50,./completed_changuitos/montage_crlru_81.35_92.55.jpg,right,0,0,0,0,,,,,0,6,6,6,,,,,,,,,0,0,0,0,0,28,28,28,,,,,,,,,,,,,,,,,,362.96540745900205,None,None,1,362.96540745900205,None,,,,,,,,,,,,,,,,,,,,,,,,,,,,,,,,,,,,,,,,,,,,,,,,,,,,,,,,,,,,,alejandroD,001,b,2019_Oct_11_2028,Experimento,3.2.3,59.825309854137416,
8,14,14,999,0.5,0:10,3,Green,None,0,0,1,15:50,./completed_changuitos/montage_crlru_81.35_92.55.jpg,right,0,0,0,0,,,,,0,6,6,6,,,,,,,,,0,0,0,0,0,29,29,29,,,,,,,,,,,,,,,,,,362.96540745900205,None,None,1,362.96540745900205,None,,,,,,,,,,,,,,,,,,,,,,,,,,,,,,,,,,,,,,,,,,,,,,,,,,,,,,,,,,,,,alejandroD,001,b,2019_Oct_11_2028,Experimento,3.2.3,59.825309854137416,
8,14,14,999,0.5,0:10,3,White,None,0,0,1,15:50,./completed_changuitos/montage_crlru_81.35_92.55.jpg,right,0,0,0,0,,,,,0,6,6,6,,,,,,,,,0,0,0,0,0,30,30,30,,,,,,,,,,,,,,,,,,362.96540745900205,None,None,1,362.96540745900205,None,,,,,,,,,,,,,,,,,,,,,,,,,,,,,,,,,,,,,,,,,,,,,,,,,,,,,,,,,,,,,alejandroD,001,b,2019_Oct_11_2028,Experimento,3.2.3,59.825309854137416,
8,14,14,999,0.5,0:10,3,Green,['space'],0,0,1,15:50,./completed_changuitos/montage_crlru_81.35_92.55.jpg,right,0,0,0,0,,,,,0,6,6,6,,,,,,,,,0,0,0,0,0,31,31,31,,,,,,,,,,,,,,,,,,362.96540745900205,None,None,0,362.96540745900205,None,,,,,,,,,,,,,,,,,,,,,,,,,,,,,,,,,,,,,,,,,,,,,,,,,,,,,,,,,,,,,alejandroD,001,b,2019_Oct_11_2028,Experimento,3.2.3,59.825309854137416,
8,14,14,999,0.5,0:10,3,Red,None,0,0,1,15:50,./completed_changuitos/montage_crlru_81.35_92.55.jpg,right,0,0,0,0,,,,,0,6,6,6,,,,,,,,,0,0,0,0,0,32,32,32,,,,,,,,,,,,,,,,,,362.96540745900205,None,None,1,362.96540745900205,None,,,,,,,,,,,,,,,,,,,,,,,,,,,,,,,,,,,,,,,,,,,,,,,,,,,,,,,,,,,,,alejandroD,001,b,2019_Oct_11_2028,Experimento,3.2.3,59.825309854137416,
8,14,14,999,0.5,0:10,3,Blue,None,0,0,1,15:50,./completed_changuitos/montage_crlru_81.35_92.55.jpg,right,0,0,0,0,,,,,0,6,6,6,,,,,,,,,0,0,0,0,0,33,33,33,,,,,,,,,,,,,,,,,,362.96540745900205,None,None,1,362.96540745900205,None,,,,,,,,,,,,,,,,,,,,,,,,,,,,,,,,,,,,,,,,,,,,,,,,,,,,,,,,,,,,,alejandroD,001,b,2019_Oct_11_2028,Experimento,3.2.3,59.825309854137416,
8,14,14,999,0.5,0:10,3,Green,None,0,0,1,15:50,./completed_changuitos/montage_crlru_81.35_92.55.jpg,right,0,0,0,0,,,,,0,6,6,6,,,,,,,,,0,0,0,0,0,34,34,34,,,,,,,,,,,,,,,,,,362.96540745900205,None,None,1,362.96540745900205,None,,,,,,,,,,,,,,,,,,,,,,,,,,,,,,,,,,,,,,,,,,,,,,,,,,,,,,,,,,,,,alejandroD,001,b,2019_Oct_11_2028,Experimento,3.2.3,59.825309854137416,
8,14,14,999,0.5,0:10,3,,,0,0,1,15:50,./completed_changuitos/montage_crlru_81.35_92.55.jpg,right,0,0,0,0,,,,,0,6,6,6,,,,,,,,,0,0,0,0,,,,,,,,,,,,,,,,,,,,,,,,,,,,,363.06571776099736,None,left,0,5.390417153997987,363.06571776099736,None,363.06571776099736,366.06559933599783,,,,,,,,,,,,,,,,,,,,,,,,,,,,,,,,,,,,,,,,,,,,,,,,,,,alejandroD,001,b,2019_Oct_11_2028,Experimento,3.2.3,59.825309854137416,
8,14,14,999,0.5,0:10,3,,,0,0,1,15:50,,,0,0,0,0,,,,,0,6,6,6,,,,,,,,,,,,,,,,,,,,,,,,,,,,,,,,,,,,,,,,,,,,,,,,,,,,,,,,,,,,,,,,,,,,,,,,,,,,,,,,,,,,,,,,,,,,,,,,,,,,alejandroD,001,b,2019_Oct_11_2028,Experimento,3.2.3,59.825309854137416,
8,14,14,999,0.5,0:10,3,,,0,1,0,19:50,./completed_changuitos/montage_omyqx_32.1_36.9.jpg,right,0,0,0,0,,,,,0,7,7,7,,,,,0,0,0,0,,,,,,,,,,,,,,,,,,,,,,,,,,,,,,,,,,,,,,,,,,368.7661213329993,370.101317020999,370.101317020999,378.1145251229973,378.1145251229973,392.1144173040011,right,1,3.282160605995159,392.1144173040011,None,392.1144173040011,None,392.1144173040011,395.11433979700087,,,,,,,,,,,,,,,,,,,,,,,,,,,,,,,,,,,,alejandroD,001,b,2019_Oct_11_2028,Experimento,3.2.3,59.825309854137416,
8,14,14,999,0.5,0:10,3,,,0,1,0,19:50,,,0,0,0,0,,,,,0,7,7,7,,,,,,,,,,,,,,,,,,,,,,,,,,,,,,,,,,,,,,,,,,,,,,,,,,,,,,,,,,,,,,,,,,,,,,,,,,,,,,,,,,,,,,,,,,,,,,,,,,,,alejandroD,001,b,2019_Oct_11_2028,Experimento,3.2.3,59.825309854137416,
8,14,14,999,0.5,0:10,3,Magenta,None,0,0,1,20:50,./completed_changuitos/montage_evimo_501.49_435.49.jpg,left,0,0,0,0,,,,,0,8,8,8,,,,,,,,,0,0,0,0,0,0,0,0,,,,,,,,,,,,,,395.66544160299964,397.301542864996,397.301542864996,None,405.3299999009978,405.8317292520005,None,1,405.3299999009978,None,,,,,,,,,,,,,,,,,,,,,,,,,,,,,,,,,,,,,,,,,,,,,,,,,,,,,,,,,,,,,alejandroD,001,b,2019_Oct_11_2028,Experimento,3.2.3,59.825309854137416,
8,14,14,999,0.5,0:10,3,Blue,['space'],0,0,1,20:50,./completed_changuitos/montage_evimo_501.49_435.49.jpg,left,0,0,0,0,,,,,0,8,8,8,,,,,,,,,0,0,0,0,0,1,1,1,,,,,,,,,,,,,,,,,,407.3320226680007,407.83189971599495,None,0,407.3320226680007,407.3320226680007,,,,,,,,,,,,,,,,,,,,,,,,,,,,,,,,,,,,,,,,,,,,,,,,,,,,,,,,,,,,,alejandroD,001,b,2019_Oct_11_2028,Experimento,3.2.3,59.825309854137416,
8,14,14,999,0.5,0:10,3,Cyan,None,0,0,1,20:50,./completed_changuitos/montage_evimo_501.49_435.49.jpg,left,0,0,0,0,,,,,0,8,8,8,,,,,,,,,0,0,0,0,0,2,2,2,,,,,,,,,,,,,,,,,,409.3318418909985,409.8308695519954,None,1,409.3318418909985,409.3318418909985,,,,,,,,,,,,,,,,,,,,,,,,,,,,,,,,,,,,,,,,,,,,,,,,,,,,,,,,,,,,,alejandroD,001,b,2019_Oct_11_2028,Experimento,3.2.3,59.825309854137416,
8,14,14,999,0.5,0:10,3,Yellow,None,0,0,1,20:50,./completed_changuitos/montage_evimo_501.49_435.49.jpg,left,0,0,0,0,,,,,0,8,8,8,,,,,,,,,0,0,0,0,0,3,3,3,,,,,,,,,,,,,,,,,,411.33185839199723,411.83169406499655,None,1,411.33185839199723,411.33185839199723,,,,,,,,,,,,,,,,,,,,,,,,,,,,,,,,,,,,,,,,,,,,,,,,,,,,,,,,,,,,,alejandroD,001,b,2019_Oct_11_2028,Experimento,3.2.3,59.825309854137416,
8,14,14,999,0.5,0:10,3,Cyan,None,0,0,1,20:50,./completed_changuitos/montage_evimo_501.49_435.49.jpg,left,0,0,0,0,,,,,0,8,8,8,,,,,,,,,0,0,0,0,0,4,4,4,,,,,,,,,,,,,,,,,,413.33201809800084,413.83188751399575,['return'],0,413.33201809800084,413.33201809800084,[0.45494440400216263],,,,,,,,,,,,,,,,,,,,,,,,,,,,,,,,,,,,,,,,,,,,,,,,,,,,,,,,,,,,alejandroD,001,b,2019_Oct_11_2028,Experimento,3.2.3,59.825309854137416,
8,14,14,999,0.5,0:10,3,Blue,None,0,0,1,20:50,./completed_changuitos/montage_evimo_501.49_435.49.jpg,left,0,0,0,0,,,,,0,8,8,8,,,,,,,,,0,0,0,0,0,5,5,5,,,,,,,,,,,,,,,,,,415.3321732119948,415.83182716999727,None,1,415.3321732119948,415.3321732119948,,,,,,,,,,,,,,,,,,,,,,,,,,,,,,,,,,,,,,,,,,,,,,,,,,,,,,,,,,,,,alejandroD,001,b,2019_Oct_11_2028,Experimento,3.2.3,59.825309854137416,
8,14,14,999,0.5,0:10,3,Cyan,['space'],0,0,1,20:50,./completed_changuitos/montage_evimo_501.49_435.49.jpg,left,0,0,0,0,,,,,0,8,8,8,,,,,,,,,0,0,0,0,0,6,6,6,,,,,,,,,,,,,,,,,,417.3321074310006,417.831911139001,['return'],0,417.3321074310006,417.3321074310006,[0.5123994410023442],,,,,,,,,,,,,,,,,,,,,,,,,,,,,,,,,,,,,,,,,,,,,,,,,,,,,,,,,,,,alejandroD,001,b,2019_Oct_11_2028,Experimento,3.2.3,59.825309854137416,
8,14,14,999,0.5,0:10,3,Magenta,None,0,0,1,20:50,./completed_changuitos/montage_evimo_501.49_435.49.jpg,left,0,0,0,0,,,,,0,8,8,8,,,,,,,,,0,0,0,0,0,7,7,7,,,,,,,,,,,,,,,,,,419.3148717929951,None,None,1,419.3148717929951,None,,,,,,,,,,,,,,,,,,,,,,,,,,,,,,,,,,,,,,,,,,,,,,,,,,,,,,,,,,,,,alejandroD,001,b,2019_Oct_11_2028,Experimento,3.2.3,59.825309854137416,
8,14,14,999,0.5,0:10,3,Red,None,0,0,1,20:50,./completed_changuitos/montage_evimo_501.49_435.49.jpg,left,0,0,0,0,,,,,0,8,8,8,,,,,,,,,0,0,0,0,0,8,8,8,,,,,,,,,,,,,,,,,,419.3148717929951,None,None,1,419.3148717929951,None,,,,,,,,,,,,,,,,,,,,,,,,,,,,,,,,,,,,,,,,,,,,,,,,,,,,,,,,,,,,,alejandroD,001,b,2019_Oct_11_2028,Experimento,3.2.3,59.825309854137416,
8,14,14,999,0.5,0:10,3,Magenta,['space'],0,0,1,20:50,./completed_changuitos/montage_evimo_501.49_435.49.jpg,left,0,0,0,0,,,,,0,8,8,8,,,,,,,,,0,0,0,0,0,9,9,9,,,,,,,,,,,,,,,,,,419.3148717929951,None,None,0,419.3148717929951,None,,,,,,,,,,,,,,,,,,,,,,,,,,,,,,,,,,,,,,,,,,,,,,,,,,,,,,,,,,,,,alejandroD,001,b,2019_Oct_11_2028,Experimento,3.2.3,59.825309854137416,
8,14,14,999,0.5,0:10,3,Green,None,0,0,1,20:50,./completed_changuitos/montage_evimo_501.49_435.49.jpg,left,0,0,0,0,,,,,0,8,8,8,,,,,,,,,0,0,0,0,0,10,10,10,,,,,,,,,,,,,,,,,,419.3148717929951,None,None,1,419.3148717929951,None,,,,,,,,,,,,,,,,,,,,,,,,,,,,,,,,,,,,,,,,,,,,,,,,,,,,,,,,,,,,,alejandroD,001,b,2019_Oct_11_2028,Experimento,3.2.3,59.825309854137416,
8,14,14,999,0.5,0:10,3,Yellow,['space'],0,0,1,20:50,./completed_changuitos/montage_evimo_501.49_435.49.jpg,left,0,0,0,0,,,,,0,8,8,8,,,,,,,,,0,0,0,0,0,11,11,11,,,,,,,,,,,,,,,,,,419.3148717929951,None,None,0,419.3148717929951,None,,,,,,,,,,,,,,,,,,,,,,,,,,,,,,,,,,,,,,,,,,,,,,,,,,,,,,,,,,,,,alejandroD,001,b,2019_Oct_11_2028,Experimento,3.2.3,59.825309854137416,
8,14,14,999,0.5,0:10,3,Blue,None,0,0,1,20:50,./completed_changuitos/montage_evimo_501.49_435.49.jpg,left,0,0,0,0,,,,,0,8,8,8,,,,,,,,,0,0,0,0,0,12,12,12,,,,,,,,,,,,,,,,,,419.3148717929951,None,None,1,419.3148717929951,None,,,,,,,,,,,,,,,,,,,,,,,,,,,,,,,,,,,,,,,,,,,,,,,,,,,,,,,,,,,,,alejandroD,001,b,2019_Oct_11_2028,Experimento,3.2.3,59.825309854137416,
8,14,14,999,0.5,0:10,3,Cyan,None,0,0,1,20:50,./completed_changuitos/montage_evimo_501.49_435.49.jpg,left,0,0,0,0,,,,,0,8,8,8,,,,,,,,,0,0,0,0,0,13,13,13,,,,,,,,,,,,,,,,,,419.3148717929951,None,None,1,419.3148717929951,None,,,,,,,,,,,,,,,,,,,,,,,,,,,,,,,,,,,,,,,,,,,,,,,,,,,,,,,,,,,,,alejandroD,001,b,2019_Oct_11_2028,Experimento,3.2.3,59.825309854137416,
8,14,14,999,0.5,0:10,3,Blue,['space'],0,0,1,20:50,./completed_changuitos/montage_evimo_501.49_435.49.jpg,left,0,0,0,0,,,,,0,8,8,8,,,,,,,,,0,0,0,0,0,14,14,14,,,,,,,,,,,,,,,,,,419.3314368289954,None,None,0,419.3314368289954,None,,,,,,,,,,,,,,,,,,,,,,,,,,,,,,,,,,,,,,,,,,,,,,,,,,,,,,,,,,,,,alejandroD,001,b,2019_Oct_11_2028,Experimento,3.2.3,59.825309854137416,
8,14,14,999,0.5,0:10,3,Yellow,None,0,0,1,20:50,./completed_changuitos/montage_evimo_501.49_435.49.jpg,left,0,0,0,0,,,,,0,8,8,8,,,,,,,,,0,0,0,0,0,15,15,15,,,,,,,,,,,,,,,,,,419.3314368289954,None,None,1,419.3314368289954,None,,,,,,,,,,,,,,,,,,,,,,,,,,,,,,,,,,,,,,,,,,,,,,,,,,,,,,,,,,,,,alejandroD,001,b,2019_Oct_11_2028,Experimento,3.2.3,59.825309854137416,
8,14,14,999,0.5,0:10,3,Cyan,None,0,0,1,20:50,./completed_changuitos/montage_evimo_501.49_435.49.jpg,left,0,0,0,0,,,,,0,8,8,8,,,,,,,,,0,0,0,0,0,16,16,16,,,,,,,,,,,,,,,,,,419.3314368289954,None,None,1,419.3314368289954,None,,,,,,,,,,,,,,,,,,,,,,,,,,,,,,,,,,,,,,,,,,,,,,,,,,,,,,,,,,,,,alejandroD,001,b,2019_Oct_11_2028,Experimento,3.2.3,59.825309854137416,
8,14,14,999,0.5,0:10,3,Yellow,['space'],0,0,1,20:50,./completed_changuitos/montage_evimo_501.49_435.49.jpg,left,0,0,0,0,,,,,0,8,8,8,,,,,,,,,0,0,0,0,0,17,17,17,,,,,,,,,,,,,,,,,,419.3314368289954,None,None,0,419.3314368289954,None,,,,,,,,,,,,,,,,,,,,,,,,,,,,,,,,,,,,,,,,,,,,,,,,,,,,,,,,,,,,,alejandroD,001,b,2019_Oct_11_2028,Experimento,3.2.3,59.825309854137416,
8,14,14,999,0.5,0:10,3,Magenta,None,0,0,1,20:50,./completed_changuitos/montage_evimo_501.49_435.49.jpg,left,0,0,0,0,,,,,0,8,8,8,,,,,,,,,0,0,0,0,0,18,18,18,,,,,,,,,,,,,,,,,,419.3314368289954,None,None,1,419.3314368289954,None,,,,,,,,,,,,,,,,,,,,,,,,,,,,,,,,,,,,,,,,,,,,,,,,,,,,,,,,,,,,,alejandroD,001,b,2019_Oct_11_2028,Experimento,3.2.3,59.825309854137416,
8,14,14,999,0.5,0:10,3,Red,None,0,0,1,20:50,./completed_changuitos/montage_evimo_501.49_435.49.jpg,left,0,0,0,0,,,,,0,8,8,8,,,,,,,,,0,0,0,0,0,19,19,19,,,,,,,,,,,,,,,,,,419.3314368289954,None,None,1,419.3314368289954,None,,,,,,,,,,,,,,,,,,,,,,,,,,,,,,,,,,,,,,,,,,,,,,,,,,,,,,,,,,,,,alejandroD,001,b,2019_Oct_11_2028,Experimento,3.2.3,59.825309854137416,
8,14,14,999,0.5,0:10,3,Magenta,['space'],0,0,1,20:50,./completed_changuitos/montage_evimo_501.49_435.49.jpg,left,0,0,0,0,,,,,0,8,8,8,,,,,,,,,0,0,0,0,0,20,20,20,,,,,,,,,,,,,,,,,,419.3314368289954,None,None,0,419.3314368289954,None,,,,,,,,,,,,,,,,,,,,,,,,,,,,,,,,,,,,,,,,,,,,,,,,,,,,,,,,,,,,,alejandroD,001,b,2019_Oct_11_2028,Experimento,3.2.3,59.825309854137416,
8,14,14,999,0.5,0:10,3,Red,['space'],0,0,1,20:50,./completed_changuitos/montage_evimo_501.49_435.49.jpg,left,0,0,0,0,,,,,0,8,8,8,,,,,,,,,0,0,0,0,0,21,21,21,,,,,,,,,,,,,,,,,,419.3314368289954,None,None,0,419.3314368289954,None,,,,,,,,,,,,,,,,,,,,,,,,,,,,,,,,,,,,,,,,,,,,,,,,,,,,,,,,,,,,,alejandroD,001,b,2019_Oct_11_2028,Experimento,3.2.3,59.825309854137416,
8,14,14,999,0.5,0:10,3,Yellow,None,0,0,1,20:50,./completed_changuitos/montage_evimo_501.49_435.49.jpg,left,0,0,0,0,,,,,0,8,8,8,,,,,,,,,0,0,0,0,0,22,22,22,,,,,,,,,,,,,,,,,,419.3314368289954,None,None,1,419.3314368289954,None,,,,,,,,,,,,,,,,,,,,,,,,,,,,,,,,,,,,,,,,,,,,,,,,,,,,,,,,,,,,,alejandroD,001,b,2019_Oct_11_2028,Experimento,3.2.3,59.825309854137416,
8,14,14,999,0.5,0:10,3,Cyan,None,0,0,1,20:50,./completed_changuitos/montage_evimo_501.49_435.49.jpg,left,0,0,0,0,,,,,0,8,8,8,,,,,,,,,0,0,0,0,0,23,23,23,,,,,,,,,,,,,,,,,,419.3314368289954,None,None,1,419.3314368289954,None,,,,,,,,,,,,,,,,,,,,,,,,,,,,,,,,,,,,,,,,,,,,,,,,,,,,,,,,,,,,,alejandroD,001,b,2019_Oct_11_2028,Experimento,3.2.3,59.825309854137416,
8,14,14,999,0.5,0:10,3,Green,None,0,0,1,20:50,./completed_changuitos/montage_evimo_501.49_435.49.jpg,left,0,0,0,0,,,,,0,8,8,8,,,,,,,,,0,0,0,0,0,24,24,24,,,,,,,,,,,,,,,,,,419.3314368289954,None,None,1,419.3314368289954,None,,,,,,,,,,,,,,,,,,,,,,,,,,,,,,,,,,,,,,,,,,,,,,,,,,,,,,,,,,,,,alejandroD,001,b,2019_Oct_11_2028,Experimento,3.2.3,59.825309854137416,
8,14,14,999,0.5,0:10,3,White,None,0,0,1,20:50,./completed_changuitos/montage_evimo_501.49_435.49.jpg,left,0,0,0,0,,,,,0,8,8,8,,,,,,,,,0,0,0,0,0,25,25,25,,,,,,,,,,,,,,,,,,419.34800186499564,None,None,1,419.34800186499564,None,,,,,,,,,,,,,,,,,,,,,,,,,,,,,,,,,,,,,,,,,,,,,,,,,,,,,,,,,,,,,alejandroD,001,b,2019_Oct_11_2028,Experimento,3.2.3,59.825309854137416,
8,14,14,999,0.5,0:10,3,Green,['space'],0,0,1,20:50,./completed_changuitos/montage_evimo_501.49_435.49.jpg,left,0,0,0,0,,,,,0,8,8,8,,,,,,,,,0,0,0,0,0,26,26,26,,,,,,,,,,,,,,,,,,419.34800186499564,None,None,0,419.34800186499564,None,,,,,,,,,,,,,,,,,,,,,,,,,,,,,,,,,,,,,,,,,,,,,,,,,,,,,,,,,,,,,alejandroD,001,b,2019_Oct_11_2028,Experimento,3.2.3,59.825309854137416,
8,14,14,999,0.5,0:10,3,Red,None,0,0,1,20:50,./completed_changuitos/montage_evimo_501.49_435.49.jpg,left,0,0,0,0,,,,,0,8,8,8,,,,,,,,,0,0,0,0,0,27,27,27,,,,,,,,,,,,,,,,,,419.34800186499564,None,None,1,419.34800186499564,None,,,,,,,,,,,,,,,,,,,,,,,,,,,,,,,,,,,,,,,,,,,,,,,,,,,,,,,,,,,,,alejandroD,001,b,2019_Oct_11_2028,Experimento,3.2.3,59.825309854137416,
8,14,14,999,0.5,0:10,3,Blue,None,0,0,1,20:50,./completed_changuitos/montage_evimo_501.49_435.49.jpg,left,0,0,0,0,,,,,0,8,8,8,,,,,,,,,0,0,0,0,0,28,28,28,,,,,,,,,,,,,,,,,,419.34800186499564,None,None,1,419.34800186499564,None,,,,,,,,,,,,,,,,,,,,,,,,,,,,,,,,,,,,,,,,,,,,,,,,,,,,,,,,,,,,,alejandroD,001,b,2019_Oct_11_2028,Experimento,3.2.3,59.825309854137416,
8,14,14,999,0.5,0:10,3,Green,None,0,0,1,20:50,./completed_changuitos/montage_evimo_501.49_435.49.jpg,left,0,0,0,0,,,,,0,8,8,8,,,,,,,,,0,0,0,0,0,29,29,29,,,,,,,,,,,,,,,,,,419.34800186499564,None,None,1,419.34800186499564,None,,,,,,,,,,,,,,,,,,,,,,,,,,,,,,,,,,,,,,,,,,,,,,,,,,,,,,,,,,,,,alejandroD,001,b,2019_Oct_11_2028,Experimento,3.2.3,59.825309854137416,
8,14,14,999,0.5,0:10,3,,,0,0,1,20:50,./completed_changuitos/montage_evimo_501.49_435.49.jpg,left,0,0,0,0,,,,,0,8,8,8,,,,,,,,,0,0,0,0,,,,,,,,,,,,,,,,,,,,,,,,,,,,,419.44875618899823,None,right,0,2.4202727070005494,419.44875618899823,None,419.44875618899823,None,,,,,,,,,,,,,,,,,,,,,,,,,,,,,,,,,,,,,,,,,,,,,,,,,,,alejandroD,001,b,2019_Oct_11_2028,Experimento,3.2.3,59.825309854137416,
8,14,14,999,0.5,0:10,3,,,0,0,1,20:50,,,0,0,0,0,,,,,0,8,8,8,,,,,,,,,,,,,,,,,,,,,,,,,,,,,,,,,,,,,,,,,,,,,,,,,,,,,,,,,,,,,,,,,,,,,,,,,,,,,,,,,,,,,,,,,,,,,,,,,,,,alejandroD,001,b,2019_Oct_11_2028,Experimento,3.2.3,59.825309854137416,
8,14,14,999,0.5,0:10,3,,,0,1,0,25:50,./completed_changuitos/montage_tgxei_105.85_125.19.jpg,right,0,0,0,0,,,,,0,9,9,9,,,,,0,0,0,0,,,,,,,,,,,,,,,,,,,,,,,,,,,,,,,,,,,,,,,,,,422.17014184300206,423.3838318909984,423.3838318909984,431.3971239620005,431.3971239620005,445.39774747299816,left,0,2.4662284900041413,445.39774747299816,None,445.39774747299816,None,445.39774747299816,None,,,,,,,,,,,,,,,,,,,,,,,,,,,,,,,,,,,,alejandroD,001,b,2019_Oct_11_2028,Experimento,3.2.3,59.825309854137416,
8,14,14,999,0.5,0:10,3,,,0,1,0,25:50,,,0,0,0,0,,,,,0,9,9,9,,,,,,,,,,,,,,,,,,,,,,,,,,,,,,,,,,,,,,,,,,,,,,,,,,,,,,,,,,,,,,,,,,,,,,,,,,,,,,,,,,,,,,,,,,,,,,,,,,,,alejandroD,001,b,2019_Oct_11_2028,Experimento,3.2.3,59.825309854137416,
8,14,14,999,0.5,0:10,3,Red,None,0,0,1,28:50,./completed_changuitos/montage_ytzxc_300.69_345.6.jpg,right,0,0,0,0,,,,,0,10,10,10,,,,,,,,,0,0,0,0,0,0,0,0,,,,,,,,,,,,,,448.1150217809991,449.4313548200007,449.4313548200007,None,457.46574628199596,457.9807276520005,None,1,457.46574628199596,None,,,,,,,,,,,,,,,,,,,,,,,,,,,,,,,,,,,,,,,,,,,,,,,,,,,,,,,,,,,,,alejandroD,001,b,2019_Oct_11_2028,Experimento,3.2.3,59.825309854137416,
8,14,14,999,0.5,0:10,3,Magenta,['space'],0,0,1,28:50,./completed_changuitos/montage_ytzxc_300.69_345.6.jpg,right,0,0,0,0,,,,,0,10,10,10,,,,,,,,,0,0,0,0,0,1,1,1,,,,,,,,,,,,,,,,,,459.48163885199756,459.98107380500005,None,0,459.48163885199756,459.48163885199756,,,,,,,,,,,,,,,,,,,,,,,,,,,,,,,,,,,,,,,,,,,,,,,,,,,,,,,,,,,,,alejandroD,001,b,2019_Oct_11_2028,Experimento,3.2.3,59.825309854137416,
8,14,14,999,0.5,0:10,3,Green,None,0,0,1,28:50,./completed_changuitos/montage_ytzxc_300.69_345.6.jpg,right,0,0,0,0,,,,,0,10,10,10,,,,,,,,,0,0,0,0,0,2,2,2,,,,,,,,,,,,,,,,,,461.48128564299986,461.9810657189955,None,1,461.48128564299986,461.48128564299986,,,,,,,,,,,,,,,,,,,,,,,,,,,,,,,,,,,,,,,,,,,,,,,,,,,,,,,,,,,,,alejandroD,001,b,2019_Oct_11_2028,Experimento,3.2.3,59.825309854137416,
8,14,14,999,0.5,0:10,3,Yellow,['space'],0,0,1,28:50,./completed_changuitos/montage_ytzxc_300.69_345.6.jpg,right,0,0,0,0,,,,,0,10,10,10,,,,,,,,,0,0,0,0,0,3,3,3,,,,,,,,,,,,,,,,,,463.4812861589962,463.981004948997,None,0,463.4812861589962,463.4812861589962,,,,,,,,,,,,,,,,,,,,,,,,,,,,,,,,,,,,,,,,,,,,,,,,,,,,,,,,,,,,,alejandroD,001,b,2019_Oct_11_2028,Experimento,3.2.3,59.825309854137416,
8,14,14,999,0.5,0:10,3,Blue,None,0,0,1,28:50,./completed_changuitos/montage_ytzxc_300.69_345.6.jpg,right,0,0,0,0,,,,,0,10,10,10,,,,,,,,,0,0,0,0,0,4,4,4,,,,,,,,,,,,,,,,,,465.4813443019957,465.9809916160011,None,1,465.4813443019957,465.4813443019957,,,,,,,,,,,,,,,,,,,,,,,,,,,,,,,,,,,,,,,,,,,,,,,,,,,,,,,,,,,,,alejandroD,001,b,2019_Oct_11_2028,Experimento,3.2.3,59.825309854137416,
8,14,14,999,0.5,0:10,3,Cyan,None,0,0,1,28:50,./completed_changuitos/montage_ytzxc_300.69_345.6.jpg,right,0,0,0,0,,,,,0,10,10,10,,,,,,,,,0,0,0,0,0,5,5,5,,,,,,,,,,,,,,,,,,467.4810538599995,467.98098903700156,None,1,467.4810538599995,467.4810538599995,,,,,,,,,,,,,,,,,,,,,,,,,,,,,,,,,,,,,,,,,,,,,,,,,,,,,,,,,,,,,alejandroD,001,b,2019_Oct_11_2028,Experimento,3.2.3,59.825309854137416,
8,14,14,999,0.5,0:10,3,Blue,['space'],0,0,1,28:50,./completed_changuitos/montage_ytzxc_300.69_345.6.jpg,right,0,0,0,0,,,,,0,10,10,10,,,,,,,,,0,0,0,0,0,6,6,6,,,,,,,,,,,,,,,,,,469.48135942700173,469.98094744099944,['return'],0,469.48135942700173,469.48135942700173,[0.7234673580023809],,,,,,,,,,,,,,,,,,,,,,,,,,,,,,,,,,,,,,,,,,,,,,,,,,,,,,,,,,,,alejandroD,001,b,2019_Oct_11_2028,Experimento,3.2.3,59.825309854137416,
8,14,14,999,0.5,0:10,3,Yellow,None,0,0,1,28:50,./completed_changuitos/montage_ytzxc_300.69_345.6.jpg,right,0,0,0,0,,,,,0,10,10,10,,,,,,,,,0,0,0,0,0,7,7,7,,,,,,,,,,,,,,,,,,471.44771863799616,None,None,1,471.44771863799616,None,,,,,,,,,,,,,,,,,,,,,,,,,,,,,,,,,,,,,,,,,,,,,,,,,,,,,,,,,,,,,alejandroD,001,b,2019_Oct_11_2028,Experimento,3.2.3,59.825309854137416,
8,14,14,999,0.5,0:10,3,Cyan,None,0,0,1,28:50,./completed_changuitos/montage_ytzxc_300.69_345.6.jpg,right,0,0,0,0,,,,,0,10,10,10,,,,,,,,,0,0,0,0,0,8,8,8,,,,,,,,,,,,,,,,,,471.44771863799616,None,None,1,471.44771863799616,None,,,,,,,,,,,,,,,,,,,,,,,,,,,,,,,,,,,,,,,,,,,,,,,,,,,,,,,,,,,,,alejandroD,001,b,2019_Oct_11_2028,Experimento,3.2.3,59.825309854137416,
8,14,14,999,0.5,0:10,3,Yellow,['space'],0,0,1,28:50,./completed_changuitos/montage_ytzxc_300.69_345.6.jpg,right,0,0,0,0,,,,,0,10,10,10,,,,,,,,,0,0,0,0,0,9,9,9,,,,,,,,,,,,,,,,,,471.44771863799616,None,None,0,471.44771863799616,None,,,,,,,,,,,,,,,,,,,,,,,,,,,,,,,,,,,,,,,,,,,,,,,,,,,,,,,,,,,,,alejandroD,001,b,2019_Oct_11_2028,Experimento,3.2.3,59.825309854137416,
8,14,14,999,0.5,0:10,3,Magenta,None,0,0,1,28:50,./completed_changuitos/montage_ytzxc_300.69_345.6.jpg,right,0,0,0,0,,,,,0,10,10,10,,,,,,,,,0,0,0,0,0,10,10,10,,,,,,,,,,,,,,,,,,471.44771863799616,None,None,1,471.44771863799616,None,,,,,,,,,,,,,,,,,,,,,,,,,,,,,,,,,,,,,,,,,,,,,,,,,,,,,,,,,,,,,alejandroD,001,b,2019_Oct_11_2028,Experimento,3.2.3,59.825309854137416,
8,14,14,999,0.5,0:10,3,Red,None,0,0,1,28:50,./completed_changuitos/montage_ytzxc_300.69_345.6.jpg,right,0,0,0,0,,,,,0,10,10,10,,,,,,,,,0,0,0,0,0,11,11,11,,,,,,,,,,,,,,,,,,471.44771863799616,None,None,1,471.44771863799616,None,,,,,,,,,,,,,,,,,,,,,,,,,,,,,,,,,,,,,,,,,,,,,,,,,,,,,,,,,,,,,alejandroD,001,b,2019_Oct_11_2028,Experimento,3.2.3,59.825309854137416,
8,14,14,999,0.5,0:10,3,Magenta,['space'],0,0,1,28:50,./completed_changuitos/montage_ytzxc_300.69_345.6.jpg,right,0,0,0,0,,,,,0,10,10,10,,,,,,,,,0,0,0,0,0,12,12,12,,,,,,,,,,,,,,,,,,471.44771863799616,None,None,0,471.44771863799616,None,,,,,,,,,,,,,,,,,,,,,,,,,,,,,,,,,,,,,,,,,,,,,,,,,,,,,,,,,,,,,alejandroD,001,b,2019_Oct_11_2028,Experimento,3.2.3,59.825309854137416,
8,14,14,999,0.5,0:10,3,Red,['space'],0,0,1,28:50,./completed_changuitos/montage_ytzxc_300.69_345.6.jpg,right,0,0,0,0,,,,,0,10,10,10,,,,,,,,,0,0,0,0,0,13,13,13,,,,,,,,,,,,,,,,,,471.44771863799616,None,None,0,471.44771863799616,None,,,,,,,,,,,,,,,,,,,,,,,,,,,,,,,,,,,,,,,,,,,,,,,,,,,,,,,,,,,,,alejandroD,001,b,2019_Oct_11_2028,Experimento,3.2.3,59.825309854137416,
8,14,14,999,0.5,0:10,3,Yellow,None,0,0,1,28:50,./completed_changuitos/montage_ytzxc_300.69_345.6.jpg,right,0,0,0,0,,,,,0,10,10,10,,,,,,,,,0,0,0,0,0,14,14,14,,,,,,,,,,,,,,,,,,471.4642836739964,None,None,1,471.4642836739964,None,,,,,,,,,,,,,,,,,,,,,,,,,,,,,,,,,,,,,,,,,,,,,,,,,,,,,,,,,,,,,alejandroD,001,b,2019_Oct_11_2028,Experimento,3.2.3,59.825309854137416,
8,14,14,999,0.5,0:10,3,Cyan,None,0,0,1,28:50,./completed_changuitos/montage_ytzxc_300.69_345.6.jpg,right,0,0,0,0,,,,,0,10,10,10,,,,,,,,,0,0,0,0,0,15,15,15,,,,,,,,,,,,,,,,,,471.4642836739964,None,None,1,471.4642836739964,None,,,,,,,,,,,,,,,,,,,,,,,,,,,,,,,,,,,,,,,,,,,,,,,,,,,,,,,,,,,,,alejandroD,001,b,2019_Oct_11_2028,Experimento,3.2.3,59.825309854137416,
8,14,14,999,0.5,0:10,3,Green,None,0,0,1,28:50,./completed_changuitos/montage_ytzxc_300.69_345.6.jpg,right,0,0,0,0,,,,,0,10,10,10,,,,,,,,,0,0,0,0,0,16,16,16,,,,,,,,,,,,,,,,,,471.4642836739964,None,None,1,471.4642836739964,None,,,,,,,,,,,,,,,,,,,,,,,,,,,,,,,,,,,,,,,,,,,,,,,,,,,,,,,,,,,,,alejandroD,001,b,2019_Oct_11_2028,Experimento,3.2.3,59.825309854137416,
8,14,14,999,0.5,0:10,3,White,None,0,0,1,28:50,./completed_changuitos/montage_ytzxc_300.69_345.6.jpg,right,0,0,0,0,,,,,0,10,10,10,,,,,,,,,0,0,0,0,0,17,17,17,,,,,,,,,,,,,,,,,,471.4642836739964,None,None,1,471.4642836739964,None,,,,,,,,,,,,,,,,,,,,,,,,,,,,,,,,,,,,,,,,,,,,,,,,,,,,,,,,,,,,,alejandroD,001,b,2019_Oct_11_2028,Experimento,3.2.3,59.825309854137416,
8,14,14,999,0.5,0:10,3,Green,['space'],0,0,1,28:50,./completed_changuitos/montage_ytzxc_300.69_345.6.jpg,right,0,0,0,0,,,,,0,10,10,10,,,,,,,,,0,0,0,0,0,18,18,18,,,,,,,,,,,,,,,,,,471.4642836739964,None,None,0,471.4642836739964,None,,,,,,,,,,,,,,,,,,,,,,,,,,,,,,,,,,,,,,,,,,,,,,,,,,,,,,,,,,,,,alejandroD,001,b,2019_Oct_11_2028,Experimento,3.2.3,59.825309854137416,
8,14,14,999,0.5,0:10,3,Red,None,0,0,1,28:50,./completed_changuitos/montage_ytzxc_300.69_345.6.jpg,right,0,0,0,0,,,,,0,10,10,10,,,,,,,,,0,0,0,0,0,19,19,19,,,,,,,,,,,,,,,,,,471.4642836739964,None,None,1,471.4642836739964,None,,,,,,,,,,,,,,,,,,,,,,,,,,,,,,,,,,,,,,,,,,,,,,,,,,,,,,,,,,,,,alejandroD,001,b,2019_Oct_11_2028,Experimento,3.2.3,59.825309854137416,
8,14,14,999,0.5,0:10,3,Blue,None,0,0,1,28:50,./completed_changuitos/montage_ytzxc_300.69_345.6.jpg,right,0,0,0,0,,,,,0,10,10,10,,,,,,,,,0,0,0,0,0,20,20,20,,,,,,,,,,,,,,,,,,471.4642836739964,None,None,1,471.4642836739964,None,,,,,,,,,,,,,,,,,,,,,,,,,,,,,,,,,,,,,,,,,,,,,,,,,,,,,,,,,,,,,alejandroD,001,b,2019_Oct_11_2028,Experimento,3.2.3,59.825309854137416,
8,14,14,999,0.5,0:10,3,Green,None,0,0,1,28:50,./completed_changuitos/montage_ytzxc_300.69_345.6.jpg,right,0,0,0,0,,,,,0,10,10,10,,,,,,,,,0,0,0,0,0,21,21,21,,,,,,,,,,,,,,,,,,471.4642836739964,None,None,1,471.4642836739964,None,,,,,,,,,,,,,,,,,,,,,,,,,,,,,,,,,,,,,,,,,,,,,,,,,,,,,,,,,,,,,alejandroD,001,b,2019_Oct_11_2028,Experimento,3.2.3,59.825309854137416,
8,14,14,999,0.5,0:10,3,,,0,0,1,28:50,./completed_changuitos/montage_ytzxc_300.69_345.6.jpg,right,0,0,0,0,,,,,0,10,10,10,,,,,,,,,0,0,0,0,,,,,,,,,,,,,,,,,,,,,,,,,,,,,471.5652916559993,None,right,1,1.9160187320012483,471.5652916559993,None,471.5652916559993,None,,,,,,,,,,,,,,,,,,,,,,,,,,,,,,,,,,,,,,,,,,,,,,,,,,,alejandroD,001,b,2019_Oct_11_2028,Experimento,3.2.3,59.825309854137416,
8,14,14,999,0.5,0:10,3,,,0,0,1,28:50,,,0,0,0,0,,,,,0,10,10,10,,,,,,,,,,,,,,,,,,,,,,,,,,,,,,,,,,,,,,,,,,,,,,,,,,,,,,,,,,,,,,,,,,,,,,,,,,,,,,,,,,,,,,,,,,,,,,,,,,,,alejandroD,001,b,2019_Oct_11_2028,Experimento,3.2.3,59.825309854137416,
8,14,14,999,0.5,0:10,3,,,0,1,0,10:50,./completed_changuitos/montage_ezays_42.69_36.9.jpg,left,0,0,0,0,,,,,0,11,11,11,,,,,0,0,0,0,,,,,,,,,,,,,,,,,,,,,,,,,,,,,,,,,,,,,,,,,,473.81790128399734,476.1515906659988,476.1515906659988,484.1636125619989,484.1636125619989,498.1633581220012,left,1,1.5698919620044762,498.1633581220012,None,498.1633581220012,None,498.1633581220012,None,,,,,,,,,,,,,,,,,,,,,,,,,,,,,,,,,,,,alejandroD,001,b,2019_Oct_11_2028,Experimento,3.2.3,59.825309854137416,
8,14,14,999,0.5,0:10,3,,,0,1,0,10:50,,,0,0,0,0,,,,,0,11,11,11,,,,,,,,,,,,,,,,,,,,,,,,,,,,,,,,,,,,,,,,,,,,,,,,,,,,,,,,,,,,,,,,,,,,,,,,,,,,,,,,,,,,,,,,,,,,,,,,,,,,alejandroD,001,b,2019_Oct_11_2028,Experimento,3.2.3,59.825309854137416,
8,14,14,999,0.5,0:10,3,,,1,0,0,30:50,./completed_changuitos/montage_snfwb_296.39_255.75.jpg,left,0,0,0,0,,,,,0,12,12,12,0,0,0,0,,,,,,,,,,,,,,,,,,,,,,,,,,,,,,,,,,,,,,,,,,,,,,,,,,,,,,,,,,,,,500.54763068699685,501.50113721899834,501.50113721899834,509.51285855499736,left,1,1.958302373001061,509.51285855499736,None,509.51285855499736,None,509.51285855499736,None,,,,,,,,,,,,,,,,,,,,,,,alejandroD,001,b,2019_Oct_11_2028,Experimento,3.2.3,59.825309854137416,
8,14,14,999,0.5,0:10,3,,,1,0,0,30:50,,,0,0,0,0,,,,,0,12,12,12,,,,,,,,,,,,,,,,,,,,,,,,,,,,,,,,,,,,,,,,,,,,,,,,,,,,,,,,,,,,,,,,,,,,,,,,,,,,,,,,,,,,,,,,,,,,,,,,,,,,alejandroD,001,b,2019_Oct_11_2028,Experimento,3.2.3,59.825309854137416,
8,14,14,999,0.5,0:10,3,,,1,0,0,32:50,./completed_changuitos/montage_vbwsm_68.49_78.65.jpg,right,0,0,0,0,,,,,0,13,13,13,0,0,0,0,,,,,,,,,,,,,,,,,,,,,,,,,,,,,,,,,,,,,,,,,,,,,,,,,,,,,,,,,,,,,512.297132063999,512.5506996909971,512.5506996909971,520.5627170180014,right,1,1.247102585999528,520.5627170180014,None,520.5627170180014,None,520.5627170180014,None,,,,,,,,,,,,,,,,,,,,,,,alejandroD,001,b,2019_Oct_11_2028,Experimento,3.2.3,59.825309854137416,
8,14,14,999,0.5,0:10,3,,,1,0,0,32:50,,,0,0,0,0,,,,,0,13,13,13,,,,,,,,,,,,,,,,,,,,,,,,,,,,,,,,,,,,,,,,,,,,,,,,,,,,,,,,,,,,,,,,,,,,,,,,,,,,,,,,,,,,,,,,,,,,,,,,,,,,alejandroD,001,b,2019_Oct_11_2028,Experimento,3.2.3,59.825309854137416,
8,14,14,999,0.5,0:10,3,,,1,0,0,34:50,./completed_changuitos/montage_ezysp_109.15_128.39.jpg,right,0,0,0,0,,,,,0,14,14,14,0,0,0,0,,,,,,,,,,,,,,,,,,,,,,,,,,,,,,,,,,,,,,,,,,,,,,,,,,,,,,,,,,,,,522.6303456890018,523.9823305249956,523.9823305249956,531.9954738619999,left,0,1.456880439996894,531.9954738619999,None,531.9954738619999,None,531.9954738619999,None,,,,,,,,,,,,,,,,,,,,,,,alejandroD,001,b,2019_Oct_11_2028,Experimento,3.2.3,59.825309854137416,
8,14,14,999,0.5,0:10,3,,,1,0,0,34:50,,,0,0,0,0,,,,,0,14,14,14,,,,,,,,,,,,,,,,,,,,,,,,,,,,,,,,,,,,,,,,,,,,,,,,,,,,,,,,,,,,,,,,,,,,,,,,,,,,,,,,,,,,,,,,,,,,,,,,,,,,alejandroD,001,b,2019_Oct_11_2028,Experimento,3.2.3,59.825309854137416,
8,14,14,999,0.5,0:10,3,,,1,0,0,30:50,./completed_changuitos/montage_grfzp_57.69_66.25.jpg,right,0,0,0,0,,,,,0,15,15,15,0,0,0,0,,,,,,,,,,,,,,,,,,,,,,,,,,,,,,,,,,,,,,,,,,,,,,,,,,,,,,,,,,,,,534.2973794159989,535.300282876,535.300282876,543.3124179289953,left,0,1.053788616998645,543.3124179289953,None,543.3124179289953,None,543.3124179289953,None,,,,,,,,,,,,,,,,,,,,,,,alejandroD,001,b,2019_Oct_11_2028,Experimento,3.2.3,59.825309854137416,
8,14,14,999,0.5,0:10,3,,,1,0,0,30:50,,,0,0,0,0,,,,,0,15,15,15,,,,,,,,,,,,,,,,,,,,,,,,,,,,,,,,,,,,,,,,,,,,,,,,,,,,,,,,,,,,,,,,,,,,,,,,,,,,,,,,,,,,,,,,,,,,,,,,,,,,alejandroD,001,b,2019_Oct_11_2028,Experimento,3.2.3,59.825309854137416,
8,14,14,999,0.5,0:10,3,,,1,0,0,32:50,./completed_changuitos/montage_qjnnw_184.05_213.99.jpg,right,0,0,0,0,,,,,0,16,16,16,0,0,0,0,,,,,,,,,,,,,,,,,,,,,,,,,,,,,,,,,,,,,,,,,,,,,,,,,,,,,,,,,,,,,545.1977923800005,546.0679438590014,546.0679438590014,554.0789441140005,left,0,1.5311792459979188,554.0789441140005,None,554.0789441140005,None,554.0789441140005,None,,,,,,,,,,,,,,,,,,,,,,,alejandroD,001,b,2019_Oct_11_2028,Experimento,3.2.3,59.825309854137416,
8,14,14,999,0.5,0:10,3,,,1,0,0,32:50,,,0,0,0,0,,,,,0,16,16,16,,,,,,,,,,,,,,,,,,,,,,,,,,,,,,,,,,,,,,,,,,,,,,,,,,,,,,,,,,,,,,,,,,,,,,,,,,,,,,,,,,,,,,,,,,,,,,,,,,,,alejandroD,001,b,2019_Oct_11_2028,Experimento,3.2.3,59.825309854137416,
8,14,14,999,0.5,0:10,3,,,1,0,0,34:50,./completed_changuitos/montage_wtkzv_38.47_33.39.jpg,left,0,0,0,0,,,,,0,17,17,17,0,0,0,0,,,,,,,,,,,,,,,,,,,,,,,,,,,,,,,,,,,,,,,,,,,,,,,,,,,,,,,,,,,,,556.4300386289979,557.4140633819989,557.4140633819989,565.4291931400003,right,0,1.2813255199944251,565.4291931400003,None,565.4291931400003,None,565.4291931400003,None,,,,,,,,,,,,,,,,,,,,,,,alejandroD,001,b,2019_Oct_11_2028,Experimento,3.2.3,59.825309854137416,
8,14,14,999,0.5,0:10,3,,,1,0,0,34:50,,,0,0,0,0,,,,,0,17,17,17,,,,,,,,,,,,,,,,,,,,,,,,,,,,,,,,,,,,,,,,,,,,,,,,,,,,,,,,,,,,,,,,,,,,,,,,,,,,,,,,,,,,,,,,,,,,,,,,,,,,alejandroD,001,b,2019_Oct_11_2028,Experimento,3.2.3,59.825309854137416,
8,14,14,999,0.5,0:10,3,,,,,,,,,0,0,0,0,,,,,,,,,,,,,,,,,,,,,,,,,,,,,,,,,,,,,,,,,,,,,,,,,,,,,,,,,,,,,,,,,,,,,,,,,,,,,,,,,,,,,,566.7965611839973,573.0301423119963,0,6.655899579003744,573.0301423119963,None,573.0301423119963,None,b,6.392973828005779,579.7298787199979,None,579.7298787199979,None,579.7298787199979,None,586.1484509549991,None,8,5.107812520000152,586.1484509549991,None,alejandroD,001,b,2019_Oct_11_2028,Experimento,3.2.3,59.825309854137416,
