changuito_time_to_show,time_to_think,time_to_play,total_items,nback_stimulus_time,nback_training,time_to_show_tiny_stimulus,colourtest,corresp,inmediato,consciente,inconsciente,nback_slice,imagen,correcta,trials_5.thisRepN,trials_5.thisTrialN,trials_5.thisN,trials_5.thisIndex,nback_train.thisRepN,nback_train.thisTrialN,nback_train.thisN,nback_train.thisIndex,treatment_order.thisRepN,treatment_order.thisTrialN,treatment_order.thisN,treatment_order.thisIndex,trials.thisRepN,trials.thisTrialN,trials.thisN,trials.thisIndex,trials_2.thisRepN,trials_2.thisTrialN,trials_2.thisN,trials_2.thisIndex,trials_3.thisRepN,trials_3.thisTrialN,trials_3.thisN,trials_3.thisIndex,trials_4.thisRepN,trials_4.thisTrialN,trials_4.thisN,trials_4.thisIndex,Presentacion.started,Presentacion.stopped,Juego.started,Juego.stopped,image_6.started,image_6.stopped,polygon.started,polygon.stopped,nback_train_resp.keys,nback_train_resp.corr,nback_train_resp.started,nback_train_resp.stopped,nback_train_resp.rt,hola.started,hola.stopped,image_2.started,image_2.stopped,tiempo_para_pensar.started,tiempo_para_pensar.stopped,respuesta_consciente.keys,respuesta_consciente.corr,respuesta_consciente.rt,respuesta_consciente.started,respuesta_consciente.stopped,cual_es_la_mas_barata.started,cual_es_la_mas_barata.stopped,image_4.started,image_4.stopped,holi.started,holi.stopped,image_3.started,image_3.stopped,polygon_2.started,polygon_2.stopped,nback_train_resp_2.keys,nback_train_resp_2.corr,nback_train_resp_2.started,nback_train_resp_2.stopped,nback_train_resp_2.rt,text_2.started,text_2.stopped,key_resp.keys,key_resp.corr,key_resp.rt,key_resp.started,key_resp.stopped,image_5.started,image_5.stopped,text.started,text.stopped,image.started,image.stopped,respuesta_inmediato.keys,respuesta_inmediato.corr,respuesta_inmediato.rt,respuesta_inmediato.started,respuesta_inmediato.stopped,pregunta_cual_es_el_mas_barato.started,pregunta_cual_es_el_mas_barato.stopped,short_stim1.started,short_stim1.stopped,gracias.started,gracias.stopped,respuesta1.keys,respuesta1.rt,respuesta1.started,respuesta1.stopped,pregunta1.started,pregunta1.stopped,respuesta3bis_3.keys,respuesta3bis_3.rt,respuesta3bis_3.started,respuesta3bis_3.stopped,pregunta3_3.started,pregunta3_3.stopped,productoCon3RANGOSabc_3.started,productoCon3RANGOSabc_3.stopped,text_3.started,text_3.stopped,key_resp_2.keys,key_resp_2.rt,key_resp_2.started,key_resp_2.stopped,participant,session,group,date,expName,psychopyVersion,frameRate,
8,14,14,999,0.5,0:10,3,White,None,,,,,,,0,0,0,0,0,0,0,0,,,,,,,,,,,,,,,,,,,,,57.13420518201019,None,80.15848668200488,None,80.15848668200488,None,110.60635505701066,111.11494200800371,None,1,110.60635505701066,None,,,,,,,,,,,,,,,,,,,,,,,,,,,,,,,,,,,,,,,,,,,,,,,,,,,,,,,,,,,,,,,,,,,,,,,,ayelen_c,001,c,2019_Oct_10_1411,Experimento,3.2.3,60.03202059853944,
8,14,14,999,0.5,0:10,3,Red,None,,,,,,,0,0,0,0,0,1,1,1,,,,,,,,,,,,,,,,,,,,,,,,,,,112.61436067000614,113.11433767100971,None,1,112.61436067000614,112.61436067000614,,,,,,,,,,,,,,,,,,,,,,,,,,,,,,,,,,,,,,,,,,,,,,,,,,,,,,,,,,,,,,,,,,,,,,,,ayelen_c,001,c,2019_Oct_10_1411,Experimento,3.2.3,60.03202059853944,
8,14,14,999,0.5,0:10,3,Magenta,None,,,,,,,0,0,0,0,0,2,2,2,,,,,,,,,,,,,,,,,,,,,,,,,,,114.6136850900075,115.11317578700255,None,1,114.6136850900075,114.6136850900075,,,,,,,,,,,,,,,,,,,,,,,,,,,,,,,,,,,,,,,,,,,,,,,,,,,,,,,,,,,,,,,,,,,,,,,,ayelen_c,001,c,2019_Oct_10_1411,Experimento,3.2.3,60.03202059853944,
8,14,14,999,0.5,0:10,3,Cyan,None,,,,,,,0,0,0,0,0,3,3,3,,,,,,,,,,,,,,,,,,,,,,,,,,,116.61395629899926,117.12954724300653,None,1,116.61395629899926,116.61395629899926,,,,,,,,,,,,,,,,,,,,,,,,,,,,,,,,,,,,,,,,,,,,,,,,,,,,,,,,,,,,,,,,,,,,,,,,ayelen_c,001,c,2019_Oct_10_1411,Experimento,3.2.3,60.03202059853944,
8,14,14,999,0.5,0:10,3,Magenta,['space'],,,,,,,0,0,0,0,0,4,4,4,,,,,,,,,,,,,,,,,,,,,,,,,,,118.62898597100866,119.12886717100628,['return'],0,118.62898597100866,118.62898597100866,[0.6337810049881227],,,,,,,,,,,,,,,,,,,,,,,,,,,,,,,,,,,,,,,,,,,,,,,,,,,,,,,,,,,,,,,,,,,,,,,ayelen_c,001,c,2019_Oct_10_1411,Experimento,3.2.3,60.03202059853944,
8,14,14,999,0.5,0:10,3,Green,None,,,,,,,0,0,0,0,0,5,5,5,,,,,,,,,,,,,,,,,,,,,,,,,,,120.6279576010129,121.12818402000994,None,1,120.6279576010129,120.6279576010129,,,,,,,,,,,,,,,,,,,,,,,,,,,,,,,,,,,,,,,,,,,,,,,,,,,,,,,,,,,,,,,,,,,,,,,,ayelen_c,001,c,2019_Oct_10_1411,Experimento,3.2.3,60.03202059853944,
8,14,14,999,0.5,0:10,3,White,None,,,,,,,0,0,0,0,0,6,6,6,,,,,,,,,,,,,,,,,,,,,,,,,,,122.62762716700672,123.12750254799903,None,1,122.62762716700672,122.62762716700672,,,,,,,,,,,,,,,,,,,,,,,,,,,,,,,,,,,,,,,,,,,,,,,,,,,,,,,,,,,,,,,,,,,,,,,,ayelen_c,001,c,2019_Oct_10_1411,Experimento,3.2.3,60.03202059853944,
8,14,14,999,0.5,0:10,3,Green,['space'],,,,,,,0,0,0,0,0,7,7,7,,,,,,,,,,,,,,,,,,,,,,,,,,,124.62697631400079,125.12682815401058,['return'],0,124.62697631400079,124.62697631400079,[0.7338087700045435],,,,,,,,,,,,,,,,,,,,,,,,,,,,,,,,,,,,,,,,,,,,,,,,,,,,,,,,,,,,,,,,,,,,,,,ayelen_c,001,c,2019_Oct_10_1411,Experimento,3.2.3,60.03202059853944,
8,14,14,999,0.5,0:10,3,Blue,None,,,,,,,0,0,0,0,0,8,8,8,,,,,,,,,,,,,,,,,,,,,,,,,,,126.62620349200733,127.1261313569994,None,1,126.62620349200733,126.62620349200733,,,,,,,,,,,,,,,,,,,,,,,,,,,,,,,,,,,,,,,,,,,,,,,,,,,,,,,,,,,,,,,,,,,,,,,,ayelen_c,001,c,2019_Oct_10_1411,Experimento,3.2.3,60.03202059853944,
8,14,14,999,0.5,0:10,3,Green,['space'],,,,,,,0,0,0,0,0,9,9,9,,,,,,,,,,,,,,,,,,,,,,,,,,,128.6256034620019,129.1251939979993,['return'],0,128.6256034620019,128.6256034620019,[1.266513238006155],,,,,,,,,,,,,,,,,,,,,,,,,,,,,,,,,,,,,,,,,,,,,,,,,,,,,,,,,,,,,,,,,,,,,,,ayelen_c,001,c,2019_Oct_10_1411,Experimento,3.2.3,60.03202059853944,
8,14,14,999,0.5,0:10,3,,,0,1,0,10:50,./completed_changuitos/montage_coqxz_54.59_61.55.jpg,right,0,0,0,0,,,,,0,0,0,0,,,,,0,0,0,0,,,,,,,,,,,,,,,,,,,,,,130.78468214601162,144.83668318200216,144.83668318200216,152.8507146960037,152.8507146960037,166.86252365801192,left,0,2.3822678800061112,166.86252365801192,None,166.86252365801192,None,166.86252365801192,None,,,,,,,,,,,,,,,,,,,,,,,,,,,,,,,,,,,,,,,,,,,,,,,,,,,,,,,,ayelen_c,001,c,2019_Oct_10_1411,Experimento,3.2.3,60.03202059853944,
8,14,14,999,0.5,0:10,3,,,0,1,0,10:50,,,0,0,0,0,,,,,0,0,0,0,,,,,,,,,,,,,,,,,,,,,,,,,,,,,,,,,,,,,,,,,,,,,,,,,,,,,,,,,,,,,,,,,,,,,,,,,,,,,,,,,,,,,,,,,,,,,,,,,,,,ayelen_c,001,c,2019_Oct_10_1411,Experimento,3.2.3,60.03202059853944,
8,14,14,999,0.5,0:10,3,Yellow,None,0,0,1,15:50,./completed_changuitos/montage_hijvd_175.49_156.25.jpg,left,0,0,0,0,,,,,0,1,1,1,,,,,,,,,0,0,0,0,0,0,0,0,,,,,,,,,,,,,,,,,,,,,,,,,,,,,169.35475048900116,175.55957016300817,175.55957016300817,None,183.6033836530114,184.10629102500388,None,1,183.6033836530114,None,,,,,,,,,,,,,,,,,,,,,,,,,,,,,,,,,,,,,,,,,,,,,,ayelen_c,001,c,2019_Oct_10_1411,Experimento,3.2.3,60.03202059853944,
8,14,14,999,0.5,0:10,3,White,['space'],0,0,1,15:50,./completed_changuitos/montage_hijvd_175.49_156.25.jpg,left,0,0,0,0,,,,,0,1,1,1,,,,,,,,,0,0,0,0,0,1,1,1,,,,,,,,,,,,,,,,,,,,,,,,,,,,,,,,,185.60605539100652,186.10600076300034,None,0,185.60605539100652,185.60605539100652,,,,,,,,,,,,,,,,,,,,,,,,,,,,,,,,,,,,,,,,,,,,,,ayelen_c,001,c,2019_Oct_10_1411,Experimento,3.2.3,60.03202059853944,
8,14,14,999,0.5,0:10,3,Magenta,None,0,0,1,15:50,./completed_changuitos/montage_hijvd_175.49_156.25.jpg,left,0,0,0,0,,,,,0,1,1,1,,,,,,,,,0,0,0,0,0,2,2,2,,,,,,,,,,,,,,,,,,,,,,,,,,,,,,,,,187.60543999400397,188.1053046300076,None,1,187.60543999400397,187.60543999400397,,,,,,,,,,,,,,,,,,,,,,,,,,,,,,,,,,,,,,,,,,,,,,ayelen_c,001,c,2019_Oct_10_1411,Experimento,3.2.3,60.03202059853944,
8,14,14,999,0.5,0:10,3,Cyan,None,0,0,1,15:50,./completed_changuitos/montage_hijvd_175.49_156.25.jpg,left,0,0,0,0,,,,,0,1,1,1,,,,,,,,,0,0,0,0,0,3,3,3,,,,,,,,,,,,,,,,,,,,,,,,,,,,,,,,,189.6047278949991,190.10462017101236,None,1,189.6047278949991,189.6047278949991,,,,,,,,,,,,,,,,,,,,,,,,,,,,,,,,,,,,,,,,,,,,,,ayelen_c,001,c,2019_Oct_10_1411,Experimento,3.2.3,60.03202059853944,
8,14,14,999,0.5,0:10,3,Blue,None,0,0,1,15:50,./completed_changuitos/montage_hijvd_175.49_156.25.jpg,left,0,0,0,0,,,,,0,1,1,1,,,,,,,,,0,0,0,0,0,4,4,4,,,,,,,,,,,,,,,,,,,,,,,,,,,,,,,,,191.60401257500052,192.10395296900242,None,1,191.60401257500052,191.60401257500052,,,,,,,,,,,,,,,,,,,,,,,,,,,,,,,,,,,,,,,,,,,,,,ayelen_c,001,c,2019_Oct_10_1411,Experimento,3.2.3,60.03202059853944,
8,14,14,999,0.5,0:10,3,Magenta,None,0,0,1,15:50,./completed_changuitos/montage_hijvd_175.49_156.25.jpg,left,0,0,0,0,,,,,0,1,1,1,,,,,,,,,0,0,0,0,0,5,5,5,,,,,,,,,,,,,,,,,,,,,,,,,,,,,,,,,193.6032850210031,194.10323613700166,['return'],0,193.6032850210031,193.6032850210031,[0.5339715129957767],,,,,,,,,,,,,,,,,,,,,,,,,,,,,,,,,,,,,,,,,,,,,ayelen_c,001,c,2019_Oct_10_1411,Experimento,3.2.3,60.03202059853944,
8,14,14,999,0.5,0:10,3,Blue,['space'],0,0,1,15:50,./completed_changuitos/montage_hijvd_175.49_156.25.jpg,left,0,0,0,0,,,,,0,1,1,1,,,,,,,,,0,0,0,0,0,6,6,6,,,,,,,,,,,,,,,,,,,,,,,,,,,,,,,,,195.6023157620075,196.10220839700196,None,0,195.6023157620075,195.6023157620075,,,,,,,,,,,,,,,,,,,,,,,,,,,,,,,,,,,,,,,,,,,,,,ayelen_c,001,c,2019_Oct_10_1411,Experimento,3.2.3,60.03202059853944,
8,14,14,999,0.5,0:10,3,Cyan,None,0,0,1,15:50,./completed_changuitos/montage_hijvd_175.49_156.25.jpg,left,0,0,0,0,,,,,0,1,1,1,,,,,,,,,0,0,0,0,0,7,7,7,,,,,,,,,,,,,,,,,,,,,,,,,,,,,,,,,197.58540431310976,None,None,1,197.58540431310976,None,,,,,,,,,,,,,,,,,,,,,,,,,,,,,,,,,,,,,,,,,,,,,,ayelen_c,001,c,2019_Oct_10_1411,Experimento,3.2.3,60.03202059853944,
8,14,14,999,0.5,0:10,3,Yellow,None,0,0,1,15:50,./completed_changuitos/montage_hijvd_175.49_156.25.jpg,left,0,0,0,0,,,,,0,1,1,1,,,,,,,,,0,0,0,0,0,8,8,8,,,,,,,,,,,,,,,,,,,,,,,,,,,,,,,,,197.58540431310976,None,None,1,197.58540431310976,None,,,,,,,,,,,,,,,,,,,,,,,,,,,,,,,,,,,,,,,,,,,,,,ayelen_c,001,c,2019_Oct_10_1411,Experimento,3.2.3,60.03202059853944,
8,14,14,999,0.5,0:10,3,Cyan,None,0,0,1,15:50,./completed_changuitos/montage_hijvd_175.49_156.25.jpg,left,0,0,0,0,,,,,0,1,1,1,,,,,,,,,0,0,0,0,0,9,9,9,,,,,,,,,,,,,,,,,,,,,,,,,,,,,,,,,197.58540431310976,None,None,1,197.58540431310976,None,,,,,,,,,,,,,,,,,,,,,,,,,,,,,,,,,,,,,,,,,,,,,,ayelen_c,001,c,2019_Oct_10_1411,Experimento,3.2.3,60.03202059853944,
8,14,14,999,0.5,0:10,3,Blue,None,0,0,1,15:50,./completed_changuitos/montage_hijvd_175.49_156.25.jpg,left,0,0,0,0,,,,,0,1,1,1,,,,,,,,,0,0,0,0,0,10,10,10,,,,,,,,,,,,,,,,,,,,,,,,,,,,,,,,,197.58540431310976,None,None,1,197.58540431310976,None,,,,,,,,,,,,,,,,,,,,,,,,,,,,,,,,,,,,,,,,,,,,,,ayelen_c,001,c,2019_Oct_10_1411,Experimento,3.2.3,60.03202059853944,
8,14,14,999,0.5,0:10,3,Cyan,['space'],0,0,1,15:50,./completed_changuitos/montage_hijvd_175.49_156.25.jpg,left,0,0,0,0,,,,,0,1,1,1,,,,,,,,,0,0,0,0,0,11,11,11,,,,,,,,,,,,,,,,,,,,,,,,,,,,,,,,,197.6020817962097,None,None,0,197.6020817962097,None,,,,,,,,,,,,,,,,,,,,,,,,,,,,,,,,,,,,,,,,,,,,,,ayelen_c,001,c,2019_Oct_10_1411,Experimento,3.2.3,60.03202059853944,
8,14,14,999,0.5,0:10,3,Magenta,None,0,0,1,15:50,./completed_changuitos/montage_hijvd_175.49_156.25.jpg,left,0,0,0,0,,,,,0,1,1,1,,,,,,,,,0,0,0,0,0,12,12,12,,,,,,,,,,,,,,,,,,,,,,,,,,,,,,,,,197.6020817962097,None,None,1,197.6020817962097,None,,,,,,,,,,,,,,,,,,,,,,,,,,,,,,,,,,,,,,,,,,,,,,ayelen_c,001,c,2019_Oct_10_1411,Experimento,3.2.3,60.03202059853944,
8,14,14,999,0.5,0:10,3,Red,None,0,0,1,15:50,./completed_changuitos/montage_hijvd_175.49_156.25.jpg,left,0,0,0,0,,,,,0,1,1,1,,,,,,,,,0,0,0,0,0,13,13,13,,,,,,,,,,,,,,,,,,,,,,,,,,,,,,,,,197.6020817962097,None,None,1,197.6020817962097,None,,,,,,,,,,,,,,,,,,,,,,,,,,,,,,,,,,,,,,,,,,,,,,ayelen_c,001,c,2019_Oct_10_1411,Experimento,3.2.3,60.03202059853944,
8,14,14,999,0.5,0:10,3,Magenta,['space'],0,0,1,15:50,./completed_changuitos/montage_hijvd_175.49_156.25.jpg,left,0,0,0,0,,,,,0,1,1,1,,,,,,,,,0,0,0,0,0,14,14,14,,,,,,,,,,,,,,,,,,,,,,,,,,,,,,,,,197.6020817962097,None,None,0,197.6020817962097,None,,,,,,,,,,,,,,,,,,,,,,,,,,,,,,,,,,,,,,,,,,,,,,ayelen_c,001,c,2019_Oct_10_1411,Experimento,3.2.3,60.03202059853944,
8,14,14,999,0.5,0:10,3,Green,None,0,0,1,15:50,./completed_changuitos/montage_hijvd_175.49_156.25.jpg,left,0,0,0,0,,,,,0,1,1,1,,,,,,,,,0,0,0,0,0,15,15,15,,,,,,,,,,,,,,,,,,,,,,,,,,,,,,,,,197.6020817962097,None,None,1,197.6020817962097,None,,,,,,,,,,,,,,,,,,,,,,,,,,,,,,,,,,,,,,,,,,,,,,ayelen_c,001,c,2019_Oct_10_1411,Experimento,3.2.3,60.03202059853944,
8,14,14,999,0.5,0:10,3,Yellow,['space'],0,0,1,15:50,./completed_changuitos/montage_hijvd_175.49_156.25.jpg,left,0,0,0,0,,,,,0,1,1,1,,,,,,,,,0,0,0,0,0,16,16,16,,,,,,,,,,,,,,,,,,,,,,,,,,,,,,,,,197.6020817962097,None,None,0,197.6020817962097,None,,,,,,,,,,,,,,,,,,,,,,,,,,,,,,,,,,,,,,,,,,,,,,ayelen_c,001,c,2019_Oct_10_1411,Experimento,3.2.3,60.03202059853944,
8,14,14,999,0.5,0:10,3,Blue,None,0,0,1,15:50,./completed_changuitos/montage_hijvd_175.49_156.25.jpg,left,0,0,0,0,,,,,0,1,1,1,,,,,,,,,0,0,0,0,0,17,17,17,,,,,,,,,,,,,,,,,,,,,,,,,,,,,,,,,197.61875927930961,None,None,1,197.61875927930961,None,,,,,,,,,,,,,,,,,,,,,,,,,,,,,,,,,,,,,,,,,,,,,,ayelen_c,001,c,2019_Oct_10_1411,Experimento,3.2.3,60.03202059853944,
8,14,14,999,0.5,0:10,3,Cyan,None,0,0,1,15:50,./completed_changuitos/montage_hijvd_175.49_156.25.jpg,left,0,0,0,0,,,,,0,1,1,1,,,,,,,,,0,0,0,0,0,18,18,18,,,,,,,,,,,,,,,,,,,,,,,,,,,,,,,,,197.61875927930961,None,None,1,197.61875927930961,None,,,,,,,,,,,,,,,,,,,,,,,,,,,,,,,,,,,,,,,,,,,,,,ayelen_c,001,c,2019_Oct_10_1411,Experimento,3.2.3,60.03202059853944,
8,14,14,999,0.5,0:10,3,Blue,['space'],0,0,1,15:50,./completed_changuitos/montage_hijvd_175.49_156.25.jpg,left,0,0,0,0,,,,,0,1,1,1,,,,,,,,,0,0,0,0,0,19,19,19,,,,,,,,,,,,,,,,,,,,,,,,,,,,,,,,,197.61875927930961,None,None,0,197.61875927930961,None,,,,,,,,,,,,,,,,,,,,,,,,,,,,,,,,,,,,,,,,,,,,,,ayelen_c,001,c,2019_Oct_10_1411,Experimento,3.2.3,60.03202059853944,
8,14,14,999,0.5,0:10,3,Yellow,None,0,0,1,15:50,./completed_changuitos/montage_hijvd_175.49_156.25.jpg,left,0,0,0,0,,,,,0,1,1,1,,,,,,,,,0,0,0,0,0,20,20,20,,,,,,,,,,,,,,,,,,,,,,,,,,,,,,,,,197.61875927930961,None,None,1,197.61875927930961,None,,,,,,,,,,,,,,,,,,,,,,,,,,,,,,,,,,,,,,,,,,,,,,ayelen_c,001,c,2019_Oct_10_1411,Experimento,3.2.3,60.03202059853944,
8,14,14,999,0.5,0:10,3,Cyan,None,0,0,1,15:50,./completed_changuitos/montage_hijvd_175.49_156.25.jpg,left,0,0,0,0,,,,,0,1,1,1,,,,,,,,,0,0,0,0,0,21,21,21,,,,,,,,,,,,,,,,,,,,,,,,,,,,,,,,,197.61875927930961,None,None,1,197.61875927930961,None,,,,,,,,,,,,,,,,,,,,,,,,,,,,,,,,,,,,,,,,,,,,,,ayelen_c,001,c,2019_Oct_10_1411,Experimento,3.2.3,60.03202059853944,
8,14,14,999,0.5,0:10,3,Yellow,['space'],0,0,1,15:50,./completed_changuitos/montage_hijvd_175.49_156.25.jpg,left,0,0,0,0,,,,,0,1,1,1,,,,,,,,,0,0,0,0,0,22,22,22,,,,,,,,,,,,,,,,,,,,,,,,,,,,,,,,,197.61875927930961,None,None,0,197.61875927930961,None,,,,,,,,,,,,,,,,,,,,,,,,,,,,,,,,,,,,,,,,,,,,,,ayelen_c,001,c,2019_Oct_10_1411,Experimento,3.2.3,60.03202059853944,
8,14,14,999,0.5,0:10,3,Magenta,None,0,0,1,15:50,./completed_changuitos/montage_hijvd_175.49_156.25.jpg,left,0,0,0,0,,,,,0,1,1,1,,,,,,,,,0,0,0,0,0,23,23,23,,,,,,,,,,,,,,,,,,,,,,,,,,,,,,,,,197.61875927930961,None,None,1,197.61875927930961,None,,,,,,,,,,,,,,,,,,,,,,,,,,,,,,,,,,,,,,,,,,,,,,ayelen_c,001,c,2019_Oct_10_1411,Experimento,3.2.3,60.03202059853944,
8,14,14,999,0.5,0:10,3,Red,None,0,0,1,15:50,./completed_changuitos/montage_hijvd_175.49_156.25.jpg,left,0,0,0,0,,,,,0,1,1,1,,,,,,,,,0,0,0,0,0,24,24,24,,,,,,,,,,,,,,,,,,,,,,,,,,,,,,,,,197.61875927930961,None,None,1,197.61875927930961,None,,,,,,,,,,,,,,,,,,,,,,,,,,,,,,,,,,,,,,,,,,,,,,ayelen_c,001,c,2019_Oct_10_1411,Experimento,3.2.3,60.03202059853944,
8,14,14,999,0.5,0:10,3,Magenta,['space'],0,0,1,15:50,./completed_changuitos/montage_hijvd_175.49_156.25.jpg,left,0,0,0,0,,,,,0,1,1,1,,,,,,,,,0,0,0,0,0,25,25,25,,,,,,,,,,,,,,,,,,,,,,,,,,,,,,,,,197.61875927930961,None,None,0,197.61875927930961,None,,,,,,,,,,,,,,,,,,,,,,,,,,,,,,,,,,,,,,,,,,,,,,ayelen_c,001,c,2019_Oct_10_1411,Experimento,3.2.3,60.03202059853944,
8,14,14,999,0.5,0:10,3,Red,['space'],0,0,1,15:50,./completed_changuitos/montage_hijvd_175.49_156.25.jpg,left,0,0,0,0,,,,,0,1,1,1,,,,,,,,,0,0,0,0,0,26,26,26,,,,,,,,,,,,,,,,,,,,,,,,,,,,,,,,,197.61875927930961,None,None,0,197.61875927930961,None,,,,,,,,,,,,,,,,,,,,,,,,,,,,,,,,,,,,,,,,,,,,,,ayelen_c,001,c,2019_Oct_10_1411,Experimento,3.2.3,60.03202059853944,
8,14,14,999,0.5,0:10,3,Yellow,None,0,0,1,15:50,./completed_changuitos/montage_hijvd_175.49_156.25.jpg,left,0,0,0,0,,,,,0,1,1,1,,,,,,,,,0,0,0,0,0,27,27,27,,,,,,,,,,,,,,,,,,,,,,,,,,,,,,,,,197.61875927930961,None,None,1,197.61875927930961,None,,,,,,,,,,,,,,,,,,,,,,,,,,,,,,,,,,,,,,,,,,,,,,ayelen_c,001,c,2019_Oct_10_1411,Experimento,3.2.3,60.03202059853944,
8,14,14,999,0.5,0:10,3,Cyan,None,0,0,1,15:50,./completed_changuitos/montage_hijvd_175.49_156.25.jpg,left,0,0,0,0,,,,,0,1,1,1,,,,,,,,,0,0,0,0,0,28,28,28,,,,,,,,,,,,,,,,,,,,,,,,,,,,,,,,,197.61875927930961,None,None,1,197.61875927930961,None,,,,,,,,,,,,,,,,,,,,,,,,,,,,,,,,,,,,,,,,,,,,,,ayelen_c,001,c,2019_Oct_10_1411,Experimento,3.2.3,60.03202059853944,
8,14,14,999,0.5,0:10,3,Green,None,0,0,1,15:50,./completed_changuitos/montage_hijvd_175.49_156.25.jpg,left,0,0,0,0,,,,,0,1,1,1,,,,,,,,,0,0,0,0,0,29,29,29,,,,,,,,,,,,,,,,,,,,,,,,,,,,,,,,,197.61875927930961,None,None,1,197.61875927930961,None,,,,,,,,,,,,,,,,,,,,,,,,,,,,,,,,,,,,,,,,,,,,,,ayelen_c,001,c,2019_Oct_10_1411,Experimento,3.2.3,60.03202059853944,
8,14,14,999,0.5,0:10,3,White,None,0,0,1,15:50,./completed_changuitos/montage_hijvd_175.49_156.25.jpg,left,0,0,0,0,,,,,0,1,1,1,,,,,,,,,0,0,0,0,0,30,30,30,,,,,,,,,,,,,,,,,,,,,,,,,,,,,,,,,197.6354367624095,None,None,1,197.6354367624095,None,,,,,,,,,,,,,,,,,,,,,,,,,,,,,,,,,,,,,,,,,,,,,,ayelen_c,001,c,2019_Oct_10_1411,Experimento,3.2.3,60.03202059853944,
8,14,14,999,0.5,0:10,3,Green,['space'],0,0,1,15:50,./completed_changuitos/montage_hijvd_175.49_156.25.jpg,left,0,0,0,0,,,,,0,1,1,1,,,,,,,,,0,0,0,0,0,31,31,31,,,,,,,,,,,,,,,,,,,,,,,,,,,,,,,,,197.6354367624095,None,None,0,197.6354367624095,None,,,,,,,,,,,,,,,,,,,,,,,,,,,,,,,,,,,,,,,,,,,,,,ayelen_c,001,c,2019_Oct_10_1411,Experimento,3.2.3,60.03202059853944,
8,14,14,999,0.5,0:10,3,Red,None,0,0,1,15:50,./completed_changuitos/montage_hijvd_175.49_156.25.jpg,left,0,0,0,0,,,,,0,1,1,1,,,,,,,,,0,0,0,0,0,32,32,32,,,,,,,,,,,,,,,,,,,,,,,,,,,,,,,,,197.6354367624095,None,None,1,197.6354367624095,None,,,,,,,,,,,,,,,,,,,,,,,,,,,,,,,,,,,,,,,,,,,,,,ayelen_c,001,c,2019_Oct_10_1411,Experimento,3.2.3,60.03202059853944,
8,14,14,999,0.5,0:10,3,Blue,None,0,0,1,15:50,./completed_changuitos/montage_hijvd_175.49_156.25.jpg,left,0,0,0,0,,,,,0,1,1,1,,,,,,,,,0,0,0,0,0,33,33,33,,,,,,,,,,,,,,,,,,,,,,,,,,,,,,,,,197.6354367624095,None,None,1,197.6354367624095,None,,,,,,,,,,,,,,,,,,,,,,,,,,,,,,,,,,,,,,,,,,,,,,ayelen_c,001,c,2019_Oct_10_1411,Experimento,3.2.3,60.03202059853944,
8,14,14,999,0.5,0:10,3,Green,None,0,0,1,15:50,./completed_changuitos/montage_hijvd_175.49_156.25.jpg,left,0,0,0,0,,,,,0,1,1,1,,,,,,,,,0,0,0,0,0,34,34,34,,,,,,,,,,,,,,,,,,,,,,,,,,,,,,,,,197.6354367624095,None,None,1,197.6354367624095,None,,,,,,,,,,,,,,,,,,,,,,,,,,,,,,,,,,,,,,,,,,,,,,ayelen_c,001,c,2019_Oct_10_1411,Experimento,3.2.3,60.03202059853944,
8,14,14,999,0.5,0:10,3,,,0,0,1,15:50,./completed_changuitos/montage_hijvd_175.49_156.25.jpg,left,0,0,0,0,,,,,0,1,1,1,,,,,,,,,0,0,0,0,,,,,,,,,,,,,,,,,,,,,,,,,,,,,,,,,,,,,,,,,,,,197.66759744900628,None,right,0,1.5339054700016277,197.66759744900628,None,197.66759744900628,None,,,,,,,,,,,,,,,,,,,,,,,,,,,,,,,,,,,,ayelen_c,001,c,2019_Oct_10_1411,Experimento,3.2.3,60.03202059853944,
8,14,14,999,0.5,0:10,3,,,0,0,1,15:50,,,0,0,0,0,,,,,0,1,1,1,,,,,,,,,,,,,,,,,,,,,,,,,,,,,,,,,,,,,,,,,,,,,,,,,,,,,,,,,,,,,,,,,,,,,,,,,,,,,,,,,,,,,,,,,,,,,,,,,,,,ayelen_c,001,c,2019_Oct_10_1411,Experimento,3.2.3,60.03202059853944,
8,14,14,999,0.5,0:10,3,Magenta,None,0,0,1,20:50,./completed_changuitos/montage_jjuck_61.55_52.95.jpg,left,0,0,0,0,,,,,0,2,2,2,,,,,,,,,0,0,0,0,0,0,0,0,,,,,,,,,,,,,,,,,,,,,,,,,,,,,199.3228955220111,201.10084032500163,201.10084032500163,None,209.14267296300386,209.64792059200408,None,1,209.14267296300386,None,,,,,,,,,,,,,,,,,,,,,,,,,,,,,,,,,,,,,,,,,,,,,,ayelen_c,001,c,2019_Oct_10_1411,Experimento,3.2.3,60.03202059853944,
8,14,14,999,0.5,0:10,3,Blue,['space'],0,0,1,20:50,./completed_changuitos/montage_jjuck_61.55_52.95.jpg,left,0,0,0,0,,,,,0,2,2,2,,,,,,,,,0,0,0,0,0,1,1,1,,,,,,,,,,,,,,,,,,,,,,,,,,,,,,,,,211.1472372470016,211.64723844001128,None,0,211.1472372470016,211.1472372470016,,,,,,,,,,,,,,,,,,,,,,,,,,,,,,,,,,,,,,,,,,,,,,ayelen_c,001,c,2019_Oct_10_1411,Experimento,3.2.3,60.03202059853944,
8,14,14,999,0.5,0:10,3,Cyan,None,0,0,1,20:50,./completed_changuitos/montage_jjuck_61.55_52.95.jpg,left,0,0,0,0,,,,,0,2,2,2,,,,,,,,,0,0,0,0,0,2,2,2,,,,,,,,,,,,,,,,,,,,,,,,,,,,,,,,,213.1463601810101,213.64655530601158,None,1,213.1463601810101,213.1463601810101,,,,,,,,,,,,,,,,,,,,,,,,,,,,,,,,,,,,,,,,,,,,,,ayelen_c,001,c,2019_Oct_10_1411,Experimento,3.2.3,60.03202059853944,
8,14,14,999,0.5,0:10,3,Yellow,None,0,0,1,20:50,./completed_changuitos/montage_jjuck_61.55_52.95.jpg,left,0,0,0,0,,,,,0,2,2,2,,,,,,,,,0,0,0,0,0,3,3,3,,,,,,,,,,,,,,,,,,,,,,,,,,,,,,,,,215.1460034000047,215.6458670800057,None,1,215.1460034000047,215.1460034000047,,,,,,,,,,,,,,,,,,,,,,,,,,,,,,,,,,,,,,,,,,,,,,ayelen_c,001,c,2019_Oct_10_1411,Experimento,3.2.3,60.03202059853944,
8,14,14,999,0.5,0:10,3,Cyan,None,0,0,1,20:50,./completed_changuitos/montage_jjuck_61.55_52.95.jpg,left,0,0,0,0,,,,,0,2,2,2,,,,,,,,,0,0,0,0,0,4,4,4,,,,,,,,,,,,,,,,,,,,,,,,,,,,,,,,,217.14531747900764,217.6452017630072,None,1,217.14531747900764,217.14531747900764,,,,,,,,,,,,,,,,,,,,,,,,,,,,,,,,,,,,,,,,,,,,,,ayelen_c,001,c,2019_Oct_10_1411,Experimento,3.2.3,60.03202059853944,
8,14,14,999,0.5,0:10,3,Blue,None,0,0,1,20:50,./completed_changuitos/montage_jjuck_61.55_52.95.jpg,left,0,0,0,0,,,,,0,2,2,2,,,,,,,,,0,0,0,0,0,5,5,5,,,,,,,,,,,,,,,,,,,,,,,,,,,,,,,,,219.1444579730014,219.64453554801003,None,1,219.1444579730014,219.1444579730014,,,,,,,,,,,,,,,,,,,,,,,,,,,,,,,,,,,,,,,,,,,,,,ayelen_c,001,c,2019_Oct_10_1411,Experimento,3.2.3,60.03202059853944,
8,14,14,999,0.5,0:10,3,Cyan,['space'],0,0,1,20:50,./completed_changuitos/montage_jjuck_61.55_52.95.jpg,left,0,0,0,0,,,,,0,2,2,2,,,,,,,,,0,0,0,0,0,6,6,6,,,,,,,,,,,,,,,,,,,,,,,,,,,,,,,,,221.14388503901137,221.64381005200266,None,0,221.14388503901137,221.14388503901137,,,,,,,,,,,,,,,,,,,,,,,,,,,,,,,,,,,,,,,,,,,,,,ayelen_c,001,c,2019_Oct_10_1411,Experimento,3.2.3,60.03202059853944,
8,14,14,999,0.5,0:10,3,Magenta,None,0,0,1,20:50,./completed_changuitos/montage_jjuck_61.55_52.95.jpg,left,0,0,0,0,,,,,0,2,2,2,,,,,,,,,0,0,0,0,0,7,7,7,,,,,,,,,,,,,,,,,,,,,,,,,,,,,,,,,223.1266645471027,None,None,1,223.1266645471027,None,,,,,,,,,,,,,,,,,,,,,,,,,,,,,,,,,,,,,,,,,,,,,,ayelen_c,001,c,2019_Oct_10_1411,Experimento,3.2.3,60.03202059853944,
8,14,14,999,0.5,0:10,3,Red,None,0,0,1,20:50,./completed_changuitos/montage_jjuck_61.55_52.95.jpg,left,0,0,0,0,,,,,0,2,2,2,,,,,,,,,0,0,0,0,0,8,8,8,,,,,,,,,,,,,,,,,,,,,,,,,,,,,,,,,223.1266645471027,None,None,1,223.1266645471027,None,,,,,,,,,,,,,,,,,,,,,,,,,,,,,,,,,,,,,,,,,,,,,,ayelen_c,001,c,2019_Oct_10_1411,Experimento,3.2.3,60.03202059853944,
8,14,14,999,0.5,0:10,3,Magenta,['space'],0,0,1,20:50,./completed_changuitos/montage_jjuck_61.55_52.95.jpg,left,0,0,0,0,,,,,0,2,2,2,,,,,,,,,0,0,0,0,0,9,9,9,,,,,,,,,,,,,,,,,,,,,,,,,,,,,,,,,223.1266645471027,None,None,0,223.1266645471027,None,,,,,,,,,,,,,,,,,,,,,,,,,,,,,,,,,,,,,,,,,,,,,,ayelen_c,001,c,2019_Oct_10_1411,Experimento,3.2.3,60.03202059853944,
8,14,14,999,0.5,0:10,3,Green,None,0,0,1,20:50,./completed_changuitos/montage_jjuck_61.55_52.95.jpg,left,0,0,0,0,,,,,0,2,2,2,,,,,,,,,0,0,0,0,0,10,10,10,,,,,,,,,,,,,,,,,,,,,,,,,,,,,,,,,223.1266645471027,None,None,1,223.1266645471027,None,,,,,,,,,,,,,,,,,,,,,,,,,,,,,,,,,,,,,,,,,,,,,,ayelen_c,001,c,2019_Oct_10_1411,Experimento,3.2.3,60.03202059853944,
8,14,14,999,0.5,0:10,3,Yellow,['space'],0,0,1,20:50,./completed_changuitos/montage_jjuck_61.55_52.95.jpg,left,0,0,0,0,,,,,0,2,2,2,,,,,,,,,0,0,0,0,0,11,11,11,,,,,,,,,,,,,,,,,,,,,,,,,,,,,,,,,223.14334203020263,None,None,0,223.14334203020263,None,,,,,,,,,,,,,,,,,,,,,,,,,,,,,,,,,,,,,,,,,,,,,,ayelen_c,001,c,2019_Oct_10_1411,Experimento,3.2.3,60.03202059853944,
8,14,14,999,0.5,0:10,3,Blue,None,0,0,1,20:50,./completed_changuitos/montage_jjuck_61.55_52.95.jpg,left,0,0,0,0,,,,,0,2,2,2,,,,,,,,,0,0,0,0,0,12,12,12,,,,,,,,,,,,,,,,,,,,,,,,,,,,,,,,,223.14334203020263,None,None,1,223.14334203020263,None,,,,,,,,,,,,,,,,,,,,,,,,,,,,,,,,,,,,,,,,,,,,,,ayelen_c,001,c,2019_Oct_10_1411,Experimento,3.2.3,60.03202059853944,
8,14,14,999,0.5,0:10,3,Cyan,None,0,0,1,20:50,./completed_changuitos/montage_jjuck_61.55_52.95.jpg,left,0,0,0,0,,,,,0,2,2,2,,,,,,,,,0,0,0,0,0,13,13,13,,,,,,,,,,,,,,,,,,,,,,,,,,,,,,,,,223.14334203020263,None,None,1,223.14334203020263,None,,,,,,,,,,,,,,,,,,,,,,,,,,,,,,,,,,,,,,,,,,,,,,ayelen_c,001,c,2019_Oct_10_1411,Experimento,3.2.3,60.03202059853944,
8,14,14,999,0.5,0:10,3,Blue,['space'],0,0,1,20:50,./completed_changuitos/montage_jjuck_61.55_52.95.jpg,left,0,0,0,0,,,,,0,2,2,2,,,,,,,,,0,0,0,0,0,14,14,14,,,,,,,,,,,,,,,,,,,,,,,,,,,,,,,,,223.14334203020263,None,None,0,223.14334203020263,None,,,,,,,,,,,,,,,,,,,,,,,,,,,,,,,,,,,,,,,,,,,,,,ayelen_c,001,c,2019_Oct_10_1411,Experimento,3.2.3,60.03202059853944,
8,14,14,999,0.5,0:10,3,Yellow,None,0,0,1,20:50,./completed_changuitos/montage_jjuck_61.55_52.95.jpg,left,0,0,0,0,,,,,0,2,2,2,,,,,,,,,0,0,0,0,0,15,15,15,,,,,,,,,,,,,,,,,,,,,,,,,,,,,,,,,223.14334203020263,None,None,1,223.14334203020263,None,,,,,,,,,,,,,,,,,,,,,,,,,,,,,,,,,,,,,,,,,,,,,,ayelen_c,001,c,2019_Oct_10_1411,Experimento,3.2.3,60.03202059853944,
8,14,14,999,0.5,0:10,3,Cyan,None,0,0,1,20:50,./completed_changuitos/montage_jjuck_61.55_52.95.jpg,left,0,0,0,0,,,,,0,2,2,2,,,,,,,,,0,0,0,0,0,16,16,16,,,,,,,,,,,,,,,,,,,,,,,,,,,,,,,,,223.16001951330256,None,None,1,223.16001951330256,None,,,,,,,,,,,,,,,,,,,,,,,,,,,,,,,,,,,,,,,,,,,,,,ayelen_c,001,c,2019_Oct_10_1411,Experimento,3.2.3,60.03202059853944,
8,14,14,999,0.5,0:10,3,Yellow,['space'],0,0,1,20:50,./completed_changuitos/montage_jjuck_61.55_52.95.jpg,left,0,0,0,0,,,,,0,2,2,2,,,,,,,,,0,0,0,0,0,17,17,17,,,,,,,,,,,,,,,,,,,,,,,,,,,,,,,,,223.16001951330256,None,None,0,223.16001951330256,None,,,,,,,,,,,,,,,,,,,,,,,,,,,,,,,,,,,,,,,,,,,,,,ayelen_c,001,c,2019_Oct_10_1411,Experimento,3.2.3,60.03202059853944,
8,14,14,999,0.5,0:10,3,Magenta,None,0,0,1,20:50,./completed_changuitos/montage_jjuck_61.55_52.95.jpg,left,0,0,0,0,,,,,0,2,2,2,,,,,,,,,0,0,0,0,0,18,18,18,,,,,,,,,,,,,,,,,,,,,,,,,,,,,,,,,223.16001951330256,None,None,1,223.16001951330256,None,,,,,,,,,,,,,,,,,,,,,,,,,,,,,,,,,,,,,,,,,,,,,,ayelen_c,001,c,2019_Oct_10_1411,Experimento,3.2.3,60.03202059853944,
8,14,14,999,0.5,0:10,3,Red,None,0,0,1,20:50,./completed_changuitos/montage_jjuck_61.55_52.95.jpg,left,0,0,0,0,,,,,0,2,2,2,,,,,,,,,0,0,0,0,0,19,19,19,,,,,,,,,,,,,,,,,,,,,,,,,,,,,,,,,223.16001951330256,None,None,1,223.16001951330256,None,,,,,,,,,,,,,,,,,,,,,,,,,,,,,,,,,,,,,,,,,,,,,,ayelen_c,001,c,2019_Oct_10_1411,Experimento,3.2.3,60.03202059853944,
8,14,14,999,0.5,0:10,3,Magenta,['space'],0,0,1,20:50,./completed_changuitos/montage_jjuck_61.55_52.95.jpg,left,0,0,0,0,,,,,0,2,2,2,,,,,,,,,0,0,0,0,0,20,20,20,,,,,,,,,,,,,,,,,,,,,,,,,,,,,,,,,223.16001951330256,None,None,0,223.16001951330256,None,,,,,,,,,,,,,,,,,,,,,,,,,,,,,,,,,,,,,,,,,,,,,,ayelen_c,001,c,2019_Oct_10_1411,Experimento,3.2.3,60.03202059853944,
8,14,14,999,0.5,0:10,3,Red,['space'],0,0,1,20:50,./completed_changuitos/montage_jjuck_61.55_52.95.jpg,left,0,0,0,0,,,,,0,2,2,2,,,,,,,,,0,0,0,0,0,21,21,21,,,,,,,,,,,,,,,,,,,,,,,,,,,,,,,,,223.16001951330256,None,None,0,223.16001951330256,None,,,,,,,,,,,,,,,,,,,,,,,,,,,,,,,,,,,,,,,,,,,,,,ayelen_c,001,c,2019_Oct_10_1411,Experimento,3.2.3,60.03202059853944,
8,14,14,999,0.5,0:10,3,Yellow,None,0,0,1,20:50,./completed_changuitos/montage_jjuck_61.55_52.95.jpg,left,0,0,0,0,,,,,0,2,2,2,,,,,,,,,0,0,0,0,0,22,22,22,,,,,,,,,,,,,,,,,,,,,,,,,,,,,,,,,223.16001951330256,None,None,1,223.16001951330256,None,,,,,,,,,,,,,,,,,,,,,,,,,,,,,,,,,,,,,,,,,,,,,,ayelen_c,001,c,2019_Oct_10_1411,Experimento,3.2.3,60.03202059853944,
8,14,14,999,0.5,0:10,3,Cyan,None,0,0,1,20:50,./completed_changuitos/montage_jjuck_61.55_52.95.jpg,left,0,0,0,0,,,,,0,2,2,2,,,,,,,,,0,0,0,0,0,23,23,23,,,,,,,,,,,,,,,,,,,,,,,,,,,,,,,,,223.16001951330256,None,None,1,223.16001951330256,None,,,,,,,,,,,,,,,,,,,,,,,,,,,,,,,,,,,,,,,,,,,,,,ayelen_c,001,c,2019_Oct_10_1411,Experimento,3.2.3,60.03202059853944,
8,14,14,999,0.5,0:10,3,Green,None,0,0,1,20:50,./completed_changuitos/montage_jjuck_61.55_52.95.jpg,left,0,0,0,0,,,,,0,2,2,2,,,,,,,,,0,0,0,0,0,24,24,24,,,,,,,,,,,,,,,,,,,,,,,,,,,,,,,,,223.16001951330256,None,None,1,223.16001951330256,None,,,,,,,,,,,,,,,,,,,,,,,,,,,,,,,,,,,,,,,,,,,,,,ayelen_c,001,c,2019_Oct_10_1411,Experimento,3.2.3,60.03202059853944,
8,14,14,999,0.5,0:10,3,White,None,0,0,1,20:50,./completed_changuitos/montage_jjuck_61.55_52.95.jpg,left,0,0,0,0,,,,,0,2,2,2,,,,,,,,,0,0,0,0,0,25,25,25,,,,,,,,,,,,,,,,,,,,,,,,,,,,,,,,,223.16001951330256,None,None,1,223.16001951330256,None,,,,,,,,,,,,,,,,,,,,,,,,,,,,,,,,,,,,,,,,,,,,,,ayelen_c,001,c,2019_Oct_10_1411,Experimento,3.2.3,60.03202059853944,
8,14,14,999,0.5,0:10,3,Green,['space'],0,0,1,20:50,./completed_changuitos/montage_jjuck_61.55_52.95.jpg,left,0,0,0,0,,,,,0,2,2,2,,,,,,,,,0,0,0,0,0,26,26,26,,,,,,,,,,,,,,,,,,,,,,,,,,,,,,,,,223.16001951330256,None,None,0,223.16001951330256,None,,,,,,,,,,,,,,,,,,,,,,,,,,,,,,,,,,,,,,,,,,,,,,ayelen_c,001,c,2019_Oct_10_1411,Experimento,3.2.3,60.03202059853944,
8,14,14,999,0.5,0:10,3,Red,None,0,0,1,20:50,./completed_changuitos/montage_jjuck_61.55_52.95.jpg,left,0,0,0,0,,,,,0,2,2,2,,,,,,,,,0,0,0,0,0,27,27,27,,,,,,,,,,,,,,,,,,,,,,,,,,,,,,,,,223.17669699640246,None,None,1,223.17669699640246,None,,,,,,,,,,,,,,,,,,,,,,,,,,,,,,,,,,,,,,,,,,,,,,ayelen_c,001,c,2019_Oct_10_1411,Experimento,3.2.3,60.03202059853944,
8,14,14,999,0.5,0:10,3,Blue,None,0,0,1,20:50,./completed_changuitos/montage_jjuck_61.55_52.95.jpg,left,0,0,0,0,,,,,0,2,2,2,,,,,,,,,0,0,0,0,0,28,28,28,,,,,,,,,,,,,,,,,,,,,,,,,,,,,,,,,223.17669699640246,None,None,1,223.17669699640246,None,,,,,,,,,,,,,,,,,,,,,,,,,,,,,,,,,,,,,,,,,,,,,,ayelen_c,001,c,2019_Oct_10_1411,Experimento,3.2.3,60.03202059853944,
8,14,14,999,0.5,0:10,3,Green,None,0,0,1,20:50,./completed_changuitos/montage_jjuck_61.55_52.95.jpg,left,0,0,0,0,,,,,0,2,2,2,,,,,,,,,0,0,0,0,0,29,29,29,,,,,,,,,,,,,,,,,,,,,,,,,,,,,,,,,223.17669699640246,None,None,1,223.17669699640246,None,,,,,,,,,,,,,,,,,,,,,,,,,,,,,,,,,,,,,,,,,,,,,,ayelen_c,001,c,2019_Oct_10_1411,Experimento,3.2.3,60.03202059853944,
8,14,14,999,0.5,0:10,3,,,0,0,1,20:50,./completed_changuitos/montage_jjuck_61.55_52.95.jpg,left,0,0,0,0,,,,,0,2,2,2,,,,,,,,,0,0,0,0,,,,,,,,,,,,,,,,,,,,,,,,,,,,,,,,,,,,,,,,,,,,223.2036846060073,None,left,1,1.4391454630094813,223.2036846060073,None,223.2036846060073,None,,,,,,,,,,,,,,,,,,,,,,,,,,,,,,,,,,,,ayelen_c,001,c,2019_Oct_10_1411,Experimento,3.2.3,60.03202059853944,
8,14,14,999,0.5,0:10,3,,,0,0,1,20:50,,,0,0,0,0,,,,,0,2,2,2,,,,,,,,,,,,,,,,,,,,,,,,,,,,,,,,,,,,,,,,,,,,,,,,,,,,,,,,,,,,,,,,,,,,,,,,,,,,,,,,,,,,,,,,,,,,,,,,,,,,ayelen_c,001,c,2019_Oct_10_1411,Experimento,3.2.3,60.03202059853944,
8,14,14,999,0.5,0:10,3,,,0,1,0,25:50,./completed_changuitos/montage_noqou_90.95_80.25.jpg,left,0,0,0,0,,,,,0,3,3,3,,,,,0,0,0,0,,,,,,,,,,,,,,,,,,,,,,224.7850029070105,228.7747333770094,228.7747333770094,236.7886555270088,236.7886555270088,250.80010633500933,left,1,2.0835517429950414,250.80010633500933,None,250.80010633500933,None,250.80010633500933,None,,,,,,,,,,,,,,,,,,,,,,,,,,,,,,,,,,,,,,,,,,,,,,,,,,,,,,,,ayelen_c,001,c,2019_Oct_10_1411,Experimento,3.2.3,60.03202059853944,
8,14,14,999,0.5,0:10,3,,,0,1,0,25:50,,,0,0,0,0,,,,,0,3,3,3,,,,,,,,,,,,,,,,,,,,,,,,,,,,,,,,,,,,,,,,,,,,,,,,,,,,,,,,,,,,,,,,,,,,,,,,,,,,,,,,,,,,,,,,,,,,,,,,,,,,ayelen_c,001,c,2019_Oct_10_1411,Experimento,3.2.3,60.03202059853944,
8,14,14,999,0.5,0:10,3,,,0,1,0,10:50,./completed_changuitos/montage_djmfo_45.9_40.65.jpg,left,0,0,0,0,,,,,0,4,4,4,,,,,0,0,0,0,,,,,,,,,,,,,,,,,,,,,,253.03125979501056,254.56589186700876,254.56589186700876,262.5798766730004,262.5798766730004,276.59170053699927,right,0,1.466667520988267,276.59170053699927,None,276.59170053699927,None,276.59170053699927,None,,,,,,,,,,,,,,,,,,,,,,,,,,,,,,,,,,,,,,,,,,,,,,,,,,,,,,,,ayelen_c,001,c,2019_Oct_10_1411,Experimento,3.2.3,60.03202059853944,
8,14,14,999,0.5,0:10,3,,,0,1,0,10:50,,,0,0,0,0,,,,,0,4,4,4,,,,,,,,,,,,,,,,,,,,,,,,,,,,,,,,,,,,,,,,,,,,,,,,,,,,,,,,,,,,,,,,,,,,,,,,,,,,,,,,,,,,,,,,,,,,,,,,,,,,ayelen_c,001,c,2019_Oct_10_1411,Experimento,3.2.3,60.03202059853944,
8,14,14,999,0.5,0:10,3,,,0,1,0,19:50,./completed_changuitos/montage_idsvk_170.15_194.75.jpg,right,0,0,0,0,,,,,0,5,5,5,,,,,0,0,0,0,,,,,,,,,,,,,,,,,,,,,,278.20671972101263,281.5066710750107,281.5066710750107,289.52067180001177,289.52067180001177,303.53247710601136,right,1,1.0335123739932897,303.53247710601136,None,303.53247710601136,None,303.53247710601136,None,,,,,,,,,,,,,,,,,,,,,,,,,,,,,,,,,,,,,,,,,,,,,,,,,,,,,,,,ayelen_c,001,c,2019_Oct_10_1411,Experimento,3.2.3,60.03202059853944,
8,14,14,999,0.5,0:10,3,,,0,1,0,19:50,,,0,0,0,0,,,,,0,5,5,5,,,,,,,,,,,,,,,,,,,,,,,,,,,,,,,,,,,,,,,,,,,,,,,,,,,,,,,,,,,,,,,,,,,,,,,,,,,,,,,,,,,,,,,,,,,,,,,,,,,,ayelen_c,001,c,2019_Oct_10_1411,Experimento,3.2.3,60.03202059853944,
8,14,14,999,0.5,0:10,3,Red,None,0,0,1,28:50,./completed_changuitos/montage_tdasw_122.95_139.0.jpg,right,0,0,0,0,,,,,0,6,6,6,,,,,,,,,0,0,0,0,0,0,0,0,,,,,,,,,,,,,,,,,,,,,,,,,,,,,304.70073787900037,306.698085438009,306.698085438009,None,314.74045993899927,315.24517375700816,None,1,314.74045993899927,None,,,,,,,,,,,,,,,,,,,,,,,,,,,,,,,,,,,,,,,,,,,,,,ayelen_c,001,c,2019_Oct_10_1411,Experimento,3.2.3,60.03202059853944,
8,14,14,999,0.5,0:10,3,Magenta,['space'],0,0,1,28:50,./completed_changuitos/montage_tdasw_122.95_139.0.jpg,right,0,0,0,0,,,,,0,6,6,6,,,,,,,,,0,0,0,0,0,1,1,1,,,,,,,,,,,,,,,,,,,,,,,,,,,,,,,,,316.7444572650129,317.24441614600073,None,0,316.7444572650129,316.7444572650129,,,,,,,,,,,,,,,,,,,,,,,,,,,,,,,,,,,,,,,,,,,,,,ayelen_c,001,c,2019_Oct_10_1411,Experimento,3.2.3,60.03202059853944,
8,14,14,999,0.5,0:10,3,Green,None,0,0,1,28:50,./completed_changuitos/montage_tdasw_122.95_139.0.jpg,right,0,0,0,0,,,,,0,6,6,6,,,,,,,,,0,0,0,0,0,2,2,2,,,,,,,,,,,,,,,,,,,,,,,,,,,,,,,,,318.74394544700044,319.2437885380059,None,1,318.74394544700044,318.74394544700044,,,,,,,,,,,,,,,,,,,,,,,,,,,,,,,,,,,,,,,,,,,,,,ayelen_c,001,c,2019_Oct_10_1411,Experimento,3.2.3,60.03202059853944,
8,14,14,999,0.5,0:10,3,Yellow,['space'],0,0,1,28:50,./completed_changuitos/montage_tdasw_122.95_139.0.jpg,right,0,0,0,0,,,,,0,6,6,6,,,,,,,,,0,0,0,0,0,3,3,3,,,,,,,,,,,,,,,,,,,,,,,,,,,,,,,,,320.7431956310029,321.2430778810085,None,0,320.7431956310029,320.7431956310029,,,,,,,,,,,,,,,,,,,,,,,,,,,,,,,,,,,,,,,,,,,,,,ayelen_c,001,c,2019_Oct_10_1411,Experimento,3.2.3,60.03202059853944,
8,14,14,999,0.5,0:10,3,Blue,None,0,0,1,28:50,./completed_changuitos/montage_tdasw_122.95_139.0.jpg,right,0,0,0,0,,,,,0,6,6,6,,,,,,,,,0,0,0,0,0,4,4,4,,,,,,,,,,,,,,,,,,,,,,,,,,,,,,,,,322.7425162610016,323.2423612890125,None,1,322.7425162610016,322.7425162610016,,,,,,,,,,,,,,,,,,,,,,,,,,,,,,,,,,,,,,,,,,,,,,ayelen_c,001,c,2019_Oct_10_1411,Experimento,3.2.3,60.03202059853944,
8,14,14,999,0.5,0:10,3,Cyan,None,0,0,1,28:50,./completed_changuitos/montage_tdasw_122.95_139.0.jpg,right,0,0,0,0,,,,,0,6,6,6,,,,,,,,,0,0,0,0,0,5,5,5,,,,,,,,,,,,,,,,,,,,,,,,,,,,,,,,,324.74181840701203,325.24173006300407,None,1,324.74181840701203,324.74181840701203,,,,,,,,,,,,,,,,,,,,,,,,,,,,,,,,,,,,,,,,,,,,,,ayelen_c,001,c,2019_Oct_10_1411,Experimento,3.2.3,60.03202059853944,
8,14,14,999,0.5,0:10,3,Blue,['space'],0,0,1,28:50,./completed_changuitos/montage_tdasw_122.95_139.0.jpg,right,0,0,0,0,,,,,0,6,6,6,,,,,,,,,0,0,0,0,0,6,6,6,,,,,,,,,,,,,,,,,,,,,,,,,,,,,,,,,326.740865728003,327.2407106210012,None,0,326.740865728003,326.740865728003,,,,,,,,,,,,,,,,,,,,,,,,,,,,,,,,,,,,,,,,,,,,,,ayelen_c,001,c,2019_Oct_10_1411,Experimento,3.2.3,60.03202059853944,
8,14,14,999,0.5,0:10,3,Yellow,None,0,0,1,28:50,./completed_changuitos/montage_tdasw_122.95_139.0.jpg,right,0,0,0,0,,,,,0,6,6,6,,,,,,,,,0,0,0,0,0,7,7,7,,,,,,,,,,,,,,,,,,,,,,,,,,,,,,,,,328.7238815821023,None,None,1,328.7238815821023,None,,,,,,,,,,,,,,,,,,,,,,,,,,,,,,,,,,,,,,,,,,,,,,ayelen_c,001,c,2019_Oct_10_1411,Experimento,3.2.3,60.03202059853944,
8,14,14,999,0.5,0:10,3,Cyan,None,0,0,1,28:50,./completed_changuitos/montage_tdasw_122.95_139.0.jpg,right,0,0,0,0,,,,,0,6,6,6,,,,,,,,,0,0,0,0,0,8,8,8,,,,,,,,,,,,,,,,,,,,,,,,,,,,,,,,,328.7238815821023,None,None,1,328.7238815821023,None,,,,,,,,,,,,,,,,,,,,,,,,,,,,,,,,,,,,,,,,,,,,,,ayelen_c,001,c,2019_Oct_10_1411,Experimento,3.2.3,60.03202059853944,
8,14,14,999,0.5,0:10,3,Yellow,['space'],0,0,1,28:50,./completed_changuitos/montage_tdasw_122.95_139.0.jpg,right,0,0,0,0,,,,,0,6,6,6,,,,,,,,,0,0,0,0,0,9,9,9,,,,,,,,,,,,,,,,,,,,,,,,,,,,,,,,,328.7238815821023,None,None,0,328.7238815821023,None,,,,,,,,,,,,,,,,,,,,,,,,,,,,,,,,,,,,,,,,,,,,,,ayelen_c,001,c,2019_Oct_10_1411,Experimento,3.2.3,60.03202059853944,
8,14,14,999,0.5,0:10,3,Magenta,None,0,0,1,28:50,./completed_changuitos/montage_tdasw_122.95_139.0.jpg,right,0,0,0,0,,,,,0,6,6,6,,,,,,,,,0,0,0,0,0,10,10,10,,,,,,,,,,,,,,,,,,,,,,,,,,,,,,,,,328.7238815821023,None,None,1,328.7238815821023,None,,,,,,,,,,,,,,,,,,,,,,,,,,,,,,,,,,,,,,,,,,,,,,ayelen_c,001,c,2019_Oct_10_1411,Experimento,3.2.3,60.03202059853944,
8,14,14,999,0.5,0:10,3,Red,None,0,0,1,28:50,./completed_changuitos/montage_tdasw_122.95_139.0.jpg,right,0,0,0,0,,,,,0,6,6,6,,,,,,,,,0,0,0,0,0,11,11,11,,,,,,,,,,,,,,,,,,,,,,,,,,,,,,,,,328.7405590652022,None,None,1,328.7405590652022,None,,,,,,,,,,,,,,,,,,,,,,,,,,,,,,,,,,,,,,,,,,,,,,ayelen_c,001,c,2019_Oct_10_1411,Experimento,3.2.3,60.03202059853944,
8,14,14,999,0.5,0:10,3,Magenta,['space'],0,0,1,28:50,./completed_changuitos/montage_tdasw_122.95_139.0.jpg,right,0,0,0,0,,,,,0,6,6,6,,,,,,,,,0,0,0,0,0,12,12,12,,,,,,,,,,,,,,,,,,,,,,,,,,,,,,,,,328.7405590652022,None,None,0,328.7405590652022,None,,,,,,,,,,,,,,,,,,,,,,,,,,,,,,,,,,,,,,,,,,,,,,ayelen_c,001,c,2019_Oct_10_1411,Experimento,3.2.3,60.03202059853944,
8,14,14,999,0.5,0:10,3,Red,['space'],0,0,1,28:50,./completed_changuitos/montage_tdasw_122.95_139.0.jpg,right,0,0,0,0,,,,,0,6,6,6,,,,,,,,,0,0,0,0,0,13,13,13,,,,,,,,,,,,,,,,,,,,,,,,,,,,,,,,,328.7405590652022,None,None,0,328.7405590652022,None,,,,,,,,,,,,,,,,,,,,,,,,,,,,,,,,,,,,,,,,,,,,,,ayelen_c,001,c,2019_Oct_10_1411,Experimento,3.2.3,60.03202059853944,
8,14,14,999,0.5,0:10,3,Yellow,None,0,0,1,28:50,./completed_changuitos/montage_tdasw_122.95_139.0.jpg,right,0,0,0,0,,,,,0,6,6,6,,,,,,,,,0,0,0,0,0,14,14,14,,,,,,,,,,,,,,,,,,,,,,,,,,,,,,,,,328.7405590652022,None,None,1,328.7405590652022,None,,,,,,,,,,,,,,,,,,,,,,,,,,,,,,,,,,,,,,,,,,,,,,ayelen_c,001,c,2019_Oct_10_1411,Experimento,3.2.3,60.03202059853944,
8,14,14,999,0.5,0:10,3,Cyan,None,0,0,1,28:50,./completed_changuitos/montage_tdasw_122.95_139.0.jpg,right,0,0,0,0,,,,,0,6,6,6,,,,,,,,,0,0,0,0,0,15,15,15,,,,,,,,,,,,,,,,,,,,,,,,,,,,,,,,,328.7405590652022,None,None,1,328.7405590652022,None,,,,,,,,,,,,,,,,,,,,,,,,,,,,,,,,,,,,,,,,,,,,,,ayelen_c,001,c,2019_Oct_10_1411,Experimento,3.2.3,60.03202059853944,
8,14,14,999,0.5,0:10,3,Green,None,0,0,1,28:50,./completed_changuitos/montage_tdasw_122.95_139.0.jpg,right,0,0,0,0,,,,,0,6,6,6,,,,,,,,,0,0,0,0,0,16,16,16,,,,,,,,,,,,,,,,,,,,,,,,,,,,,,,,,328.7405590652022,None,None,1,328.7405590652022,None,,,,,,,,,,,,,,,,,,,,,,,,,,,,,,,,,,,,,,,,,,,,,,ayelen_c,001,c,2019_Oct_10_1411,Experimento,3.2.3,60.03202059853944,
8,14,14,999,0.5,0:10,3,White,None,0,0,1,28:50,./completed_changuitos/montage_tdasw_122.95_139.0.jpg,right,0,0,0,0,,,,,0,6,6,6,,,,,,,,,0,0,0,0,0,17,17,17,,,,,,,,,,,,,,,,,,,,,,,,,,,,,,,,,328.75723654830216,None,None,1,328.75723654830216,None,,,,,,,,,,,,,,,,,,,,,,,,,,,,,,,,,,,,,,,,,,,,,,ayelen_c,001,c,2019_Oct_10_1411,Experimento,3.2.3,60.03202059853944,
8,14,14,999,0.5,0:10,3,Green,['space'],0,0,1,28:50,./completed_changuitos/montage_tdasw_122.95_139.0.jpg,right,0,0,0,0,,,,,0,6,6,6,,,,,,,,,0,0,0,0,0,18,18,18,,,,,,,,,,,,,,,,,,,,,,,,,,,,,,,,,328.75723654830216,None,None,0,328.75723654830216,None,,,,,,,,,,,,,,,,,,,,,,,,,,,,,,,,,,,,,,,,,,,,,,ayelen_c,001,c,2019_Oct_10_1411,Experimento,3.2.3,60.03202059853944,
8,14,14,999,0.5,0:10,3,Red,None,0,0,1,28:50,./completed_changuitos/montage_tdasw_122.95_139.0.jpg,right,0,0,0,0,,,,,0,6,6,6,,,,,,,,,0,0,0,0,0,19,19,19,,,,,,,,,,,,,,,,,,,,,,,,,,,,,,,,,328.75723654830216,None,None,1,328.75723654830216,None,,,,,,,,,,,,,,,,,,,,,,,,,,,,,,,,,,,,,,,,,,,,,,ayelen_c,001,c,2019_Oct_10_1411,Experimento,3.2.3,60.03202059853944,
8,14,14,999,0.5,0:10,3,Blue,None,0,0,1,28:50,./completed_changuitos/montage_tdasw_122.95_139.0.jpg,right,0,0,0,0,,,,,0,6,6,6,,,,,,,,,0,0,0,0,0,20,20,20,,,,,,,,,,,,,,,,,,,,,,,,,,,,,,,,,328.75723654830216,None,None,1,328.75723654830216,None,,,,,,,,,,,,,,,,,,,,,,,,,,,,,,,,,,,,,,,,,,,,,,ayelen_c,001,c,2019_Oct_10_1411,Experimento,3.2.3,60.03202059853944,
8,14,14,999,0.5,0:10,3,Green,None,0,0,1,28:50,./completed_changuitos/montage_tdasw_122.95_139.0.jpg,right,0,0,0,0,,,,,0,6,6,6,,,,,,,,,0,0,0,0,0,21,21,21,,,,,,,,,,,,,,,,,,,,,,,,,,,,,,,,,328.75723654830216,None,None,1,328.75723654830216,None,,,,,,,,,,,,,,,,,,,,,,,,,,,,,,,,,,,,,,,,,,,,,,ayelen_c,001,c,2019_Oct_10_1411,Experimento,3.2.3,60.03202059853944,
8,14,14,999,0.5,0:10,3,,,0,0,1,28:50,./completed_changuitos/montage_tdasw_122.95_139.0.jpg,right,0,0,0,0,,,,,0,6,6,6,,,,,,,,,0,0,0,0,,,,,,,,,,,,,,,,,,,,,,,,,,,,,,,,,,,,,,,,,,,,328.79408381300163,None,right,1,1.7622858450049534,328.79408381300163,None,328.79408381300163,None,,,,,,,,,,,,,,,,,,,,,,,,,,,,,,,,,,,,ayelen_c,001,c,2019_Oct_10_1411,Experimento,3.2.3,60.03202059853944,
8,14,14,999,0.5,0:10,3,,,0,0,1,28:50,,,0,0,0,0,,,,,0,6,6,6,,,,,,,,,,,,,,,,,,,,,,,,,,,,,,,,,,,,,,,,,,,,,,,,,,,,,,,,,,,,,,,,,,,,,,,,,,,,,,,,,,,,,,,,,,,,,,,,,,,,ayelen_c,001,c,2019_Oct_10_1411,Experimento,3.2.3,60.03202059853944,
8,14,14,999,0.5,0:10,3,,,0,1,0,19:50,./completed_changuitos/montage_bsggb_49.25_43.35.jpg,left,0,0,0,0,,,,,0,7,7,7,,,,,0,0,0,0,,,,,,,,,,,,,,,,,,,,,,330.6936119610036,331.9890828360076,331.9890828360076,340.0033569840016,340.0033569840016,354.01523203300894,left,1,1.4166872990026604,354.01523203300894,None,354.01523203300894,None,354.01523203300894,None,,,,,,,,,,,,,,,,,,,,,,,,,,,,,,,,,,,,,,,,,,,,,,,,,,,,,,,,ayelen_c,001,c,2019_Oct_10_1411,Experimento,3.2.3,60.03202059853944,
8,14,14,999,0.5,0:10,3,,,0,1,0,19:50,,,0,0,0,0,,,,,0,7,7,7,,,,,,,,,,,,,,,,,,,,,,,,,,,,,,,,,,,,,,,,,,,,,,,,,,,,,,,,,,,,,,,,,,,,,,,,,,,,,,,,,,,,,,,,,,,,,,,,,,,,ayelen_c,001,c,2019_Oct_10_1411,Experimento,3.2.3,60.03202059853944,
8,14,14,999,0.5,0:10,3,Magenta,None,0,0,1,20:50,./completed_changuitos/montage_ijjwd_101.65_87.75.jpg,left,0,0,0,0,,,,,0,8,8,8,,,,,,,,,0,0,0,0,0,0,0,0,,,,,,,,,,,,,,,,,,,,,,,,,,,,,355.5846216290083,356.89759924401005,356.89759924401005,None,364.9229883860098,365.428052607007,None,1,364.9229883860098,None,,,,,,,,,,,,,,,,,,,,,,,,,,,,,,,,,,,,,,,,,,,,,,ayelen_c,001,c,2019_Oct_10_1411,Experimento,3.2.3,60.03202059853944,
8,14,14,999,0.5,0:10,3,Blue,['space'],0,0,1,20:50,./completed_changuitos/montage_ijjwd_101.65_87.75.jpg,left,0,0,0,0,,,,,0,8,8,8,,,,,,,,,0,0,0,0,0,1,1,1,,,,,,,,,,,,,,,,,,,,,,,,,,,,,,,,,366.927376231004,367.4273042429995,None,0,366.927376231004,366.927376231004,,,,,,,,,,,,,,,,,,,,,,,,,,,,,,,,,,,,,,,,,,,,,,ayelen_c,001,c,2019_Oct_10_1411,Experimento,3.2.3,60.03202059853944,
8,14,14,999,0.5,0:10,3,Cyan,None,0,0,1,20:50,./completed_changuitos/montage_ijjwd_101.65_87.75.jpg,left,0,0,0,0,,,,,0,8,8,8,,,,,,,,,0,0,0,0,0,2,2,2,,,,,,,,,,,,,,,,,,,,,,,,,,,,,,,,,368.9267163080076,369.42666499500046,None,1,368.9267163080076,368.9267163080076,,,,,,,,,,,,,,,,,,,,,,,,,,,,,,,,,,,,,,,,,,,,,,ayelen_c,001,c,2019_Oct_10_1411,Experimento,3.2.3,60.03202059853944,
8,14,14,999,0.5,0:10,3,Yellow,None,0,0,1,20:50,./completed_changuitos/montage_ijjwd_101.65_87.75.jpg,left,0,0,0,0,,,,,0,8,8,8,,,,,,,,,0,0,0,0,0,3,3,3,,,,,,,,,,,,,,,,,,,,,,,,,,,,,,,,,370.9288261470065,371.4427081670001,None,1,370.9288261470065,370.9288261470065,,,,,,,,,,,,,,,,,,,,,,,,,,,,,,,,,,,,,,,,,,,,,,ayelen_c,001,c,2019_Oct_10_1411,Experimento,3.2.3,60.03202059853944,
8,14,14,999,0.5,0:10,3,Cyan,None,0,0,1,20:50,./completed_changuitos/montage_ijjwd_101.65_87.75.jpg,left,0,0,0,0,,,,,0,8,8,8,,,,,,,,,0,0,0,0,0,4,4,4,,,,,,,,,,,,,,,,,,,,,,,,,,,,,,,,,372.9417102190055,373.44158472500567,None,1,372.9417102190055,372.9417102190055,,,,,,,,,,,,,,,,,,,,,,,,,,,,,,,,,,,,,,,,,,,,,,ayelen_c,001,c,2019_Oct_10_1411,Experimento,3.2.3,60.03202059853944,
8,14,14,999,0.5,0:10,3,Blue,None,0,0,1,20:50,./completed_changuitos/montage_ijjwd_101.65_87.75.jpg,left,0,0,0,0,,,,,0,8,8,8,,,,,,,,,0,0,0,0,0,5,5,5,,,,,,,,,,,,,,,,,,,,,,,,,,,,,,,,,374.9411010490003,375.44085320101294,None,1,374.9411010490003,374.9411010490003,,,,,,,,,,,,,,,,,,,,,,,,,,,,,,,,,,,,,,,,,,,,,,ayelen_c,001,c,2019_Oct_10_1411,Experimento,3.2.3,60.03202059853944,
8,14,14,999,0.5,0:10,3,Cyan,['space'],0,0,1,20:50,./completed_changuitos/montage_ijjwd_101.65_87.75.jpg,left,0,0,0,0,,,,,0,8,8,8,,,,,,,,,0,0,0,0,0,6,6,6,,,,,,,,,,,,,,,,,,,,,,,,,,,,,,,,,376.9406765349995,377.4405532180099,None,0,376.9406765349995,376.9406765349995,,,,,,,,,,,,,,,,,,,,,,,,,,,,,,,,,,,,,,,,,,,,,,ayelen_c,001,c,2019_Oct_10_1411,Experimento,3.2.3,60.03202059853944,
8,14,14,999,0.5,0:10,3,Magenta,None,0,0,1,20:50,./completed_changuitos/montage_ijjwd_101.65_87.75.jpg,left,0,0,0,0,,,,,0,8,8,8,,,,,,,,,0,0,0,0,0,7,7,7,,,,,,,,,,,,,,,,,,,,,,,,,,,,,,,,,378.92339809110706,None,None,1,378.92339809110706,None,,,,,,,,,,,,,,,,,,,,,,,,,,,,,,,,,,,,,,,,,,,,,,ayelen_c,001,c,2019_Oct_10_1411,Experimento,3.2.3,60.03202059853944,
8,14,14,999,0.5,0:10,3,Red,None,0,0,1,20:50,./completed_changuitos/montage_ijjwd_101.65_87.75.jpg,left,0,0,0,0,,,,,0,8,8,8,,,,,,,,,0,0,0,0,0,8,8,8,,,,,,,,,,,,,,,,,,,,,,,,,,,,,,,,,378.92339809110706,None,None,1,378.92339809110706,None,,,,,,,,,,,,,,,,,,,,,,,,,,,,,,,,,,,,,,,,,,,,,,ayelen_c,001,c,2019_Oct_10_1411,Experimento,3.2.3,60.03202059853944,
8,14,14,999,0.5,0:10,3,Magenta,['space'],0,0,1,20:50,./completed_changuitos/montage_ijjwd_101.65_87.75.jpg,left,0,0,0,0,,,,,0,8,8,8,,,,,,,,,0,0,0,0,0,9,9,9,,,,,,,,,,,,,,,,,,,,,,,,,,,,,,,,,378.92339809110706,None,None,0,378.92339809110706,None,,,,,,,,,,,,,,,,,,,,,,,,,,,,,,,,,,,,,,,,,,,,,,ayelen_c,001,c,2019_Oct_10_1411,Experimento,3.2.3,60.03202059853944,
8,14,14,999,0.5,0:10,3,Green,None,0,0,1,20:50,./completed_changuitos/montage_ijjwd_101.65_87.75.jpg,left,0,0,0,0,,,,,0,8,8,8,,,,,,,,,0,0,0,0,0,10,10,10,,,,,,,,,,,,,,,,,,,,,,,,,,,,,,,,,378.92339809110706,None,None,1,378.92339809110706,None,,,,,,,,,,,,,,,,,,,,,,,,,,,,,,,,,,,,,,,,,,,,,,ayelen_c,001,c,2019_Oct_10_1411,Experimento,3.2.3,60.03202059853944,
8,14,14,999,0.5,0:10,3,Yellow,['space'],0,0,1,20:50,./completed_changuitos/montage_ijjwd_101.65_87.75.jpg,left,0,0,0,0,,,,,0,8,8,8,,,,,,,,,0,0,0,0,0,11,11,11,,,,,,,,,,,,,,,,,,,,,,,,,,,,,,,,,378.94007557420696,None,None,0,378.94007557420696,None,,,,,,,,,,,,,,,,,,,,,,,,,,,,,,,,,,,,,,,,,,,,,,ayelen_c,001,c,2019_Oct_10_1411,Experimento,3.2.3,60.03202059853944,
8,14,14,999,0.5,0:10,3,Blue,None,0,0,1,20:50,./completed_changuitos/montage_ijjwd_101.65_87.75.jpg,left,0,0,0,0,,,,,0,8,8,8,,,,,,,,,0,0,0,0,0,12,12,12,,,,,,,,,,,,,,,,,,,,,,,,,,,,,,,,,378.94007557420696,None,None,1,378.94007557420696,None,,,,,,,,,,,,,,,,,,,,,,,,,,,,,,,,,,,,,,,,,,,,,,ayelen_c,001,c,2019_Oct_10_1411,Experimento,3.2.3,60.03202059853944,
8,14,14,999,0.5,0:10,3,Cyan,None,0,0,1,20:50,./completed_changuitos/montage_ijjwd_101.65_87.75.jpg,left,0,0,0,0,,,,,0,8,8,8,,,,,,,,,0,0,0,0,0,13,13,13,,,,,,,,,,,,,,,,,,,,,,,,,,,,,,,,,378.94007557420696,None,None,1,378.94007557420696,None,,,,,,,,,,,,,,,,,,,,,,,,,,,,,,,,,,,,,,,,,,,,,,ayelen_c,001,c,2019_Oct_10_1411,Experimento,3.2.3,60.03202059853944,
8,14,14,999,0.5,0:10,3,Blue,['space'],0,0,1,20:50,./completed_changuitos/montage_ijjwd_101.65_87.75.jpg,left,0,0,0,0,,,,,0,8,8,8,,,,,,,,,0,0,0,0,0,14,14,14,,,,,,,,,,,,,,,,,,,,,,,,,,,,,,,,,378.94007557420696,None,None,0,378.94007557420696,None,,,,,,,,,,,,,,,,,,,,,,,,,,,,,,,,,,,,,,,,,,,,,,ayelen_c,001,c,2019_Oct_10_1411,Experimento,3.2.3,60.03202059853944,
8,14,14,999,0.5,0:10,3,Yellow,None,0,0,1,20:50,./completed_changuitos/montage_ijjwd_101.65_87.75.jpg,left,0,0,0,0,,,,,0,8,8,8,,,,,,,,,0,0,0,0,0,15,15,15,,,,,,,,,,,,,,,,,,,,,,,,,,,,,,,,,378.94007557420696,None,None,1,378.94007557420696,None,,,,,,,,,,,,,,,,,,,,,,,,,,,,,,,,,,,,,,,,,,,,,,ayelen_c,001,c,2019_Oct_10_1411,Experimento,3.2.3,60.03202059853944,
8,14,14,999,0.5,0:10,3,Cyan,None,0,0,1,20:50,./completed_changuitos/montage_ijjwd_101.65_87.75.jpg,left,0,0,0,0,,,,,0,8,8,8,,,,,,,,,0,0,0,0,0,16,16,16,,,,,,,,,,,,,,,,,,,,,,,,,,,,,,,,,378.94007557420696,None,None,1,378.94007557420696,None,,,,,,,,,,,,,,,,,,,,,,,,,,,,,,,,,,,,,,,,,,,,,,ayelen_c,001,c,2019_Oct_10_1411,Experimento,3.2.3,60.03202059853944,
8,14,14,999,0.5,0:10,3,Yellow,['space'],0,0,1,20:50,./completed_changuitos/montage_ijjwd_101.65_87.75.jpg,left,0,0,0,0,,,,,0,8,8,8,,,,,,,,,0,0,0,0,0,17,17,17,,,,,,,,,,,,,,,,,,,,,,,,,,,,,,,,,378.9567530573069,None,None,0,378.9567530573069,None,,,,,,,,,,,,,,,,,,,,,,,,,,,,,,,,,,,,,,,,,,,,,,ayelen_c,001,c,2019_Oct_10_1411,Experimento,3.2.3,60.03202059853944,
8,14,14,999,0.5,0:10,3,Magenta,None,0,0,1,20:50,./completed_changuitos/montage_ijjwd_101.65_87.75.jpg,left,0,0,0,0,,,,,0,8,8,8,,,,,,,,,0,0,0,0,0,18,18,18,,,,,,,,,,,,,,,,,,,,,,,,,,,,,,,,,378.9567530573069,None,None,1,378.9567530573069,None,,,,,,,,,,,,,,,,,,,,,,,,,,,,,,,,,,,,,,,,,,,,,,ayelen_c,001,c,2019_Oct_10_1411,Experimento,3.2.3,60.03202059853944,
8,14,14,999,0.5,0:10,3,Red,None,0,0,1,20:50,./completed_changuitos/montage_ijjwd_101.65_87.75.jpg,left,0,0,0,0,,,,,0,8,8,8,,,,,,,,,0,0,0,0,0,19,19,19,,,,,,,,,,,,,,,,,,,,,,,,,,,,,,,,,378.9567530573069,None,None,1,378.9567530573069,None,,,,,,,,,,,,,,,,,,,,,,,,,,,,,,,,,,,,,,,,,,,,,,ayelen_c,001,c,2019_Oct_10_1411,Experimento,3.2.3,60.03202059853944,
8,14,14,999,0.5,0:10,3,Magenta,['space'],0,0,1,20:50,./completed_changuitos/montage_ijjwd_101.65_87.75.jpg,left,0,0,0,0,,,,,0,8,8,8,,,,,,,,,0,0,0,0,0,20,20,20,,,,,,,,,,,,,,,,,,,,,,,,,,,,,,,,,378.9567530573069,None,None,0,378.9567530573069,None,,,,,,,,,,,,,,,,,,,,,,,,,,,,,,,,,,,,,,,,,,,,,,ayelen_c,001,c,2019_Oct_10_1411,Experimento,3.2.3,60.03202059853944,
8,14,14,999,0.5,0:10,3,Red,['space'],0,0,1,20:50,./completed_changuitos/montage_ijjwd_101.65_87.75.jpg,left,0,0,0,0,,,,,0,8,8,8,,,,,,,,,0,0,0,0,0,21,21,21,,,,,,,,,,,,,,,,,,,,,,,,,,,,,,,,,378.9567530573069,None,None,0,378.9567530573069,None,,,,,,,,,,,,,,,,,,,,,,,,,,,,,,,,,,,,,,,,,,,,,,ayelen_c,001,c,2019_Oct_10_1411,Experimento,3.2.3,60.03202059853944,
8,14,14,999,0.5,0:10,3,Yellow,None,0,0,1,20:50,./completed_changuitos/montage_ijjwd_101.65_87.75.jpg,left,0,0,0,0,,,,,0,8,8,8,,,,,,,,,0,0,0,0,0,22,22,22,,,,,,,,,,,,,,,,,,,,,,,,,,,,,,,,,378.9567530573069,None,None,1,378.9567530573069,None,,,,,,,,,,,,,,,,,,,,,,,,,,,,,,,,,,,,,,,,,,,,,,ayelen_c,001,c,2019_Oct_10_1411,Experimento,3.2.3,60.03202059853944,
8,14,14,999,0.5,0:10,3,Cyan,None,0,0,1,20:50,./completed_changuitos/montage_ijjwd_101.65_87.75.jpg,left,0,0,0,0,,,,,0,8,8,8,,,,,,,,,0,0,0,0,0,23,23,23,,,,,,,,,,,,,,,,,,,,,,,,,,,,,,,,,378.9567530573069,None,None,1,378.9567530573069,None,,,,,,,,,,,,,,,,,,,,,,,,,,,,,,,,,,,,,,,,,,,,,,ayelen_c,001,c,2019_Oct_10_1411,Experimento,3.2.3,60.03202059853944,
8,14,14,999,0.5,0:10,3,Green,None,0,0,1,20:50,./completed_changuitos/montage_ijjwd_101.65_87.75.jpg,left,0,0,0,0,,,,,0,8,8,8,,,,,,,,,0,0,0,0,0,24,24,24,,,,,,,,,,,,,,,,,,,,,,,,,,,,,,,,,378.9567530573069,None,None,1,378.9567530573069,None,,,,,,,,,,,,,,,,,,,,,,,,,,,,,,,,,,,,,,,,,,,,,,ayelen_c,001,c,2019_Oct_10_1411,Experimento,3.2.3,60.03202059853944,
8,14,14,999,0.5,0:10,3,White,None,0,0,1,20:50,./completed_changuitos/montage_ijjwd_101.65_87.75.jpg,left,0,0,0,0,,,,,0,8,8,8,,,,,,,,,0,0,0,0,0,25,25,25,,,,,,,,,,,,,,,,,,,,,,,,,,,,,,,,,378.9567530573069,None,None,1,378.9567530573069,None,,,,,,,,,,,,,,,,,,,,,,,,,,,,,,,,,,,,,,,,,,,,,,ayelen_c,001,c,2019_Oct_10_1411,Experimento,3.2.3,60.03202059853944,
8,14,14,999,0.5,0:10,3,Green,['space'],0,0,1,20:50,./completed_changuitos/montage_ijjwd_101.65_87.75.jpg,left,0,0,0,0,,,,,0,8,8,8,,,,,,,,,0,0,0,0,0,26,26,26,,,,,,,,,,,,,,,,,,,,,,,,,,,,,,,,,378.9567530573069,None,None,0,378.9567530573069,None,,,,,,,,,,,,,,,,,,,,,,,,,,,,,,,,,,,,,,,,,,,,,,ayelen_c,001,c,2019_Oct_10_1411,Experimento,3.2.3,60.03202059853944,
8,14,14,999,0.5,0:10,3,Red,None,0,0,1,20:50,./completed_changuitos/montage_ijjwd_101.65_87.75.jpg,left,0,0,0,0,,,,,0,8,8,8,,,,,,,,,0,0,0,0,0,27,27,27,,,,,,,,,,,,,,,,,,,,,,,,,,,,,,,,,378.9567530573069,None,None,1,378.9567530573069,None,,,,,,,,,,,,,,,,,,,,,,,,,,,,,,,,,,,,,,,,,,,,,,ayelen_c,001,c,2019_Oct_10_1411,Experimento,3.2.3,60.03202059853944,
8,14,14,999,0.5,0:10,3,Blue,None,0,0,1,20:50,./completed_changuitos/montage_ijjwd_101.65_87.75.jpg,left,0,0,0,0,,,,,0,8,8,8,,,,,,,,,0,0,0,0,0,28,28,28,,,,,,,,,,,,,,,,,,,,,,,,,,,,,,,,,378.9567530573069,None,None,1,378.9567530573069,None,,,,,,,,,,,,,,,,,,,,,,,,,,,,,,,,,,,,,,,,,,,,,,ayelen_c,001,c,2019_Oct_10_1411,Experimento,3.2.3,60.03202059853944,
8,14,14,999,0.5,0:10,3,Green,None,0,0,1,20:50,./completed_changuitos/montage_ijjwd_101.65_87.75.jpg,left,0,0,0,0,,,,,0,8,8,8,,,,,,,,,0,0,0,0,0,29,29,29,,,,,,,,,,,,,,,,,,,,,,,,,,,,,,,,,378.9734305404068,None,None,1,378.9734305404068,None,,,,,,,,,,,,,,,,,,,,,,,,,,,,,,,,,,,,,,,,,,,,,,ayelen_c,001,c,2019_Oct_10_1411,Experimento,3.2.3,60.03202059853944,
8,14,14,999,0.5,0:10,3,,,0,0,1,20:50,./completed_changuitos/montage_ijjwd_101.65_87.75.jpg,left,0,0,0,0,,,,,0,8,8,8,,,,,,,,,0,0,0,0,,,,,,,,,,,,,,,,,,,,,,,,,,,,,,,,,,,,,,,,,,,,378.9984878210089,None,right,0,1.7076233550033066,378.9984878210089,None,378.9984878210089,None,,,,,,,,,,,,,,,,,,,,,,,,,,,,,,,,,,,,ayelen_c,001,c,2019_Oct_10_1411,Experimento,3.2.3,60.03202059853944,
8,14,14,999,0.5,0:10,3,,,0,0,1,20:50,,,0,0,0,0,,,,,0,8,8,8,,,,,,,,,,,,,,,,,,,,,,,,,,,,,,,,,,,,,,,,,,,,,,,,,,,,,,,,,,,,,,,,,,,,,,,,,,,,,,,,,,,,,,,,,,,,,,,,,,,,ayelen_c,001,c,2019_Oct_10_1411,Experimento,3.2.3,60.03202059853944,
8,14,14,999,0.5,0:10,3,Yellow,None,0,0,1,15:50,./completed_changuitos/montage_aiqmv_35.3_39.59.jpg,right,0,0,0,0,,,,,0,9,9,9,,,,,,,,,0,0,0,0,0,0,0,0,,,,,,,,,,,,,,,,,,,,,,,,,,,,,380.82708500100125,381.9556742020068,381.9556742020068,None,389.997771128008,390.50259847501,None,1,389.997771128008,None,,,,,,,,,,,,,,,,,,,,,,,,,,,,,,,,,,,,,,,,,,,,,,ayelen_c,001,c,2019_Oct_10_1411,Experimento,3.2.3,60.03202059853944,
8,14,14,999,0.5,0:10,3,White,['space'],0,0,1,15:50,./completed_changuitos/montage_aiqmv_35.3_39.59.jpg,right,0,0,0,0,,,,,0,9,9,9,,,,,,,,,0,0,0,0,0,1,1,1,,,,,,,,,,,,,,,,,,,,,,,,,,,,,,,,,392.002126271007,392.50169347900373,None,0,392.002126271007,392.002126271007,,,,,,,,,,,,,,,,,,,,,,,,,,,,,,,,,,,,,,,,,,,,,,ayelen_c,001,c,2019_Oct_10_1411,Experimento,3.2.3,60.03202059853944,
8,14,14,999,0.5,0:10,3,Magenta,None,0,0,1,15:50,./completed_changuitos/montage_aiqmv_35.3_39.59.jpg,right,0,0,0,0,,,,,0,9,9,9,,,,,,,,,0,0,0,0,0,2,2,2,,,,,,,,,,,,,,,,,,,,,,,,,,,,,,,,,394.0015282180102,394.5013243140129,None,1,394.0015282180102,394.0015282180102,,,,,,,,,,,,,,,,,,,,,,,,,,,,,,,,,,,,,,,,,,,,,,ayelen_c,001,c,2019_Oct_10_1411,Experimento,3.2.3,60.03202059853944,
8,14,14,999,0.5,0:10,3,Cyan,None,0,0,1,15:50,./completed_changuitos/montage_aiqmv_35.3_39.59.jpg,right,0,0,0,0,,,,,0,9,9,9,,,,,,,,,0,0,0,0,0,3,3,3,,,,,,,,,,,,,,,,,,,,,,,,,,,,,,,,,396.000743445009,396.50068806701165,None,1,396.000743445009,396.000743445009,,,,,,,,,,,,,,,,,,,,,,,,,,,,,,,,,,,,,,,,,,,,,,ayelen_c,001,c,2019_Oct_10_1411,Experimento,3.2.3,60.03202059853944,
8,14,14,999,0.5,0:10,3,Blue,None,0,0,1,15:50,./completed_changuitos/montage_aiqmv_35.3_39.59.jpg,right,0,0,0,0,,,,,0,9,9,9,,,,,,,,,0,0,0,0,0,4,4,4,,,,,,,,,,,,,,,,,,,,,,,,,,,,,,,,,397.9997993540019,398.50002944801236,None,1,397.9997993540019,397.9997993540019,,,,,,,,,,,,,,,,,,,,,,,,,,,,,,,,,,,,,,,,,,,,,,ayelen_c,001,c,2019_Oct_10_1411,Experimento,3.2.3,60.03202059853944,
8,14,14,999,0.5,0:10,3,Magenta,None,0,0,1,15:50,./completed_changuitos/montage_aiqmv_35.3_39.59.jpg,right,0,0,0,0,,,,,0,9,9,9,,,,,,,,,0,0,0,0,0,5,5,5,,,,,,,,,,,,,,,,,,,,,,,,,,,,,,,,,399.99919691499963,400.4993311880098,None,1,399.99919691499963,399.99919691499963,,,,,,,,,,,,,,,,,,,,,,,,,,,,,,,,,,,,,,,,,,,,,,ayelen_c,001,c,2019_Oct_10_1411,Experimento,3.2.3,60.03202059853944,
8,14,14,999,0.5,0:10,3,Blue,['space'],0,0,1,15:50,./completed_changuitos/montage_aiqmv_35.3_39.59.jpg,right,0,0,0,0,,,,,0,9,9,9,,,,,,,,,0,0,0,0,0,6,6,6,,,,,,,,,,,,,,,,,,,,,,,,,,,,,,,,,401.9987688570109,402.49862819199916,None,0,401.9987688570109,401.9987688570109,,,,,,,,,,,,,,,,,,,,,,,,,,,,,,,,,,,,,,,,,,,,,,ayelen_c,001,c,2019_Oct_10_1411,Experimento,3.2.3,60.03202059853944,
8,14,14,999,0.5,0:10,3,Cyan,None,0,0,1,15:50,./completed_changuitos/montage_aiqmv_35.3_39.59.jpg,right,0,0,0,0,,,,,0,9,9,9,,,,,,,,,0,0,0,0,0,7,7,7,,,,,,,,,,,,,,,,,,,,,,,,,,,,,,,,,403.98147690910116,None,None,1,403.98147690910116,None,,,,,,,,,,,,,,,,,,,,,,,,,,,,,,,,,,,,,,,,,,,,,,ayelen_c,001,c,2019_Oct_10_1411,Experimento,3.2.3,60.03202059853944,
8,14,14,999,0.5,0:10,3,Yellow,None,0,0,1,15:50,./completed_changuitos/montage_aiqmv_35.3_39.59.jpg,right,0,0,0,0,,,,,0,9,9,9,,,,,,,,,0,0,0,0,0,8,8,8,,,,,,,,,,,,,,,,,,,,,,,,,,,,,,,,,403.98147690910116,None,None,1,403.98147690910116,None,,,,,,,,,,,,,,,,,,,,,,,,,,,,,,,,,,,,,,,,,,,,,,ayelen_c,001,c,2019_Oct_10_1411,Experimento,3.2.3,60.03202059853944,
8,14,14,999,0.5,0:10,3,Cyan,None,0,0,1,15:50,./completed_changuitos/montage_aiqmv_35.3_39.59.jpg,right,0,0,0,0,,,,,0,9,9,9,,,,,,,,,0,0,0,0,0,9,9,9,,,,,,,,,,,,,,,,,,,,,,,,,,,,,,,,,403.98147690910116,None,None,1,403.98147690910116,None,,,,,,,,,,,,,,,,,,,,,,,,,,,,,,,,,,,,,,,,,,,,,,ayelen_c,001,c,2019_Oct_10_1411,Experimento,3.2.3,60.03202059853944,
8,14,14,999,0.5,0:10,3,Blue,None,0,0,1,15:50,./completed_changuitos/montage_aiqmv_35.3_39.59.jpg,right,0,0,0,0,,,,,0,9,9,9,,,,,,,,,0,0,0,0,0,10,10,10,,,,,,,,,,,,,,,,,,,,,,,,,,,,,,,,,403.98147690910116,None,None,1,403.98147690910116,None,,,,,,,,,,,,,,,,,,,,,,,,,,,,,,,,,,,,,,,,,,,,,,ayelen_c,001,c,2019_Oct_10_1411,Experimento,3.2.3,60.03202059853944,
8,14,14,999,0.5,0:10,3,Cyan,['space'],0,0,1,15:50,./completed_changuitos/montage_aiqmv_35.3_39.59.jpg,right,0,0,0,0,,,,,0,9,9,9,,,,,,,,,0,0,0,0,0,11,11,11,,,,,,,,,,,,,,,,,,,,,,,,,,,,,,,,,403.98147690910116,None,None,0,403.98147690910116,None,,,,,,,,,,,,,,,,,,,,,,,,,,,,,,,,,,,,,,,,,,,,,,ayelen_c,001,c,2019_Oct_10_1411,Experimento,3.2.3,60.03202059853944,
8,14,14,999,0.5,0:10,3,Magenta,None,0,0,1,15:50,./completed_changuitos/montage_aiqmv_35.3_39.59.jpg,right,0,0,0,0,,,,,0,9,9,9,,,,,,,,,0,0,0,0,0,12,12,12,,,,,,,,,,,,,,,,,,,,,,,,,,,,,,,,,403.98147690910116,None,None,1,403.98147690910116,None,,,,,,,,,,,,,,,,,,,,,,,,,,,,,,,,,,,,,,,,,,,,,,ayelen_c,001,c,2019_Oct_10_1411,Experimento,3.2.3,60.03202059853944,
8,14,14,999,0.5,0:10,3,Red,None,0,0,1,15:50,./completed_changuitos/montage_aiqmv_35.3_39.59.jpg,right,0,0,0,0,,,,,0,9,9,9,,,,,,,,,0,0,0,0,0,13,13,13,,,,,,,,,,,,,,,,,,,,,,,,,,,,,,,,,403.99815439220106,None,None,1,403.99815439220106,None,,,,,,,,,,,,,,,,,,,,,,,,,,,,,,,,,,,,,,,,,,,,,,ayelen_c,001,c,2019_Oct_10_1411,Experimento,3.2.3,60.03202059853944,
8,14,14,999,0.5,0:10,3,Magenta,['space'],0,0,1,15:50,./completed_changuitos/montage_aiqmv_35.3_39.59.jpg,right,0,0,0,0,,,,,0,9,9,9,,,,,,,,,0,0,0,0,0,14,14,14,,,,,,,,,,,,,,,,,,,,,,,,,,,,,,,,,403.99815439220106,None,None,0,403.99815439220106,None,,,,,,,,,,,,,,,,,,,,,,,,,,,,,,,,,,,,,,,,,,,,,,ayelen_c,001,c,2019_Oct_10_1411,Experimento,3.2.3,60.03202059853944,
8,14,14,999,0.5,0:10,3,Green,None,0,0,1,15:50,./completed_changuitos/montage_aiqmv_35.3_39.59.jpg,right,0,0,0,0,,,,,0,9,9,9,,,,,,,,,0,0,0,0,0,15,15,15,,,,,,,,,,,,,,,,,,,,,,,,,,,,,,,,,403.99815439220106,None,None,1,403.99815439220106,None,,,,,,,,,,,,,,,,,,,,,,,,,,,,,,,,,,,,,,,,,,,,,,ayelen_c,001,c,2019_Oct_10_1411,Experimento,3.2.3,60.03202059853944,
8,14,14,999,0.5,0:10,3,Yellow,['space'],0,0,1,15:50,./completed_changuitos/montage_aiqmv_35.3_39.59.jpg,right,0,0,0,0,,,,,0,9,9,9,,,,,,,,,0,0,0,0,0,16,16,16,,,,,,,,,,,,,,,,,,,,,,,,,,,,,,,,,403.99815439220106,None,None,0,403.99815439220106,None,,,,,,,,,,,,,,,,,,,,,,,,,,,,,,,,,,,,,,,,,,,,,,ayelen_c,001,c,2019_Oct_10_1411,Experimento,3.2.3,60.03202059853944,
8,14,14,999,0.5,0:10,3,Blue,None,0,0,1,15:50,./completed_changuitos/montage_aiqmv_35.3_39.59.jpg,right,0,0,0,0,,,,,0,9,9,9,,,,,,,,,0,0,0,0,0,17,17,17,,,,,,,,,,,,,,,,,,,,,,,,,,,,,,,,,403.99815439220106,None,None,1,403.99815439220106,None,,,,,,,,,,,,,,,,,,,,,,,,,,,,,,,,,,,,,,,,,,,,,,ayelen_c,001,c,2019_Oct_10_1411,Experimento,3.2.3,60.03202059853944,
8,14,14,999,0.5,0:10,3,Cyan,None,0,0,1,15:50,./completed_changuitos/montage_aiqmv_35.3_39.59.jpg,right,0,0,0,0,,,,,0,9,9,9,,,,,,,,,0,0,0,0,0,18,18,18,,,,,,,,,,,,,,,,,,,,,,,,,,,,,,,,,403.99815439220106,None,None,1,403.99815439220106,None,,,,,,,,,,,,,,,,,,,,,,,,,,,,,,,,,,,,,,,,,,,,,,ayelen_c,001,c,2019_Oct_10_1411,Experimento,3.2.3,60.03202059853944,
8,14,14,999,0.5,0:10,3,Blue,['space'],0,0,1,15:50,./completed_changuitos/montage_aiqmv_35.3_39.59.jpg,right,0,0,0,0,,,,,0,9,9,9,,,,,,,,,0,0,0,0,0,19,19,19,,,,,,,,,,,,,,,,,,,,,,,,,,,,,,,,,403.99815439220106,None,None,0,403.99815439220106,None,,,,,,,,,,,,,,,,,,,,,,,,,,,,,,,,,,,,,,,,,,,,,,ayelen_c,001,c,2019_Oct_10_1411,Experimento,3.2.3,60.03202059853944,
8,14,14,999,0.5,0:10,3,Yellow,None,0,0,1,15:50,./completed_changuitos/montage_aiqmv_35.3_39.59.jpg,right,0,0,0,0,,,,,0,9,9,9,,,,,,,,,0,0,0,0,0,20,20,20,,,,,,,,,,,,,,,,,,,,,,,,,,,,,,,,,403.99815439220106,None,None,1,403.99815439220106,None,,,,,,,,,,,,,,,,,,,,,,,,,,,,,,,,,,,,,,,,,,,,,,ayelen_c,001,c,2019_Oct_10_1411,Experimento,3.2.3,60.03202059853944,
8,14,14,999,0.5,0:10,3,Cyan,None,0,0,1,15:50,./completed_changuitos/montage_aiqmv_35.3_39.59.jpg,right,0,0,0,0,,,,,0,9,9,9,,,,,,,,,0,0,0,0,0,21,21,21,,,,,,,,,,,,,,,,,,,,,,,,,,,,,,,,,403.99815439220106,None,None,1,403.99815439220106,None,,,,,,,,,,,,,,,,,,,,,,,,,,,,,,,,,,,,,,,,,,,,,,ayelen_c,001,c,2019_Oct_10_1411,Experimento,3.2.3,60.03202059853944,
8,14,14,999,0.5,0:10,3,Yellow,['space'],0,0,1,15:50,./completed_changuitos/montage_aiqmv_35.3_39.59.jpg,right,0,0,0,0,,,,,0,9,9,9,,,,,,,,,0,0,0,0,0,22,22,22,,,,,,,,,,,,,,,,,,,,,,,,,,,,,,,,,403.99815439220106,None,None,0,403.99815439220106,None,,,,,,,,,,,,,,,,,,,,,,,,,,,,,,,,,,,,,,,,,,,,,,ayelen_c,001,c,2019_Oct_10_1411,Experimento,3.2.3,60.03202059853944,
8,14,14,999,0.5,0:10,3,Magenta,None,0,0,1,15:50,./completed_changuitos/montage_aiqmv_35.3_39.59.jpg,right,0,0,0,0,,,,,0,9,9,9,,,,,,,,,0,0,0,0,0,23,23,23,,,,,,,,,,,,,,,,,,,,,,,,,,,,,,,,,403.99815439220106,None,None,1,403.99815439220106,None,,,,,,,,,,,,,,,,,,,,,,,,,,,,,,,,,,,,,,,,,,,,,,ayelen_c,001,c,2019_Oct_10_1411,Experimento,3.2.3,60.03202059853944,
8,14,14,999,0.5,0:10,3,Red,None,0,0,1,15:50,./completed_changuitos/montage_aiqmv_35.3_39.59.jpg,right,0,0,0,0,,,,,0,9,9,9,,,,,,,,,0,0,0,0,0,24,24,24,,,,,,,,,,,,,,,,,,,,,,,,,,,,,,,,,403.99815439220106,None,None,1,403.99815439220106,None,,,,,,,,,,,,,,,,,,,,,,,,,,,,,,,,,,,,,,,,,,,,,,ayelen_c,001,c,2019_Oct_10_1411,Experimento,3.2.3,60.03202059853944,
8,14,14,999,0.5,0:10,3,Magenta,['space'],0,0,1,15:50,./completed_changuitos/montage_aiqmv_35.3_39.59.jpg,right,0,0,0,0,,,,,0,9,9,9,,,,,,,,,0,0,0,0,0,25,25,25,,,,,,,,,,,,,,,,,,,,,,,,,,,,,,,,,404.014831875301,None,None,0,404.014831875301,None,,,,,,,,,,,,,,,,,,,,,,,,,,,,,,,,,,,,,,,,,,,,,,ayelen_c,001,c,2019_Oct_10_1411,Experimento,3.2.3,60.03202059853944,
8,14,14,999,0.5,0:10,3,Red,['space'],0,0,1,15:50,./completed_changuitos/montage_aiqmv_35.3_39.59.jpg,right,0,0,0,0,,,,,0,9,9,9,,,,,,,,,0,0,0,0,0,26,26,26,,,,,,,,,,,,,,,,,,,,,,,,,,,,,,,,,404.014831875301,None,None,0,404.014831875301,None,,,,,,,,,,,,,,,,,,,,,,,,,,,,,,,,,,,,,,,,,,,,,,ayelen_c,001,c,2019_Oct_10_1411,Experimento,3.2.3,60.03202059853944,
8,14,14,999,0.5,0:10,3,Yellow,None,0,0,1,15:50,./completed_changuitos/montage_aiqmv_35.3_39.59.jpg,right,0,0,0,0,,,,,0,9,9,9,,,,,,,,,0,0,0,0,0,27,27,27,,,,,,,,,,,,,,,,,,,,,,,,,,,,,,,,,404.014831875301,None,None,1,404.014831875301,None,,,,,,,,,,,,,,,,,,,,,,,,,,,,,,,,,,,,,,,,,,,,,,ayelen_c,001,c,2019_Oct_10_1411,Experimento,3.2.3,60.03202059853944,
8,14,14,999,0.5,0:10,3,Cyan,None,0,0,1,15:50,./completed_changuitos/montage_aiqmv_35.3_39.59.jpg,right,0,0,0,0,,,,,0,9,9,9,,,,,,,,,0,0,0,0,0,28,28,28,,,,,,,,,,,,,,,,,,,,,,,,,,,,,,,,,404.014831875301,None,None,1,404.014831875301,None,,,,,,,,,,,,,,,,,,,,,,,,,,,,,,,,,,,,,,,,,,,,,,ayelen_c,001,c,2019_Oct_10_1411,Experimento,3.2.3,60.03202059853944,
8,14,14,999,0.5,0:10,3,Green,None,0,0,1,15:50,./completed_changuitos/montage_aiqmv_35.3_39.59.jpg,right,0,0,0,0,,,,,0,9,9,9,,,,,,,,,0,0,0,0,0,29,29,29,,,,,,,,,,,,,,,,,,,,,,,,,,,,,,,,,404.014831875301,None,None,1,404.014831875301,None,,,,,,,,,,,,,,,,,,,,,,,,,,,,,,,,,,,,,,,,,,,,,,ayelen_c,001,c,2019_Oct_10_1411,Experimento,3.2.3,60.03202059853944,
8,14,14,999,0.5,0:10,3,White,None,0,0,1,15:50,./completed_changuitos/montage_aiqmv_35.3_39.59.jpg,right,0,0,0,0,,,,,0,9,9,9,,,,,,,,,0,0,0,0,0,30,30,30,,,,,,,,,,,,,,,,,,,,,,,,,,,,,,,,,404.014831875301,None,None,1,404.014831875301,None,,,,,,,,,,,,,,,,,,,,,,,,,,,,,,,,,,,,,,,,,,,,,,ayelen_c,001,c,2019_Oct_10_1411,Experimento,3.2.3,60.03202059853944,
8,14,14,999,0.5,0:10,3,Green,['space'],0,0,1,15:50,./completed_changuitos/montage_aiqmv_35.3_39.59.jpg,right,0,0,0,0,,,,,0,9,9,9,,,,,,,,,0,0,0,0,0,31,31,31,,,,,,,,,,,,,,,,,,,,,,,,,,,,,,,,,404.014831875301,None,None,0,404.014831875301,None,,,,,,,,,,,,,,,,,,,,,,,,,,,,,,,,,,,,,,,,,,,,,,ayelen_c,001,c,2019_Oct_10_1411,Experimento,3.2.3,60.03202059853944,
8,14,14,999,0.5,0:10,3,Red,None,0,0,1,15:50,./completed_changuitos/montage_aiqmv_35.3_39.59.jpg,right,0,0,0,0,,,,,0,9,9,9,,,,,,,,,0,0,0,0,0,32,32,32,,,,,,,,,,,,,,,,,,,,,,,,,,,,,,,,,404.014831875301,None,None,1,404.014831875301,None,,,,,,,,,,,,,,,,,,,,,,,,,,,,,,,,,,,,,,,,,,,,,,ayelen_c,001,c,2019_Oct_10_1411,Experimento,3.2.3,60.03202059853944,
8,14,14,999,0.5,0:10,3,Blue,None,0,0,1,15:50,./completed_changuitos/montage_aiqmv_35.3_39.59.jpg,right,0,0,0,0,,,,,0,9,9,9,,,,,,,,,0,0,0,0,0,33,33,33,,,,,,,,,,,,,,,,,,,,,,,,,,,,,,,,,404.014831875301,None,None,1,404.014831875301,None,,,,,,,,,,,,,,,,,,,,,,,,,,,,,,,,,,,,,,,,,,,,,,ayelen_c,001,c,2019_Oct_10_1411,Experimento,3.2.3,60.03202059853944,
8,14,14,999,0.5,0:10,3,Green,None,0,0,1,15:50,./completed_changuitos/montage_aiqmv_35.3_39.59.jpg,right,0,0,0,0,,,,,0,9,9,9,,,,,,,,,0,0,0,0,0,34,34,34,,,,,,,,,,,,,,,,,,,,,,,,,,,,,,,,,404.014831875301,None,None,1,404.014831875301,None,,,,,,,,,,,,,,,,,,,,,,,,,,,,,,,,,,,,,,,,,,,,,,ayelen_c,001,c,2019_Oct_10_1411,Experimento,3.2.3,60.03202059853944,
8,14,14,999,0.5,0:10,3,,,0,0,1,15:50,./completed_changuitos/montage_aiqmv_35.3_39.59.jpg,right,0,0,0,0,,,,,0,9,9,9,,,,,,,,,0,0,0,0,,,,,,,,,,,,,,,,,,,,,,,,,,,,,,,,,,,,,,,,,,,,404.0523834350024,None,right,1,1.4951142759964569,404.0523834350024,None,404.0523834350024,None,,,,,,,,,,,,,,,,,,,,,,,,,,,,,,,,,,,,ayelen_c,001,c,2019_Oct_10_1411,Experimento,3.2.3,60.03202059853944,
8,14,14,999,0.5,0:10,3,,,0,0,1,15:50,,,0,0,0,0,,,,,0,9,9,9,,,,,,,,,,,,,,,,,,,,,,,,,,,,,,,,,,,,,,,,,,,,,,,,,,,,,,,,,,,,,,,,,,,,,,,,,,,,,,,,,,,,,,,,,,,,,,,,,,,,ayelen_c,001,c,2019_Oct_10_1411,Experimento,3.2.3,60.03202059853944,
8,14,14,999,0.5,0:10,3,,,0,1,0,25:50,./completed_changuitos/montage_suwjp_90.95_104.65.jpg,right,0,0,0,0,,,,,0,10,10,10,,,,,0,0,0,0,,,,,,,,,,,,,,,,,,,,,,405.6872178820049,406.64726689200324,406.64726689200324,414.6611741680099,414.6611741680099,428.67263281501073,left,0,1.2838060850044712,428.67263281501073,None,428.67263281501073,None,428.67263281501073,None,,,,,,,,,,,,,,,,,,,,,,,,,,,,,,,,,,,,,,,,,,,,,,,,,,,,,,,,ayelen_c,001,c,2019_Oct_10_1411,Experimento,3.2.3,60.03202059853944,
8,14,14,999,0.5,0:10,3,,,0,1,0,25:50,,,0,0,0,0,,,,,0,10,10,10,,,,,,,,,,,,,,,,,,,,,,,,,,,,,,,,,,,,,,,,,,,,,,,,,,,,,,,,,,,,,,,,,,,,,,,,,,,,,,,,,,,,,,,,,,,,,,,,,,,,ayelen_c,001,c,2019_Oct_10_1411,Experimento,3.2.3,60.03202059853944,
8,14,14,999,0.5,0:10,3,Red,None,0,0,1,28:50,./completed_changuitos/montage_cgopq_189.6_163.7.jpg,left,0,0,0,0,,,,,0,11,11,11,,,,,,,,,0,0,0,0,0,0,0,0,,,,,,,,,,,,,,,,,,,,,,,,,,,,,430.09148509500665,431.05540052300785,431.05540052300785,None,439.0967450830067,439.60262474000046,None,1,439.0967450830067,None,,,,,,,,,,,,,,,,,,,,,,,,,,,,,,,,,,,,,,,,,,,,,,ayelen_c,001,c,2019_Oct_10_1411,Experimento,3.2.3,60.03202059853944,
8,14,14,999,0.5,0:10,3,Magenta,['space'],0,0,1,28:50,./completed_changuitos/montage_cgopq_189.6_163.7.jpg,left,0,0,0,0,,,,,0,11,11,11,,,,,,,,,0,0,0,0,0,1,1,1,,,,,,,,,,,,,,,,,,,,,,,,,,,,,,,,,441.1019513950014,441.6019831790036,None,0,441.1019513950014,441.1019513950014,,,,,,,,,,,,,,,,,,,,,,,,,,,,,,,,,,,,,,,,,,,,,,ayelen_c,001,c,2019_Oct_10_1411,Experimento,3.2.3,60.03202059853944,
8,14,14,999,0.5,0:10,3,Green,None,0,0,1,28:50,./completed_changuitos/montage_cgopq_189.6_163.7.jpg,left,0,0,0,0,,,,,0,11,11,11,,,,,,,,,0,0,0,0,0,2,2,2,,,,,,,,,,,,,,,,,,,,,,,,,,,,,,,,,443.1014607310062,443.601218877011,None,1,443.1014607310062,443.1014607310062,,,,,,,,,,,,,,,,,,,,,,,,,,,,,,,,,,,,,,,,,,,,,,ayelen_c,001,c,2019_Oct_10_1411,Experimento,3.2.3,60.03202059853944,
8,14,14,999,0.5,0:10,3,Yellow,['space'],0,0,1,28:50,./completed_changuitos/montage_cgopq_189.6_163.7.jpg,left,0,0,0,0,,,,,0,11,11,11,,,,,,,,,0,0,0,0,0,3,3,3,,,,,,,,,,,,,,,,,,,,,,,,,,,,,,,,,445.10070337800425,445.6003077960049,None,0,445.10070337800425,445.10070337800425,,,,,,,,,,,,,,,,,,,,,,,,,,,,,,,,,,,,,,,,,,,,,,ayelen_c,001,c,2019_Oct_10_1411,Experimento,3.2.3,60.03202059853944,
8,14,14,999,0.5,0:10,3,Blue,None,0,0,1,28:50,./completed_changuitos/montage_cgopq_189.6_163.7.jpg,left,0,0,0,0,,,,,0,11,11,11,,,,,,,,,0,0,0,0,0,4,4,4,,,,,,,,,,,,,,,,,,,,,,,,,,,,,,,,,447.1164046340127,447.6165708020126,None,1,447.1164046340127,447.1164046340127,,,,,,,,,,,,,,,,,,,,,,,,,,,,,,,,,,,,,,,,,,,,,,ayelen_c,001,c,2019_Oct_10_1411,Experimento,3.2.3,60.03202059853944,
8,14,14,999,0.5,0:10,3,Cyan,None,0,0,1,28:50,./completed_changuitos/montage_cgopq_189.6_163.7.jpg,left,0,0,0,0,,,,,0,11,11,11,,,,,,,,,0,0,0,0,0,5,5,5,,,,,,,,,,,,,,,,,,,,,,,,,,,,,,,,,449.11595881900575,449.61593701899983,None,1,449.11595881900575,449.11595881900575,,,,,,,,,,,,,,,,,,,,,,,,,,,,,,,,,,,,,,,,,,,,,,ayelen_c,001,c,2019_Oct_10_1411,Experimento,3.2.3,60.03202059853944,
8,14,14,999,0.5,0:10,3,Blue,['space'],0,0,1,28:50,./completed_changuitos/montage_cgopq_189.6_163.7.jpg,left,0,0,0,0,,,,,0,11,11,11,,,,,,,,,0,0,0,0,0,6,6,6,,,,,,,,,,,,,,,,,,,,,,,,,,,,,,,,,451.11530221501016,451.6152177650074,None,0,451.11530221501016,451.11530221501016,,,,,,,,,,,,,,,,,,,,,,,,,,,,,,,,,,,,,,,,,,,,,,ayelen_c,001,c,2019_Oct_10_1411,Experimento,3.2.3,60.03202059853944,
8,14,14,999,0.5,0:10,3,Yellow,None,0,0,1,28:50,./completed_changuitos/montage_cgopq_189.6_163.7.jpg,left,0,0,0,0,,,,,0,11,11,11,,,,,,,,,0,0,0,0,0,7,7,7,,,,,,,,,,,,,,,,,,,,,,,,,,,,,,,,,453.0813731241054,None,None,1,453.0813731241054,None,,,,,,,,,,,,,,,,,,,,,,,,,,,,,,,,,,,,,,,,,,,,,,ayelen_c,001,c,2019_Oct_10_1411,Experimento,3.2.3,60.03202059853944,
8,14,14,999,0.5,0:10,3,Cyan,None,0,0,1,28:50,./completed_changuitos/montage_cgopq_189.6_163.7.jpg,left,0,0,0,0,,,,,0,11,11,11,,,,,,,,,0,0,0,0,0,8,8,8,,,,,,,,,,,,,,,,,,,,,,,,,,,,,,,,,453.0813731241054,None,None,1,453.0813731241054,None,,,,,,,,,,,,,,,,,,,,,,,,,,,,,,,,,,,,,,,,,,,,,,ayelen_c,001,c,2019_Oct_10_1411,Experimento,3.2.3,60.03202059853944,
8,14,14,999,0.5,0:10,3,Yellow,['space'],0,0,1,28:50,./completed_changuitos/montage_cgopq_189.6_163.7.jpg,left,0,0,0,0,,,,,0,11,11,11,,,,,,,,,0,0,0,0,0,9,9,9,,,,,,,,,,,,,,,,,,,,,,,,,,,,,,,,,453.0813731241054,None,None,0,453.0813731241054,None,,,,,,,,,,,,,,,,,,,,,,,,,,,,,,,,,,,,,,,,,,,,,,ayelen_c,001,c,2019_Oct_10_1411,Experimento,3.2.3,60.03202059853944,
8,14,14,999,0.5,0:10,3,Magenta,None,0,0,1,28:50,./completed_changuitos/montage_cgopq_189.6_163.7.jpg,left,0,0,0,0,,,,,0,11,11,11,,,,,,,,,0,0,0,0,0,10,10,10,,,,,,,,,,,,,,,,,,,,,,,,,,,,,,,,,453.0813731241054,None,None,1,453.0813731241054,None,,,,,,,,,,,,,,,,,,,,,,,,,,,,,,,,,,,,,,,,,,,,,,ayelen_c,001,c,2019_Oct_10_1411,Experimento,3.2.3,60.03202059853944,
8,14,14,999,0.5,0:10,3,Red,None,0,0,1,28:50,./completed_changuitos/montage_cgopq_189.6_163.7.jpg,left,0,0,0,0,,,,,0,11,11,11,,,,,,,,,0,0,0,0,0,11,11,11,,,,,,,,,,,,,,,,,,,,,,,,,,,,,,,,,453.0813731241054,None,None,1,453.0813731241054,None,,,,,,,,,,,,,,,,,,,,,,,,,,,,,,,,,,,,,,,,,,,,,,ayelen_c,001,c,2019_Oct_10_1411,Experimento,3.2.3,60.03202059853944,
8,14,14,999,0.5,0:10,3,Magenta,['space'],0,0,1,28:50,./completed_changuitos/montage_cgopq_189.6_163.7.jpg,left,0,0,0,0,,,,,0,11,11,11,,,,,,,,,0,0,0,0,0,12,12,12,,,,,,,,,,,,,,,,,,,,,,,,,,,,,,,,,453.0980506072053,None,None,0,453.0980506072053,None,,,,,,,,,,,,,,,,,,,,,,,,,,,,,,,,,,,,,,,,,,,,,,ayelen_c,001,c,2019_Oct_10_1411,Experimento,3.2.3,60.03202059853944,
8,14,14,999,0.5,0:10,3,Red,['space'],0,0,1,28:50,./completed_changuitos/montage_cgopq_189.6_163.7.jpg,left,0,0,0,0,,,,,0,11,11,11,,,,,,,,,0,0,0,0,0,13,13,13,,,,,,,,,,,,,,,,,,,,,,,,,,,,,,,,,453.0980506072053,None,None,0,453.0980506072053,None,,,,,,,,,,,,,,,,,,,,,,,,,,,,,,,,,,,,,,,,,,,,,,ayelen_c,001,c,2019_Oct_10_1411,Experimento,3.2.3,60.03202059853944,
8,14,14,999,0.5,0:10,3,Yellow,None,0,0,1,28:50,./completed_changuitos/montage_cgopq_189.6_163.7.jpg,left,0,0,0,0,,,,,0,11,11,11,,,,,,,,,0,0,0,0,0,14,14,14,,,,,,,,,,,,,,,,,,,,,,,,,,,,,,,,,453.0980506072053,None,None,1,453.0980506072053,None,,,,,,,,,,,,,,,,,,,,,,,,,,,,,,,,,,,,,,,,,,,,,,ayelen_c,001,c,2019_Oct_10_1411,Experimento,3.2.3,60.03202059853944,
8,14,14,999,0.5,0:10,3,Cyan,None,0,0,1,28:50,./completed_changuitos/montage_cgopq_189.6_163.7.jpg,left,0,0,0,0,,,,,0,11,11,11,,,,,,,,,0,0,0,0,0,15,15,15,,,,,,,,,,,,,,,,,,,,,,,,,,,,,,,,,453.0980506072053,None,None,1,453.0980506072053,None,,,,,,,,,,,,,,,,,,,,,,,,,,,,,,,,,,,,,,,,,,,,,,ayelen_c,001,c,2019_Oct_10_1411,Experimento,3.2.3,60.03202059853944,
8,14,14,999,0.5,0:10,3,Green,None,0,0,1,28:50,./completed_changuitos/montage_cgopq_189.6_163.7.jpg,left,0,0,0,0,,,,,0,11,11,11,,,,,,,,,0,0,0,0,0,16,16,16,,,,,,,,,,,,,,,,,,,,,,,,,,,,,,,,,453.0980506072053,None,None,1,453.0980506072053,None,,,,,,,,,,,,,,,,,,,,,,,,,,,,,,,,,,,,,,,,,,,,,,ayelen_c,001,c,2019_Oct_10_1411,Experimento,3.2.3,60.03202059853944,
8,14,14,999,0.5,0:10,3,White,None,0,0,1,28:50,./completed_changuitos/montage_cgopq_189.6_163.7.jpg,left,0,0,0,0,,,,,0,11,11,11,,,,,,,,,0,0,0,0,0,17,17,17,,,,,,,,,,,,,,,,,,,,,,,,,,,,,,,,,453.0980506072053,None,None,1,453.0980506072053,None,,,,,,,,,,,,,,,,,,,,,,,,,,,,,,,,,,,,,,,,,,,,,,ayelen_c,001,c,2019_Oct_10_1411,Experimento,3.2.3,60.03202059853944,
8,14,14,999,0.5,0:10,3,Green,['space'],0,0,1,28:50,./completed_changuitos/montage_cgopq_189.6_163.7.jpg,left,0,0,0,0,,,,,0,11,11,11,,,,,,,,,0,0,0,0,0,18,18,18,,,,,,,,,,,,,,,,,,,,,,,,,,,,,,,,,453.0980506072053,None,None,0,453.0980506072053,None,,,,,,,,,,,,,,,,,,,,,,,,,,,,,,,,,,,,,,,,,,,,,,ayelen_c,001,c,2019_Oct_10_1411,Experimento,3.2.3,60.03202059853944,
8,14,14,999,0.5,0:10,3,Red,None,0,0,1,28:50,./completed_changuitos/montage_cgopq_189.6_163.7.jpg,left,0,0,0,0,,,,,0,11,11,11,,,,,,,,,0,0,0,0,0,19,19,19,,,,,,,,,,,,,,,,,,,,,,,,,,,,,,,,,453.0980506072053,None,None,1,453.0980506072053,None,,,,,,,,,,,,,,,,,,,,,,,,,,,,,,,,,,,,,,,,,,,,,,ayelen_c,001,c,2019_Oct_10_1411,Experimento,3.2.3,60.03202059853944,
8,14,14,999,0.5,0:10,3,Blue,None,0,0,1,28:50,./completed_changuitos/montage_cgopq_189.6_163.7.jpg,left,0,0,0,0,,,,,0,11,11,11,,,,,,,,,0,0,0,0,0,20,20,20,,,,,,,,,,,,,,,,,,,,,,,,,,,,,,,,,453.0980506072053,None,None,1,453.0980506072053,None,,,,,,,,,,,,,,,,,,,,,,,,,,,,,,,,,,,,,,,,,,,,,,ayelen_c,001,c,2019_Oct_10_1411,Experimento,3.2.3,60.03202059853944,
8,14,14,999,0.5,0:10,3,Green,None,0,0,1,28:50,./completed_changuitos/montage_cgopq_189.6_163.7.jpg,left,0,0,0,0,,,,,0,11,11,11,,,,,,,,,0,0,0,0,0,21,21,21,,,,,,,,,,,,,,,,,,,,,,,,,,,,,,,,,453.0980506072053,None,None,1,453.0980506072053,None,,,,,,,,,,,,,,,,,,,,,,,,,,,,,,,,,,,,,,,,,,,,,,ayelen_c,001,c,2019_Oct_10_1411,Experimento,3.2.3,60.03202059853944,
8,14,14,999,0.5,0:10,3,,,0,0,1,28:50,./completed_changuitos/montage_cgopq_189.6_163.7.jpg,left,0,0,0,0,,,,,0,11,11,11,,,,,,,,,0,0,0,0,,,,,,,,,,,,,,,,,,,,,,,,,,,,,,,,,,,,,,,,,,,,453.1434285960131,None,right,0,1.9041582560021197,453.1434285960131,None,453.1434285960131,None,,,,,,,,,,,,,,,,,,,,,,,,,,,,,,,,,,,,ayelen_c,001,c,2019_Oct_10_1411,Experimento,3.2.3,60.03202059853944,
8,14,14,999,0.5,0:10,3,,,0,0,1,28:50,,,0,0,0,0,,,,,0,11,11,11,,,,,,,,,,,,,,,,,,,,,,,,,,,,,,,,,,,,,,,,,,,,,,,,,,,,,,,,,,,,,,,,,,,,,,,,,,,,,,,,,,,,,,,,,,,,,,,,,,,,ayelen_c,001,c,2019_Oct_10_1411,Experimento,3.2.3,60.03202059853944,
8,14,14,999,0.5,0:10,3,,,1,0,0,30:50,./completed_changuitos/montage_ufrxr_64.19_54.79.jpg,left,0,0,0,0,,,,,0,12,12,12,0,0,0,0,,,,,,,,,,,,,,,,,,,,,,,,,,,,,,,,,,,,,,,,,,,,,,,,,,,,,,,,,,,,,455.6638396060007,458.3458746680117,458.3458746680117,466.3600849640061,right,0,2.3497642040019855,466.3600849640061,None,466.3600849640061,None,466.3600849640061,None,,,,,,,,,,,,,,,,,,,,,,,ayelen_c,001,c,2019_Oct_10_1411,Experimento,3.2.3,60.03202059853944,
8,14,14,999,0.5,0:10,3,,,1,0,0,30:50,,,0,0,0,0,,,,,0,12,12,12,,,,,,,,,,,,,,,,,,,,,,,,,,,,,,,,,,,,,,,,,,,,,,,,,,,,,,,,,,,,,,,,,,,,,,,,,,,,,,,,,,,,,,,,,,,,,,,,,,,,ayelen_c,001,c,2019_Oct_10_1411,Experimento,3.2.3,60.03202059853944,
8,14,14,999,0.5,0:10,3,,,1,0,0,32:50,./completed_changuitos/montage_ssynf_76.85_85.59.jpg,right,0,0,0,0,,,,,0,13,13,13,0,0,0,0,,,,,,,,,,,,,,,,,,,,,,,,,,,,,,,,,,,,,,,,,,,,,,,,,,,,,,,,,,,,,469.3591473680135,470.2088336710003,470.2088336710003,478.2227452799998,right,1,1.1833739759895252,478.2227452799998,None,478.2227452799998,None,478.2227452799998,None,,,,,,,,,,,,,,,,,,,,,,,ayelen_c,001,c,2019_Oct_10_1411,Experimento,3.2.3,60.03202059853944,
8,14,14,999,0.5,0:10,3,,,1,0,0,32:50,,,0,0,0,0,,,,,0,13,13,13,,,,,,,,,,,,,,,,,,,,,,,,,,,,,,,,,,,,,,,,,,,,,,,,,,,,,,,,,,,,,,,,,,,,,,,,,,,,,,,,,,,,,,,,,,,,,,,,,,,,ayelen_c,001,c,2019_Oct_10_1411,Experimento,3.2.3,60.03202059853944,
8,14,14,999,0.5,0:10,3,,,1,0,0,34:50,./completed_changuitos/montage_hqrrk_52.45_46.0.jpg,left,0,0,0,0,,,,,0,14,14,14,0,0,0,0,,,,,,,,,,,,,,,,,,,,,,,,,,,,,,,,,,,,,,,,,,,,,,,,,,,,,,,,,,,,,480.03880610200576,481.0218085670058,481.0218085670058,489.0357432130113,right,0,1.5833219729975099,489.0357432130113,None,489.0357432130113,None,489.0357432130113,None,,,,,,,,,,,,,,,,,,,,,,,ayelen_c,001,c,2019_Oct_10_1411,Experimento,3.2.3,60.03202059853944,
8,14,14,999,0.5,0:10,3,,,1,0,0,34:50,,,0,0,0,0,,,,,0,14,14,14,,,,,,,,,,,,,,,,,,,,,,,,,,,,,,,,,,,,,,,,,,,,,,,,,,,,,,,,,,,,,,,,,,,,,,,,,,,,,,,,,,,,,,,,,,,,,,,,,,,,ayelen_c,001,c,2019_Oct_10_1411,Experimento,3.2.3,60.03202059853944,
8,14,14,999,0.5,0:10,3,,,1,0,0,30:50,./completed_changuitos/montage_swrew_76.0_64.85.jpg,left,0,0,0,0,,,,,0,15,15,15,0,0,0,0,,,,,,,,,,,,,,,,,,,,,,,,,,,,,,,,,,,,,,,,,,,,,,,,,,,,,,,,,,,,,491.26830125800916,492.20131390201277,492.20131390201277,500.2152695880068,left,1,1.1333789409982273,500.2152695880068,None,500.2152695880068,None,500.2152695880068,None,,,,,,,,,,,,,,,,,,,,,,,ayelen_c,001,c,2019_Oct_10_1411,Experimento,3.2.3,60.03202059853944,
8,14,14,999,0.5,0:10,3,,,1,0,0,30:50,,,0,0,0,0,,,,,0,15,15,15,,,,,,,,,,,,,,,,,,,,,,,,,,,,,,,,,,,,,,,,,,,,,,,,,,,,,,,,,,,,,,,,,,,,,,,,,,,,,,,,,,,,,,,,,,,,,,,,,,,,ayelen_c,001,c,2019_Oct_10_1411,Experimento,3.2.3,60.03202059853944,
8,14,14,999,0.5,0:10,3,,,1,0,0,32:50,./completed_changuitos/montage_klzhn_157.29_179.75.jpg,right,0,0,0,0,,,,,0,16,16,16,0,0,0,0,,,,,,,,,,,,,,,,,,,,,,,,,,,,,,,,,,,,,,,,,,,,,,,,,,,,,,,,,,,,,501.98132367100334,502.5474076800019,502.5474076800019,510.56132079100644,left,0,0.7840101890033111,510.56132079100644,None,510.56132079100644,None,510.56132079100644,None,,,,,,,,,,,,,,,,,,,,,,,ayelen_c,001,c,2019_Oct_10_1411,Experimento,3.2.3,60.03202059853944,
8,14,14,999,0.5,0:10,3,,,1,0,0,32:50,,,0,0,0,0,,,,,0,16,16,16,,,,,,,,,,,,,,,,,,,,,,,,,,,,,,,,,,,,,,,,,,,,,,,,,,,,,,,,,,,,,,,,,,,,,,,,,,,,,,,,,,,,,,,,,,,,,,,,,,,,ayelen_c,001,c,2019_Oct_10_1411,Experimento,3.2.3,60.03202059853944,
8,14,14,999,0.5,0:10,3,,,1,0,0,34:50,./completed_changuitos/montage_sfarx_69.55_60.49.jpg,left,0,0,0,0,,,,,0,17,17,17,0,0,0,0,,,,,,,,,,,,,,,,,,,,,,,,,,,,,,,,,,,,,,,,,,,,,,,,,,,,,,,,,,,,,511.9945357990073,512.9275695710094,512.9275695710094,520.9415302220004,left,1,1.3170001800026512,520.9415302220004,None,520.9415302220004,None,520.9415302220004,None,,,,,,,,,,,,,,,,,,,,,,,ayelen_c,001,c,2019_Oct_10_1411,Experimento,3.2.3,60.03202059853944,
8,14,14,999,0.5,0:10,3,,,1,0,0,34:50,,,0,0,0,0,,,,,0,17,17,17,,,,,,,,,,,,,,,,,,,,,,,,,,,,,,,,,,,,,,,,,,,,,,,,,,,,,,,,,,,,,,,,,,,,,,,,,,,,,,,,,,,,,,,,,,,,,,,,,,,,ayelen_c,001,c,2019_Oct_10_1411,Experimento,3.2.3,60.03202059853944,
8,14,14,999,0.5,0:10,3,,,,,,,,,0,0,0,0,,,,,,,,,,,,,,,,,,,,,,,,,,,,,,,,,,,,,,,,,,,,,,,,,,,,,,,,,,,,,,,,,,,,,,,,,,,,,,,,,,,,,,522.3219712100108,525.6233118850068,1,9.297241917010979,525.6233118850068,None,525.6233118850068,None,b,6.916231484996388,534.9364303460025,None,534.9364303460025,None,534.9364303460025,None,541.8672671460081,None,2,5.600086692007608,541.8672671460081,None,ayelen_c,001,c,2019_Oct_10_1411,Experimento,3.2.3,60.03202059853944,
