changuito_time_to_show,time_to_think,time_to_play,total_items,nback_stimulus_time,nback_training,time_to_show_tiny_stimulus,colourtest,corresp,inmediato,consciente,inconsciente,nback_slice,imagen,correcta,trials_5.thisRepN,trials_5.thisTrialN,trials_5.thisN,trials_5.thisIndex,nback_train.thisRepN,nback_train.thisTrialN,nback_train.thisN,nback_train.thisIndex,treatment_order.thisRepN,treatment_order.thisTrialN,treatment_order.thisN,treatment_order.thisIndex,trials.thisRepN,trials.thisTrialN,trials.thisN,trials.thisIndex,trials_2.thisRepN,trials_2.thisTrialN,trials_2.thisN,trials_2.thisIndex,trials_3.thisRepN,trials_3.thisTrialN,trials_3.thisN,trials_3.thisIndex,trials_4.thisRepN,trials_4.thisTrialN,trials_4.thisN,trials_4.thisIndex,Presentacion.started,Presentacion.stopped,Juego.started,Juego.stopped,image_6.started,image_6.stopped,polygon.started,polygon.stopped,nback_train_resp.keys,nback_train_resp.corr,nback_train_resp.started,nback_train_resp.stopped,nback_train_resp.rt,hola.started,hola.stopped,image_2.started,image_2.stopped,tiempo_para_pensar.started,tiempo_para_pensar.stopped,respuesta_consciente.keys,respuesta_consciente.corr,respuesta_consciente.rt,respuesta_consciente.started,respuesta_consciente.stopped,cual_es_la_mas_barata.started,cual_es_la_mas_barata.stopped,image_4.started,image_4.stopped,holi.started,holi.stopped,image_3.started,image_3.stopped,polygon_2.started,polygon_2.stopped,nback_train_resp_2.keys,nback_train_resp_2.corr,nback_train_resp_2.started,nback_train_resp_2.stopped,nback_train_resp_2.rt,text_2.started,text_2.stopped,key_resp.keys,key_resp.corr,key_resp.rt,key_resp.started,key_resp.stopped,image_5.started,image_5.stopped,text.started,text.stopped,image.started,image.stopped,respuesta_inmediato.keys,respuesta_inmediato.corr,respuesta_inmediato.rt,respuesta_inmediato.started,respuesta_inmediato.stopped,pregunta_cual_es_el_mas_barato.started,pregunta_cual_es_el_mas_barato.stopped,short_stim1.started,short_stim1.stopped,gracias.started,gracias.stopped,respuesta1.keys,respuesta1.rt,respuesta1.started,respuesta1.stopped,pregunta1.started,pregunta1.stopped,respuesta3bis_3.keys,respuesta3bis_3.rt,respuesta3bis_3.started,respuesta3bis_3.stopped,pregunta3_3.started,pregunta3_3.stopped,productoCon3RANGOSabc_3.started,productoCon3RANGOSabc_3.stopped,text_3.started,text_3.stopped,key_resp_2.keys,key_resp_2.rt,key_resp_2.started,key_resp_2.stopped,participant,session,group,date,expName,psychopyVersion,frameRate,
8,14,14,999,0.5,0:10,3,White,None,,,,,,,0,0,0,0,0,0,0,0,,,,,,,,,,,,,,,,,,,,,22.50176383998769,None,62.88781759698759,None,62.88781759698759,None,99.73170453999774,100.23283136700047,None,1,99.73170453999774,None,,,,,,,,,,,,,,,,,,,,,,,,,,,,,,,,,,,,,,,,,,,,,,,,,,,,,,,,,,,,,,,,,,,,,,,,celesteD,001,a,2019_Oct_14_1613,Experimento,3.2.3,60.421598226605774,
8,14,14,999,0.5,0:10,3,Red,None,,,,,,,0,0,0,0,0,1,1,1,,,,,,,,,,,,,,,,,,,,,,,,,,,101.73273761899327,102.23275904099864,None,1,101.73273761899327,101.73273761899327,,,,,,,,,,,,,,,,,,,,,,,,,,,,,,,,,,,,,,,,,,,,,,,,,,,,,,,,,,,,,,,,,,,,,,,,celesteD,001,a,2019_Oct_14_1613,Experimento,3.2.3,60.421598226605774,
8,14,14,999,0.5,0:10,3,Magenta,None,,,,,,,0,0,0,0,0,2,2,2,,,,,,,,,,,,,,,,,,,,,,,,,,,103.73263980899355,104.23271101398859,None,1,103.73263980899355,103.73263980899355,,,,,,,,,,,,,,,,,,,,,,,,,,,,,,,,,,,,,,,,,,,,,,,,,,,,,,,,,,,,,,,,,,,,,,,,celesteD,001,a,2019_Oct_14_1613,Experimento,3.2.3,60.421598226605774,
8,14,14,999,0.5,0:10,3,Cyan,None,,,,,,,0,0,0,0,0,3,3,3,,,,,,,,,,,,,,,,,,,,,,,,,,,105.73270150399185,106.23269450299267,None,1,105.73270150399185,105.73270150399185,,,,,,,,,,,,,,,,,,,,,,,,,,,,,,,,,,,,,,,,,,,,,,,,,,,,,,,,,,,,,,,,,,,,,,,,celesteD,001,a,2019_Oct_14_1613,Experimento,3.2.3,60.421598226605774,
8,14,14,999,0.5,0:10,3,Magenta,['space'],,,,,,,0,0,0,0,0,4,4,4,,,,,,,,,,,,,,,,,,,,,,,,,,,107.73264571098844,108.23270090299775,['return'],0,107.73264571098844,107.73264571098844,[0.37195526401046664],,,,,,,,,,,,,,,,,,,,,,,,,,,,,,,,,,,,,,,,,,,,,,,,,,,,,,,,,,,,,,,,,,,,,,,celesteD,001,a,2019_Oct_14_1613,Experimento,3.2.3,60.421598226605774,
8,14,14,999,0.5,0:10,3,Green,None,,,,,,,0,0,0,0,0,5,5,5,,,,,,,,,,,,,,,,,,,,,,,,,,,109.73248593999597,110.23269602099026,None,1,109.73248593999597,109.73248593999597,,,,,,,,,,,,,,,,,,,,,,,,,,,,,,,,,,,,,,,,,,,,,,,,,,,,,,,,,,,,,,,,,,,,,,,,celesteD,001,a,2019_Oct_14_1613,Experimento,3.2.3,60.421598226605774,
8,14,14,999,0.5,0:10,3,White,None,,,,,,,0,0,0,0,0,6,6,6,,,,,,,,,,,,,,,,,,,,,,,,,,,111.73260715299693,112.23252723598853,None,1,111.73260715299693,111.73260715299693,,,,,,,,,,,,,,,,,,,,,,,,,,,,,,,,,,,,,,,,,,,,,,,,,,,,,,,,,,,,,,,,,,,,,,,,celesteD,001,a,2019_Oct_14_1613,Experimento,3.2.3,60.421598226605774,
8,14,14,999,0.5,0:10,3,Green,['space'],,,,,,,0,0,0,0,0,7,7,7,,,,,,,,,,,,,,,,,,,,,,,,,,,113.73264568799641,114.23259231599513,['return'],0,113.73264568799641,113.73264568799641,[0.4766540150012588],,,,,,,,,,,,,,,,,,,,,,,,,,,,,,,,,,,,,,,,,,,,,,,,,,,,,,,,,,,,,,,,,,,,,,,celesteD,001,a,2019_Oct_14_1613,Experimento,3.2.3,60.421598226605774,
8,14,14,999,0.5,0:10,3,Blue,None,,,,,,,0,0,0,0,0,8,8,8,,,,,,,,,,,,,,,,,,,,,,,,,,,115.73276303499006,116.23257252998883,None,1,115.73276303499006,115.73276303499006,,,,,,,,,,,,,,,,,,,,,,,,,,,,,,,,,,,,,,,,,,,,,,,,,,,,,,,,,,,,,,,,,,,,,,,,celesteD,001,a,2019_Oct_14_1613,Experimento,3.2.3,60.421598226605774,
8,14,14,999,0.5,0:10,3,Green,['space'],,,,,,,0,0,0,0,0,9,9,9,,,,,,,,,,,,,,,,,,,,,,,,,,,117.7326501589996,118.23250249699049,['return'],0,117.7326501589996,117.7326501589996,[0.5754427280044183],,,,,,,,,,,,,,,,,,,,,,,,,,,,,,,,,,,,,,,,,,,,,,,,,,,,,,,,,,,,,,,,,,,,,,,celesteD,001,a,2019_Oct_14_1613,Experimento,3.2.3,60.421598226605774,
8,14,14,999,0.5,0:10,3,,,0,1,0,10:50,./completed_changuitos/montage_okwmn_242.15_285.69.jpg,right,0,0,0,0,,,,,0,0,0,0,,,,,0,0,0,0,,,,,,,,,,,,,,,,,,,,,,120.05070159299066,132.86864248999336,132.86864248999336,140.88185720499314,140.88185720499314,154.8817033959931,right,1,2.415401505000773,154.8817033959931,None,154.8817033959931,None,154.8817033959931,None,,,,,,,,,,,,,,,,,,,,,,,,,,,,,,,,,,,,,,,,,,,,,,,,,,,,,,,,celesteD,001,a,2019_Oct_14_1613,Experimento,3.2.3,60.421598226605774,
8,14,14,999,0.5,0:10,3,,,0,1,0,10:50,,,0,0,0,0,,,,,0,0,0,0,,,,,,,,,,,,,,,,,,,,,,,,,,,,,,,,,,,,,,,,,,,,,,,,,,,,,,,,,,,,,,,,,,,,,,,,,,,,,,,,,,,,,,,,,,,,,,,,,,,,celesteD,001,a,2019_Oct_14_1613,Experimento,3.2.3,60.421598226605774,
8,14,14,999,0.5,0:10,3,Yellow,None,0,0,1,15:50,./completed_changuitos/montage_ggvmq_29.45_34.15.jpg,right,0,0,0,0,,,,,0,1,1,1,,,,,,,,,0,0,0,0,0,0,0,0,,,,,,,,,,,,,,,,,,,,,,,,,,,,,157.55056205199799,165.61670505799702,165.61670505799702,None,173.66483081498882,174.16453415100113,None,1,173.66483081498882,None,,,,,,,,,,,,,,,,,,,,,,,,,,,,,,,,,,,,,,,,,,,,,,celesteD,001,a,2019_Oct_14_1613,Experimento,3.2.3,60.421598226605774,
8,14,14,999,0.5,0:10,3,White,['space'],0,0,1,15:50,./completed_changuitos/montage_ggvmq_29.45_34.15.jpg,right,0,0,0,0,,,,,0,1,1,1,,,,,,,,,0,0,0,0,0,1,1,1,,,,,,,,,,,,,,,,,,,,,,,,,,,,,,,,,175.66530535298807,176.1650641719898,None,0,175.66530535298807,175.66530535298807,,,,,,,,,,,,,,,,,,,,,,,,,,,,,,,,,,,,,,,,,,,,,,celesteD,001,a,2019_Oct_14_1613,Experimento,3.2.3,60.421598226605774,
8,14,14,999,0.5,0:10,3,Magenta,None,0,0,1,15:50,./completed_changuitos/montage_ggvmq_29.45_34.15.jpg,right,0,0,0,0,,,,,0,1,1,1,,,,,,,,,0,0,0,0,0,2,2,2,,,,,,,,,,,,,,,,,,,,,,,,,,,,,,,,,177.66518698800064,178.1651185160008,None,1,177.66518698800064,177.66518698800064,,,,,,,,,,,,,,,,,,,,,,,,,,,,,,,,,,,,,,,,,,,,,,celesteD,001,a,2019_Oct_14_1613,Experimento,3.2.3,60.421598226605774,
8,14,14,999,0.5,0:10,3,Cyan,None,0,0,1,15:50,./completed_changuitos/montage_ggvmq_29.45_34.15.jpg,right,0,0,0,0,,,,,0,1,1,1,,,,,,,,,0,0,0,0,0,3,3,3,,,,,,,,,,,,,,,,,,,,,,,,,,,,,,,,,179.66514160799852,180.16497510099725,['return'],0,179.66514160799852,179.66514160799852,[1.301112342000124],,,,,,,,,,,,,,,,,,,,,,,,,,,,,,,,,,,,,,,,,,,,,celesteD,001,a,2019_Oct_14_1613,Experimento,3.2.3,60.421598226605774,
8,14,14,999,0.5,0:10,3,Blue,None,0,0,1,15:50,./completed_changuitos/montage_ggvmq_29.45_34.15.jpg,right,0,0,0,0,,,,,0,1,1,1,,,,,,,,,0,0,0,0,0,4,4,4,,,,,,,,,,,,,,,,,,,,,,,,,,,,,,,,,181.66503661299066,182.16504047600029,None,1,181.66503661299066,181.66503661299066,,,,,,,,,,,,,,,,,,,,,,,,,,,,,,,,,,,,,,,,,,,,,,celesteD,001,a,2019_Oct_14_1613,Experimento,3.2.3,60.421598226605774,
8,14,14,999,0.5,0:10,3,Magenta,None,0,0,1,15:50,./completed_changuitos/montage_ggvmq_29.45_34.15.jpg,right,0,0,0,0,,,,,0,1,1,1,,,,,,,,,0,0,0,0,0,5,5,5,,,,,,,,,,,,,,,,,,,,,,,,,,,,,,,,,183.66484935399785,184.1650640949956,['return'],0,183.66484935399785,183.66484935399785,[0.7353793910006061],,,,,,,,,,,,,,,,,,,,,,,,,,,,,,,,,,,,,,,,,,,,,celesteD,001,a,2019_Oct_14_1613,Experimento,3.2.3,60.421598226605774,
8,14,14,999,0.5,0:10,3,Blue,['space'],0,0,1,15:50,./completed_changuitos/montage_ggvmq_29.45_34.15.jpg,right,0,0,0,0,,,,,0,1,1,1,,,,,,,,,0,0,0,0,0,6,6,6,,,,,,,,,,,,,,,,,,,,,,,,,,,,,,,,,185.66517203999683,186.16491110199422,['return'],0,185.66517203999683,185.66517203999683,[1.0230536479939474],,,,,,,,,,,,,,,,,,,,,,,,,,,,,,,,,,,,,,,,,,,,,celesteD,001,a,2019_Oct_14_1613,Experimento,3.2.3,60.421598226605774,
8,14,14,999,0.5,0:10,3,Cyan,None,0,0,1,15:50,./completed_changuitos/montage_ggvmq_29.45_34.15.jpg,right,0,0,0,0,,,,,0,1,1,1,,,,,,,,,0,0,0,0,0,7,7,7,,,,,,,,,,,,,,,,,,,,,,,,,,,,,,,,,187.63154858469207,None,None,1,187.63154858469207,None,,,,,,,,,,,,,,,,,,,,,,,,,,,,,,,,,,,,,,,,,,,,,,celesteD,001,a,2019_Oct_14_1613,Experimento,3.2.3,60.421598226605774,
8,14,14,999,0.5,0:10,3,Yellow,None,0,0,1,15:50,./completed_changuitos/montage_ggvmq_29.45_34.15.jpg,right,0,0,0,0,,,,,0,1,1,1,,,,,,,,,0,0,0,0,0,8,8,8,,,,,,,,,,,,,,,,,,,,,,,,,,,,,,,,,187.63154858469207,None,None,1,187.63154858469207,None,,,,,,,,,,,,,,,,,,,,,,,,,,,,,,,,,,,,,,,,,,,,,,celesteD,001,a,2019_Oct_14_1613,Experimento,3.2.3,60.421598226605774,
8,14,14,999,0.5,0:10,3,Cyan,None,0,0,1,15:50,./completed_changuitos/montage_ggvmq_29.45_34.15.jpg,right,0,0,0,0,,,,,0,1,1,1,,,,,,,,,0,0,0,0,0,9,9,9,,,,,,,,,,,,,,,,,,,,,,,,,,,,,,,,,187.63154858469207,None,None,1,187.63154858469207,None,,,,,,,,,,,,,,,,,,,,,,,,,,,,,,,,,,,,,,,,,,,,,,celesteD,001,a,2019_Oct_14_1613,Experimento,3.2.3,60.421598226605774,
8,14,14,999,0.5,0:10,3,Blue,None,0,0,1,15:50,./completed_changuitos/montage_ggvmq_29.45_34.15.jpg,right,0,0,0,0,,,,,0,1,1,1,,,,,,,,,0,0,0,0,0,10,10,10,,,,,,,,,,,,,,,,,,,,,,,,,,,,,,,,,187.63154858469207,None,None,1,187.63154858469207,None,,,,,,,,,,,,,,,,,,,,,,,,,,,,,,,,,,,,,,,,,,,,,,celesteD,001,a,2019_Oct_14_1613,Experimento,3.2.3,60.421598226605774,
8,14,14,999,0.5,0:10,3,Cyan,['space'],0,0,1,15:50,./completed_changuitos/montage_ggvmq_29.45_34.15.jpg,right,0,0,0,0,,,,,0,1,1,1,,,,,,,,,0,0,0,0,0,11,11,11,,,,,,,,,,,,,,,,,,,,,,,,,,,,,,,,,187.63154858469207,None,None,0,187.63154858469207,None,,,,,,,,,,,,,,,,,,,,,,,,,,,,,,,,,,,,,,,,,,,,,,celesteD,001,a,2019_Oct_14_1613,Experimento,3.2.3,60.421598226605774,
8,14,14,999,0.5,0:10,3,Magenta,None,0,0,1,15:50,./completed_changuitos/montage_ggvmq_29.45_34.15.jpg,right,0,0,0,0,,,,,0,1,1,1,,,,,,,,,0,0,0,0,0,12,12,12,,,,,,,,,,,,,,,,,,,,,,,,,,,,,,,,,187.63154858469207,None,None,1,187.63154858469207,None,,,,,,,,,,,,,,,,,,,,,,,,,,,,,,,,,,,,,,,,,,,,,,celesteD,001,a,2019_Oct_14_1613,Experimento,3.2.3,60.421598226605774,
8,14,14,999,0.5,0:10,3,Red,None,0,0,1,15:50,./completed_changuitos/montage_ggvmq_29.45_34.15.jpg,right,0,0,0,0,,,,,0,1,1,1,,,,,,,,,0,0,0,0,0,13,13,13,,,,,,,,,,,,,,,,,,,,,,,,,,,,,,,,,187.63154858469207,None,None,1,187.63154858469207,None,,,,,,,,,,,,,,,,,,,,,,,,,,,,,,,,,,,,,,,,,,,,,,celesteD,001,a,2019_Oct_14_1613,Experimento,3.2.3,60.421598226605774,
8,14,14,999,0.5,0:10,3,Magenta,['space'],0,0,1,15:50,./completed_changuitos/montage_ggvmq_29.45_34.15.jpg,right,0,0,0,0,,,,,0,1,1,1,,,,,,,,,0,0,0,0,0,14,14,14,,,,,,,,,,,,,,,,,,,,,,,,,,,,,,,,,187.64810582439242,None,None,0,187.64810582439242,None,,,,,,,,,,,,,,,,,,,,,,,,,,,,,,,,,,,,,,,,,,,,,,celesteD,001,a,2019_Oct_14_1613,Experimento,3.2.3,60.421598226605774,
8,14,14,999,0.5,0:10,3,Green,None,0,0,1,15:50,./completed_changuitos/montage_ggvmq_29.45_34.15.jpg,right,0,0,0,0,,,,,0,1,1,1,,,,,,,,,0,0,0,0,0,15,15,15,,,,,,,,,,,,,,,,,,,,,,,,,,,,,,,,,187.64810582439242,None,None,1,187.64810582439242,None,,,,,,,,,,,,,,,,,,,,,,,,,,,,,,,,,,,,,,,,,,,,,,celesteD,001,a,2019_Oct_14_1613,Experimento,3.2.3,60.421598226605774,
8,14,14,999,0.5,0:10,3,Yellow,['space'],0,0,1,15:50,./completed_changuitos/montage_ggvmq_29.45_34.15.jpg,right,0,0,0,0,,,,,0,1,1,1,,,,,,,,,0,0,0,0,0,16,16,16,,,,,,,,,,,,,,,,,,,,,,,,,,,,,,,,,187.64810582439242,None,None,0,187.64810582439242,None,,,,,,,,,,,,,,,,,,,,,,,,,,,,,,,,,,,,,,,,,,,,,,celesteD,001,a,2019_Oct_14_1613,Experimento,3.2.3,60.421598226605774,
8,14,14,999,0.5,0:10,3,Blue,None,0,0,1,15:50,./completed_changuitos/montage_ggvmq_29.45_34.15.jpg,right,0,0,0,0,,,,,0,1,1,1,,,,,,,,,0,0,0,0,0,17,17,17,,,,,,,,,,,,,,,,,,,,,,,,,,,,,,,,,187.64810582439242,None,None,1,187.64810582439242,None,,,,,,,,,,,,,,,,,,,,,,,,,,,,,,,,,,,,,,,,,,,,,,celesteD,001,a,2019_Oct_14_1613,Experimento,3.2.3,60.421598226605774,
8,14,14,999,0.5,0:10,3,Cyan,None,0,0,1,15:50,./completed_changuitos/montage_ggvmq_29.45_34.15.jpg,right,0,0,0,0,,,,,0,1,1,1,,,,,,,,,0,0,0,0,0,18,18,18,,,,,,,,,,,,,,,,,,,,,,,,,,,,,,,,,187.64810582439242,None,None,1,187.64810582439242,None,,,,,,,,,,,,,,,,,,,,,,,,,,,,,,,,,,,,,,,,,,,,,,celesteD,001,a,2019_Oct_14_1613,Experimento,3.2.3,60.421598226605774,
8,14,14,999,0.5,0:10,3,Blue,['space'],0,0,1,15:50,./completed_changuitos/montage_ggvmq_29.45_34.15.jpg,right,0,0,0,0,,,,,0,1,1,1,,,,,,,,,0,0,0,0,0,19,19,19,,,,,,,,,,,,,,,,,,,,,,,,,,,,,,,,,187.64810582439242,None,None,0,187.64810582439242,None,,,,,,,,,,,,,,,,,,,,,,,,,,,,,,,,,,,,,,,,,,,,,,celesteD,001,a,2019_Oct_14_1613,Experimento,3.2.3,60.421598226605774,
8,14,14,999,0.5,0:10,3,Yellow,None,0,0,1,15:50,./completed_changuitos/montage_ggvmq_29.45_34.15.jpg,right,0,0,0,0,,,,,0,1,1,1,,,,,,,,,0,0,0,0,0,20,20,20,,,,,,,,,,,,,,,,,,,,,,,,,,,,,,,,,187.64810582439242,None,None,1,187.64810582439242,None,,,,,,,,,,,,,,,,,,,,,,,,,,,,,,,,,,,,,,,,,,,,,,celesteD,001,a,2019_Oct_14_1613,Experimento,3.2.3,60.421598226605774,
8,14,14,999,0.5,0:10,3,Cyan,None,0,0,1,15:50,./completed_changuitos/montage_ggvmq_29.45_34.15.jpg,right,0,0,0,0,,,,,0,1,1,1,,,,,,,,,0,0,0,0,0,21,21,21,,,,,,,,,,,,,,,,,,,,,,,,,,,,,,,,,187.64810582439242,None,None,1,187.64810582439242,None,,,,,,,,,,,,,,,,,,,,,,,,,,,,,,,,,,,,,,,,,,,,,,celesteD,001,a,2019_Oct_14_1613,Experimento,3.2.3,60.421598226605774,
8,14,14,999,0.5,0:10,3,Yellow,['space'],0,0,1,15:50,./completed_changuitos/montage_ggvmq_29.45_34.15.jpg,right,0,0,0,0,,,,,0,1,1,1,,,,,,,,,0,0,0,0,0,22,22,22,,,,,,,,,,,,,,,,,,,,,,,,,,,,,,,,,187.64810582439242,None,None,0,187.64810582439242,None,,,,,,,,,,,,,,,,,,,,,,,,,,,,,,,,,,,,,,,,,,,,,,celesteD,001,a,2019_Oct_14_1613,Experimento,3.2.3,60.421598226605774,
8,14,14,999,0.5,0:10,3,Magenta,None,0,0,1,15:50,./completed_changuitos/montage_ggvmq_29.45_34.15.jpg,right,0,0,0,0,,,,,0,1,1,1,,,,,,,,,0,0,0,0,0,23,23,23,,,,,,,,,,,,,,,,,,,,,,,,,,,,,,,,,187.64810582439242,None,None,1,187.64810582439242,None,,,,,,,,,,,,,,,,,,,,,,,,,,,,,,,,,,,,,,,,,,,,,,celesteD,001,a,2019_Oct_14_1613,Experimento,3.2.3,60.421598226605774,
8,14,14,999,0.5,0:10,3,Red,None,0,0,1,15:50,./completed_changuitos/montage_ggvmq_29.45_34.15.jpg,right,0,0,0,0,,,,,0,1,1,1,,,,,,,,,0,0,0,0,0,24,24,24,,,,,,,,,,,,,,,,,,,,,,,,,,,,,,,,,187.64810582439242,None,None,1,187.64810582439242,None,,,,,,,,,,,,,,,,,,,,,,,,,,,,,,,,,,,,,,,,,,,,,,celesteD,001,a,2019_Oct_14_1613,Experimento,3.2.3,60.421598226605774,
8,14,14,999,0.5,0:10,3,Magenta,['space'],0,0,1,15:50,./completed_changuitos/montage_ggvmq_29.45_34.15.jpg,right,0,0,0,0,,,,,0,1,1,1,,,,,,,,,0,0,0,0,0,25,25,25,,,,,,,,,,,,,,,,,,,,,,,,,,,,,,,,,187.66466306409276,None,None,0,187.66466306409276,None,,,,,,,,,,,,,,,,,,,,,,,,,,,,,,,,,,,,,,,,,,,,,,celesteD,001,a,2019_Oct_14_1613,Experimento,3.2.3,60.421598226605774,
8,14,14,999,0.5,0:10,3,Red,['space'],0,0,1,15:50,./completed_changuitos/montage_ggvmq_29.45_34.15.jpg,right,0,0,0,0,,,,,0,1,1,1,,,,,,,,,0,0,0,0,0,26,26,26,,,,,,,,,,,,,,,,,,,,,,,,,,,,,,,,,187.66466306409276,None,None,0,187.66466306409276,None,,,,,,,,,,,,,,,,,,,,,,,,,,,,,,,,,,,,,,,,,,,,,,celesteD,001,a,2019_Oct_14_1613,Experimento,3.2.3,60.421598226605774,
8,14,14,999,0.5,0:10,3,Yellow,None,0,0,1,15:50,./completed_changuitos/montage_ggvmq_29.45_34.15.jpg,right,0,0,0,0,,,,,0,1,1,1,,,,,,,,,0,0,0,0,0,27,27,27,,,,,,,,,,,,,,,,,,,,,,,,,,,,,,,,,187.66466306409276,None,None,1,187.66466306409276,None,,,,,,,,,,,,,,,,,,,,,,,,,,,,,,,,,,,,,,,,,,,,,,celesteD,001,a,2019_Oct_14_1613,Experimento,3.2.3,60.421598226605774,
8,14,14,999,0.5,0:10,3,Cyan,None,0,0,1,15:50,./completed_changuitos/montage_ggvmq_29.45_34.15.jpg,right,0,0,0,0,,,,,0,1,1,1,,,,,,,,,0,0,0,0,0,28,28,28,,,,,,,,,,,,,,,,,,,,,,,,,,,,,,,,,187.66466306409276,None,None,1,187.66466306409276,None,,,,,,,,,,,,,,,,,,,,,,,,,,,,,,,,,,,,,,,,,,,,,,celesteD,001,a,2019_Oct_14_1613,Experimento,3.2.3,60.421598226605774,
8,14,14,999,0.5,0:10,3,Green,None,0,0,1,15:50,./completed_changuitos/montage_ggvmq_29.45_34.15.jpg,right,0,0,0,0,,,,,0,1,1,1,,,,,,,,,0,0,0,0,0,29,29,29,,,,,,,,,,,,,,,,,,,,,,,,,,,,,,,,,187.66466306409276,None,None,1,187.66466306409276,None,,,,,,,,,,,,,,,,,,,,,,,,,,,,,,,,,,,,,,,,,,,,,,celesteD,001,a,2019_Oct_14_1613,Experimento,3.2.3,60.421598226605774,
8,14,14,999,0.5,0:10,3,White,None,0,0,1,15:50,./completed_changuitos/montage_ggvmq_29.45_34.15.jpg,right,0,0,0,0,,,,,0,1,1,1,,,,,,,,,0,0,0,0,0,30,30,30,,,,,,,,,,,,,,,,,,,,,,,,,,,,,,,,,187.66466306409276,None,None,1,187.66466306409276,None,,,,,,,,,,,,,,,,,,,,,,,,,,,,,,,,,,,,,,,,,,,,,,celesteD,001,a,2019_Oct_14_1613,Experimento,3.2.3,60.421598226605774,
8,14,14,999,0.5,0:10,3,Green,['space'],0,0,1,15:50,./completed_changuitos/montage_ggvmq_29.45_34.15.jpg,right,0,0,0,0,,,,,0,1,1,1,,,,,,,,,0,0,0,0,0,31,31,31,,,,,,,,,,,,,,,,,,,,,,,,,,,,,,,,,187.66466306409276,None,None,0,187.66466306409276,None,,,,,,,,,,,,,,,,,,,,,,,,,,,,,,,,,,,,,,,,,,,,,,celesteD,001,a,2019_Oct_14_1613,Experimento,3.2.3,60.421598226605774,
8,14,14,999,0.5,0:10,3,Red,None,0,0,1,15:50,./completed_changuitos/montage_ggvmq_29.45_34.15.jpg,right,0,0,0,0,,,,,0,1,1,1,,,,,,,,,0,0,0,0,0,32,32,32,,,,,,,,,,,,,,,,,,,,,,,,,,,,,,,,,187.66466306409276,None,None,1,187.66466306409276,None,,,,,,,,,,,,,,,,,,,,,,,,,,,,,,,,,,,,,,,,,,,,,,celesteD,001,a,2019_Oct_14_1613,Experimento,3.2.3,60.421598226605774,
8,14,14,999,0.5,0:10,3,Blue,None,0,0,1,15:50,./completed_changuitos/montage_ggvmq_29.45_34.15.jpg,right,0,0,0,0,,,,,0,1,1,1,,,,,,,,,0,0,0,0,0,33,33,33,,,,,,,,,,,,,,,,,,,,,,,,,,,,,,,,,187.66466306409276,None,None,1,187.66466306409276,None,,,,,,,,,,,,,,,,,,,,,,,,,,,,,,,,,,,,,,,,,,,,,,celesteD,001,a,2019_Oct_14_1613,Experimento,3.2.3,60.421598226605774,
8,14,14,999,0.5,0:10,3,Green,None,0,0,1,15:50,./completed_changuitos/montage_ggvmq_29.45_34.15.jpg,right,0,0,0,0,,,,,0,1,1,1,,,,,,,,,0,0,0,0,0,34,34,34,,,,,,,,,,,,,,,,,,,,,,,,,,,,,,,,,187.66466306409276,None,None,1,187.66466306409276,None,,,,,,,,,,,,,,,,,,,,,,,,,,,,,,,,,,,,,,,,,,,,,,celesteD,001,a,2019_Oct_14_1613,Experimento,3.2.3,60.421598226605774,
8,14,14,999,0.5,0:10,3,,,0,0,1,15:50,./completed_changuitos/montage_ggvmq_29.45_34.15.jpg,right,0,0,0,0,,,,,0,1,1,1,,,,,,,,,0,0,0,0,,,,,,,,,,,,,,,,,,,,,,,,,,,,,,,,,,,,,,,,,,,,187.76564646000043,None,left,0,2.4096811350027565,187.76564646000043,None,187.76564646000043,None,,,,,,,,,,,,,,,,,,,,,,,,,,,,,,,,,,,,celesteD,001,a,2019_Oct_14_1613,Experimento,3.2.3,60.421598226605774,
8,14,14,999,0.5,0:10,3,,,0,0,1,15:50,,,0,0,0,0,,,,,0,1,1,1,,,,,,,,,,,,,,,,,,,,,,,,,,,,,,,,,,,,,,,,,,,,,,,,,,,,,,,,,,,,,,,,,,,,,,,,,,,,,,,,,,,,,,,,,,,,,,,,,,,,celesteD,001,a,2019_Oct_14_1613,Experimento,3.2.3,60.421598226605774,
8,14,14,999,0.5,0:10,3,,,0,1,0,19:50,./completed_changuitos/montage_isgod_31.05_26.75.jpg,left,0,0,0,0,,,,,0,2,2,2,,,,,0,0,0,0,,,,,,,,,,,,,,,,,,,,,,190.4866779439908,193.51447685799212,193.51447685799212,201.5134250229894,201.5134250229894,215.51402439799858,left,1,1.233959129996947,215.51402439799858,None,215.51402439799858,None,215.51402439799858,None,,,,,,,,,,,,,,,,,,,,,,,,,,,,,,,,,,,,,,,,,,,,,,,,,,,,,,,,celesteD,001,a,2019_Oct_14_1613,Experimento,3.2.3,60.421598226605774,
8,14,14,999,0.5,0:10,3,,,0,1,0,19:50,,,0,0,0,0,,,,,0,2,2,2,,,,,,,,,,,,,,,,,,,,,,,,,,,,,,,,,,,,,,,,,,,,,,,,,,,,,,,,,,,,,,,,,,,,,,,,,,,,,,,,,,,,,,,,,,,,,,,,,,,,celesteD,001,a,2019_Oct_14_1613,Experimento,3.2.3,60.421598226605774,
8,14,14,999,0.5,0:10,3,Magenta,None,0,0,1,20:50,./completed_changuitos/montage_iqlqi_109.9_130.85.jpg,right,0,0,0,0,,,,,0,3,3,3,,,,,,,,,0,0,0,0,0,0,0,0,,,,,,,,,,,,,,,,,,,,,,,,,,,,,217.0144754399953,222.3660653949919,222.3660653949919,None,230.4144317929895,230.91349991799507,None,1,230.4144317929895,None,,,,,,,,,,,,,,,,,,,,,,,,,,,,,,,,,,,,,,,,,,,,,,celesteD,001,a,2019_Oct_14_1613,Experimento,3.2.3,60.421598226605774,
8,14,14,999,0.5,0:10,3,Blue,['space'],0,0,1,20:50,./completed_changuitos/montage_iqlqi_109.9_130.85.jpg,right,0,0,0,0,,,,,0,3,3,3,,,,,,,,,0,0,0,0,0,1,1,1,,,,,,,,,,,,,,,,,,,,,,,,,,,,,,,,,232.41462052198767,232.91407457599416,None,0,232.41462052198767,232.41462052198767,,,,,,,,,,,,,,,,,,,,,,,,,,,,,,,,,,,,,,,,,,,,,,celesteD,001,a,2019_Oct_14_1613,Experimento,3.2.3,60.421598226605774,
8,14,14,999,0.5,0:10,3,Cyan,None,0,0,1,20:50,./completed_changuitos/montage_iqlqi_109.9_130.85.jpg,right,0,0,0,0,,,,,0,3,3,3,,,,,,,,,0,0,0,0,0,2,2,2,,,,,,,,,,,,,,,,,,,,,,,,,,,,,,,,,234.41436322798836,234.91458681199583,None,1,234.41436322798836,234.41436322798836,,,,,,,,,,,,,,,,,,,,,,,,,,,,,,,,,,,,,,,,,,,,,,celesteD,001,a,2019_Oct_14_1613,Experimento,3.2.3,60.421598226605774,
8,14,14,999,0.5,0:10,3,Yellow,None,0,0,1,20:50,./completed_changuitos/montage_iqlqi_109.9_130.85.jpg,right,0,0,0,0,,,,,0,3,3,3,,,,,,,,,0,0,0,0,0,3,3,3,,,,,,,,,,,,,,,,,,,,,,,,,,,,,,,,,236.41376653999032,236.91436163699836,None,1,236.41376653999032,236.41376653999032,,,,,,,,,,,,,,,,,,,,,,,,,,,,,,,,,,,,,,,,,,,,,,celesteD,001,a,2019_Oct_14_1613,Experimento,3.2.3,60.421598226605774,
8,14,14,999,0.5,0:10,3,Cyan,None,0,0,1,20:50,./completed_changuitos/montage_iqlqi_109.9_130.85.jpg,right,0,0,0,0,,,,,0,3,3,3,,,,,,,,,0,0,0,0,0,4,4,4,,,,,,,,,,,,,,,,,,,,,,,,,,,,,,,,,238.41523535898887,238.93101522899815,['return'],0,238.41523535898887,238.41523535898887,[0.591698964999523],,,,,,,,,,,,,,,,,,,,,,,,,,,,,,,,,,,,,,,,,,,,,celesteD,001,a,2019_Oct_14_1613,Experimento,3.2.3,60.421598226605774,
8,14,14,999,0.5,0:10,3,Blue,None,0,0,1,20:50,./completed_changuitos/montage_iqlqi_109.9_130.85.jpg,right,0,0,0,0,,,,,0,3,3,3,,,,,,,,,0,0,0,0,0,5,5,5,,,,,,,,,,,,,,,,,,,,,,,,,,,,,,,,,240.43079146799573,240.93075357499765,None,1,240.43079146799573,240.43079146799573,,,,,,,,,,,,,,,,,,,,,,,,,,,,,,,,,,,,,,,,,,,,,,celesteD,001,a,2019_Oct_14_1613,Experimento,3.2.3,60.421598226605774,
8,14,14,999,0.5,0:10,3,Cyan,['space'],0,0,1,20:50,./completed_changuitos/montage_iqlqi_109.9_130.85.jpg,right,0,0,0,0,,,,,0,3,3,3,,,,,,,,,0,0,0,0,0,6,6,6,,,,,,,,,,,,,,,,,,,,,,,,,,,,,,,,,242.43035379899084,242.93084341099893,None,0,242.43035379899084,242.43035379899084,,,,,,,,,,,,,,,,,,,,,,,,,,,,,,,,,,,,,,,,,,,,,,celesteD,001,a,2019_Oct_14_1613,Experimento,3.2.3,60.421598226605774,
8,14,14,999,0.5,0:10,3,Magenta,None,0,0,1,20:50,./completed_changuitos/montage_iqlqi_109.9_130.85.jpg,right,0,0,0,0,,,,,0,3,3,3,,,,,,,,,0,0,0,0,0,7,7,7,,,,,,,,,,,,,,,,,,,,,,,,,,,,,,,,,244.38088748869487,None,None,1,244.38088748869487,None,,,,,,,,,,,,,,,,,,,,,,,,,,,,,,,,,,,,,,,,,,,,,,celesteD,001,a,2019_Oct_14_1613,Experimento,3.2.3,60.421598226605774,
8,14,14,999,0.5,0:10,3,Red,None,0,0,1,20:50,./completed_changuitos/montage_iqlqi_109.9_130.85.jpg,right,0,0,0,0,,,,,0,3,3,3,,,,,,,,,0,0,0,0,0,8,8,8,,,,,,,,,,,,,,,,,,,,,,,,,,,,,,,,,244.38088748869487,None,None,1,244.38088748869487,None,,,,,,,,,,,,,,,,,,,,,,,,,,,,,,,,,,,,,,,,,,,,,,celesteD,001,a,2019_Oct_14_1613,Experimento,3.2.3,60.421598226605774,
8,14,14,999,0.5,0:10,3,Magenta,['space'],0,0,1,20:50,./completed_changuitos/montage_iqlqi_109.9_130.85.jpg,right,0,0,0,0,,,,,0,3,3,3,,,,,,,,,0,0,0,0,0,9,9,9,,,,,,,,,,,,,,,,,,,,,,,,,,,,,,,,,244.38088748869487,None,None,0,244.38088748869487,None,,,,,,,,,,,,,,,,,,,,,,,,,,,,,,,,,,,,,,,,,,,,,,celesteD,001,a,2019_Oct_14_1613,Experimento,3.2.3,60.421598226605774,
8,14,14,999,0.5,0:10,3,Green,None,0,0,1,20:50,./completed_changuitos/montage_iqlqi_109.9_130.85.jpg,right,0,0,0,0,,,,,0,3,3,3,,,,,,,,,0,0,0,0,0,10,10,10,,,,,,,,,,,,,,,,,,,,,,,,,,,,,,,,,244.38088748869487,None,None,1,244.38088748869487,None,,,,,,,,,,,,,,,,,,,,,,,,,,,,,,,,,,,,,,,,,,,,,,celesteD,001,a,2019_Oct_14_1613,Experimento,3.2.3,60.421598226605774,
8,14,14,999,0.5,0:10,3,Yellow,['space'],0,0,1,20:50,./completed_changuitos/montage_iqlqi_109.9_130.85.jpg,right,0,0,0,0,,,,,0,3,3,3,,,,,,,,,0,0,0,0,0,11,11,11,,,,,,,,,,,,,,,,,,,,,,,,,,,,,,,,,244.38088748869487,None,None,0,244.38088748869487,None,,,,,,,,,,,,,,,,,,,,,,,,,,,,,,,,,,,,,,,,,,,,,,celesteD,001,a,2019_Oct_14_1613,Experimento,3.2.3,60.421598226605774,
8,14,14,999,0.5,0:10,3,Blue,None,0,0,1,20:50,./completed_changuitos/montage_iqlqi_109.9_130.85.jpg,right,0,0,0,0,,,,,0,3,3,3,,,,,,,,,0,0,0,0,0,12,12,12,,,,,,,,,,,,,,,,,,,,,,,,,,,,,,,,,244.38088748869487,None,None,1,244.38088748869487,None,,,,,,,,,,,,,,,,,,,,,,,,,,,,,,,,,,,,,,,,,,,,,,celesteD,001,a,2019_Oct_14_1613,Experimento,3.2.3,60.421598226605774,
8,14,14,999,0.5,0:10,3,Cyan,None,0,0,1,20:50,./completed_changuitos/montage_iqlqi_109.9_130.85.jpg,right,0,0,0,0,,,,,0,3,3,3,,,,,,,,,0,0,0,0,0,13,13,13,,,,,,,,,,,,,,,,,,,,,,,,,,,,,,,,,244.38088748869487,None,None,1,244.38088748869487,None,,,,,,,,,,,,,,,,,,,,,,,,,,,,,,,,,,,,,,,,,,,,,,celesteD,001,a,2019_Oct_14_1613,Experimento,3.2.3,60.421598226605774,
8,14,14,999,0.5,0:10,3,Blue,['space'],0,0,1,20:50,./completed_changuitos/montage_iqlqi_109.9_130.85.jpg,right,0,0,0,0,,,,,0,3,3,3,,,,,,,,,0,0,0,0,0,14,14,14,,,,,,,,,,,,,,,,,,,,,,,,,,,,,,,,,244.39744472839521,None,None,0,244.39744472839521,None,,,,,,,,,,,,,,,,,,,,,,,,,,,,,,,,,,,,,,,,,,,,,,celesteD,001,a,2019_Oct_14_1613,Experimento,3.2.3,60.421598226605774,
8,14,14,999,0.5,0:10,3,Yellow,None,0,0,1,20:50,./completed_changuitos/montage_iqlqi_109.9_130.85.jpg,right,0,0,0,0,,,,,0,3,3,3,,,,,,,,,0,0,0,0,0,15,15,15,,,,,,,,,,,,,,,,,,,,,,,,,,,,,,,,,244.39744472839521,None,None,1,244.39744472839521,None,,,,,,,,,,,,,,,,,,,,,,,,,,,,,,,,,,,,,,,,,,,,,,celesteD,001,a,2019_Oct_14_1613,Experimento,3.2.3,60.421598226605774,
8,14,14,999,0.5,0:10,3,Cyan,None,0,0,1,20:50,./completed_changuitos/montage_iqlqi_109.9_130.85.jpg,right,0,0,0,0,,,,,0,3,3,3,,,,,,,,,0,0,0,0,0,16,16,16,,,,,,,,,,,,,,,,,,,,,,,,,,,,,,,,,244.39744472839521,None,None,1,244.39744472839521,None,,,,,,,,,,,,,,,,,,,,,,,,,,,,,,,,,,,,,,,,,,,,,,celesteD,001,a,2019_Oct_14_1613,Experimento,3.2.3,60.421598226605774,
8,14,14,999,0.5,0:10,3,Yellow,['space'],0,0,1,20:50,./completed_changuitos/montage_iqlqi_109.9_130.85.jpg,right,0,0,0,0,,,,,0,3,3,3,,,,,,,,,0,0,0,0,0,17,17,17,,,,,,,,,,,,,,,,,,,,,,,,,,,,,,,,,244.39744472839521,None,None,0,244.39744472839521,None,,,,,,,,,,,,,,,,,,,,,,,,,,,,,,,,,,,,,,,,,,,,,,celesteD,001,a,2019_Oct_14_1613,Experimento,3.2.3,60.421598226605774,
8,14,14,999,0.5,0:10,3,Magenta,None,0,0,1,20:50,./completed_changuitos/montage_iqlqi_109.9_130.85.jpg,right,0,0,0,0,,,,,0,3,3,3,,,,,,,,,0,0,0,0,0,18,18,18,,,,,,,,,,,,,,,,,,,,,,,,,,,,,,,,,244.39744472839521,None,None,1,244.39744472839521,None,,,,,,,,,,,,,,,,,,,,,,,,,,,,,,,,,,,,,,,,,,,,,,celesteD,001,a,2019_Oct_14_1613,Experimento,3.2.3,60.421598226605774,
8,14,14,999,0.5,0:10,3,Red,None,0,0,1,20:50,./completed_changuitos/montage_iqlqi_109.9_130.85.jpg,right,0,0,0,0,,,,,0,3,3,3,,,,,,,,,0,0,0,0,0,19,19,19,,,,,,,,,,,,,,,,,,,,,,,,,,,,,,,,,244.39744472839521,None,None,1,244.39744472839521,None,,,,,,,,,,,,,,,,,,,,,,,,,,,,,,,,,,,,,,,,,,,,,,celesteD,001,a,2019_Oct_14_1613,Experimento,3.2.3,60.421598226605774,
8,14,14,999,0.5,0:10,3,Magenta,['space'],0,0,1,20:50,./completed_changuitos/montage_iqlqi_109.9_130.85.jpg,right,0,0,0,0,,,,,0,3,3,3,,,,,,,,,0,0,0,0,0,20,20,20,,,,,,,,,,,,,,,,,,,,,,,,,,,,,,,,,244.39744472839521,None,None,0,244.39744472839521,None,,,,,,,,,,,,,,,,,,,,,,,,,,,,,,,,,,,,,,,,,,,,,,celesteD,001,a,2019_Oct_14_1613,Experimento,3.2.3,60.421598226605774,
8,14,14,999,0.5,0:10,3,Red,['space'],0,0,1,20:50,./completed_changuitos/montage_iqlqi_109.9_130.85.jpg,right,0,0,0,0,,,,,0,3,3,3,,,,,,,,,0,0,0,0,0,21,21,21,,,,,,,,,,,,,,,,,,,,,,,,,,,,,,,,,244.39744472839521,None,None,0,244.39744472839521,None,,,,,,,,,,,,,,,,,,,,,,,,,,,,,,,,,,,,,,,,,,,,,,celesteD,001,a,2019_Oct_14_1613,Experimento,3.2.3,60.421598226605774,
8,14,14,999,0.5,0:10,3,Yellow,None,0,0,1,20:50,./completed_changuitos/montage_iqlqi_109.9_130.85.jpg,right,0,0,0,0,,,,,0,3,3,3,,,,,,,,,0,0,0,0,0,22,22,22,,,,,,,,,,,,,,,,,,,,,,,,,,,,,,,,,244.39744472839521,None,None,1,244.39744472839521,None,,,,,,,,,,,,,,,,,,,,,,,,,,,,,,,,,,,,,,,,,,,,,,celesteD,001,a,2019_Oct_14_1613,Experimento,3.2.3,60.421598226605774,
8,14,14,999,0.5,0:10,3,Cyan,None,0,0,1,20:50,./completed_changuitos/montage_iqlqi_109.9_130.85.jpg,right,0,0,0,0,,,,,0,3,3,3,,,,,,,,,0,0,0,0,0,23,23,23,,,,,,,,,,,,,,,,,,,,,,,,,,,,,,,,,244.39744472839521,None,None,1,244.39744472839521,None,,,,,,,,,,,,,,,,,,,,,,,,,,,,,,,,,,,,,,,,,,,,,,celesteD,001,a,2019_Oct_14_1613,Experimento,3.2.3,60.421598226605774,
8,14,14,999,0.5,0:10,3,Green,None,0,0,1,20:50,./completed_changuitos/montage_iqlqi_109.9_130.85.jpg,right,0,0,0,0,,,,,0,3,3,3,,,,,,,,,0,0,0,0,0,24,24,24,,,,,,,,,,,,,,,,,,,,,,,,,,,,,,,,,244.39744472839521,None,None,1,244.39744472839521,None,,,,,,,,,,,,,,,,,,,,,,,,,,,,,,,,,,,,,,,,,,,,,,celesteD,001,a,2019_Oct_14_1613,Experimento,3.2.3,60.421598226605774,
8,14,14,999,0.5,0:10,3,White,None,0,0,1,20:50,./completed_changuitos/montage_iqlqi_109.9_130.85.jpg,right,0,0,0,0,,,,,0,3,3,3,,,,,,,,,0,0,0,0,0,25,25,25,,,,,,,,,,,,,,,,,,,,,,,,,,,,,,,,,244.41400196809556,None,None,1,244.41400196809556,None,,,,,,,,,,,,,,,,,,,,,,,,,,,,,,,,,,,,,,,,,,,,,,celesteD,001,a,2019_Oct_14_1613,Experimento,3.2.3,60.421598226605774,
8,14,14,999,0.5,0:10,3,Green,['space'],0,0,1,20:50,./completed_changuitos/montage_iqlqi_109.9_130.85.jpg,right,0,0,0,0,,,,,0,3,3,3,,,,,,,,,0,0,0,0,0,26,26,26,,,,,,,,,,,,,,,,,,,,,,,,,,,,,,,,,244.41400196809556,None,None,0,244.41400196809556,None,,,,,,,,,,,,,,,,,,,,,,,,,,,,,,,,,,,,,,,,,,,,,,celesteD,001,a,2019_Oct_14_1613,Experimento,3.2.3,60.421598226605774,
8,14,14,999,0.5,0:10,3,Red,None,0,0,1,20:50,./completed_changuitos/montage_iqlqi_109.9_130.85.jpg,right,0,0,0,0,,,,,0,3,3,3,,,,,,,,,0,0,0,0,0,27,27,27,,,,,,,,,,,,,,,,,,,,,,,,,,,,,,,,,244.41400196809556,None,None,1,244.41400196809556,None,,,,,,,,,,,,,,,,,,,,,,,,,,,,,,,,,,,,,,,,,,,,,,celesteD,001,a,2019_Oct_14_1613,Experimento,3.2.3,60.421598226605774,
8,14,14,999,0.5,0:10,3,Blue,None,0,0,1,20:50,./completed_changuitos/montage_iqlqi_109.9_130.85.jpg,right,0,0,0,0,,,,,0,3,3,3,,,,,,,,,0,0,0,0,0,28,28,28,,,,,,,,,,,,,,,,,,,,,,,,,,,,,,,,,244.41400196809556,None,None,1,244.41400196809556,None,,,,,,,,,,,,,,,,,,,,,,,,,,,,,,,,,,,,,,,,,,,,,,celesteD,001,a,2019_Oct_14_1613,Experimento,3.2.3,60.421598226605774,
8,14,14,999,0.5,0:10,3,Green,None,0,0,1,20:50,./completed_changuitos/montage_iqlqi_109.9_130.85.jpg,right,0,0,0,0,,,,,0,3,3,3,,,,,,,,,0,0,0,0,0,29,29,29,,,,,,,,,,,,,,,,,,,,,,,,,,,,,,,,,244.41400196809556,None,None,1,244.41400196809556,None,,,,,,,,,,,,,,,,,,,,,,,,,,,,,,,,,,,,,,,,,,,,,,celesteD,001,a,2019_Oct_14_1613,Experimento,3.2.3,60.421598226605774,
8,14,14,999,0.5,0:10,3,,,0,0,1,20:50,./completed_changuitos/montage_iqlqi_109.9_130.85.jpg,right,0,0,0,0,,,,,0,3,3,3,,,,,,,,,0,0,0,0,,,,,,,,,,,,,,,,,,,,,,,,,,,,,,,,,,,,,,,,,,,,244.50211137600127,None,right,1,1.4761272909963736,244.50211137600127,None,244.50211137600127,None,,,,,,,,,,,,,,,,,,,,,,,,,,,,,,,,,,,,celesteD,001,a,2019_Oct_14_1613,Experimento,3.2.3,60.421598226605774,
8,14,14,999,0.5,0:10,3,,,0,0,1,20:50,,,0,0,0,0,,,,,0,3,3,3,,,,,,,,,,,,,,,,,,,,,,,,,,,,,,,,,,,,,,,,,,,,,,,,,,,,,,,,,,,,,,,,,,,,,,,,,,,,,,,,,,,,,,,,,,,,,,,,,,,,celesteD,001,a,2019_Oct_14_1613,Experimento,3.2.3,60.421598226605774,
8,14,14,999,0.5,0:10,3,,,0,1,0,25:50,./completed_changuitos/montage_lpedy_55.65_47.09.jpg,left,0,0,0,0,,,,,0,4,4,4,,,,,0,0,0,0,,,,,,,,,,,,,,,,,,,,,,246.29973867999797,252.85006328798772,252.85006328798772,260.8630454230006,260.8630454230006,274.8630133209954,left,1,0.8783075889950851,274.8630133209954,None,274.8630133209954,None,274.8630133209954,None,,,,,,,,,,,,,,,,,,,,,,,,,,,,,,,,,,,,,,,,,,,,,,,,,,,,,,,,celesteD,001,a,2019_Oct_14_1613,Experimento,3.2.3,60.421598226605774,
8,14,14,999,0.5,0:10,3,,,0,1,0,25:50,,,0,0,0,0,,,,,0,4,4,4,,,,,,,,,,,,,,,,,,,,,,,,,,,,,,,,,,,,,,,,,,,,,,,,,,,,,,,,,,,,,,,,,,,,,,,,,,,,,,,,,,,,,,,,,,,,,,,,,,,,celesteD,001,a,2019_Oct_14_1613,Experimento,3.2.3,60.421598226605774,
8,14,14,999,0.5,0:10,3,Red,None,0,0,1,28:50,./completed_changuitos/montage_glzyd_33.69_29.45.jpg,left,0,0,0,0,,,,,0,5,5,5,,,,,,,,,0,0,0,0,0,0,0,0,,,,,,,,,,,,,,,,,,,,,,,,,,,,,275.99709749499743,276.65014120900014,276.65014120900014,None,284.6965326149948,285.19775303200004,None,1,284.6965326149948,None,,,,,,,,,,,,,,,,,,,,,,,,,,,,,,,,,,,,,,,,,,,,,,celesteD,001,a,2019_Oct_14_1613,Experimento,3.2.3,60.421598226605774,
8,14,14,999,0.5,0:10,3,Magenta,['space'],0,0,1,28:50,./completed_changuitos/montage_glzyd_33.69_29.45.jpg,left,0,0,0,0,,,,,0,5,5,5,,,,,,,,,0,0,0,0,0,1,1,1,,,,,,,,,,,,,,,,,,,,,,,,,,,,,,,,,286.69901060099073,287.21439835098863,None,0,286.69901060099073,286.69901060099073,,,,,,,,,,,,,,,,,,,,,,,,,,,,,,,,,,,,,,,,,,,,,,celesteD,001,a,2019_Oct_14_1613,Experimento,3.2.3,60.421598226605774,
8,14,14,999,0.5,0:10,3,Green,None,0,0,1,28:50,./completed_changuitos/montage_glzyd_33.69_29.45.jpg,left,0,0,0,0,,,,,0,5,5,5,,,,,,,,,0,0,0,0,0,2,2,2,,,,,,,,,,,,,,,,,,,,,,,,,,,,,,,,,288.7145529900008,289.2138075080002,None,1,288.7145529900008,288.7145529900008,,,,,,,,,,,,,,,,,,,,,,,,,,,,,,,,,,,,,,,,,,,,,,celesteD,001,a,2019_Oct_14_1613,Experimento,3.2.3,60.421598226605774,
8,14,14,999,0.5,0:10,3,Yellow,['space'],0,0,1,28:50,./completed_changuitos/montage_glzyd_33.69_29.45.jpg,left,0,0,0,0,,,,,0,5,5,5,,,,,,,,,0,0,0,0,0,3,3,3,,,,,,,,,,,,,,,,,,,,,,,,,,,,,,,,,290.7142286929884,291.2142745729943,None,0,290.7142286929884,290.7142286929884,,,,,,,,,,,,,,,,,,,,,,,,,,,,,,,,,,,,,,,,,,,,,,celesteD,001,a,2019_Oct_14_1613,Experimento,3.2.3,60.421598226605774,
8,14,14,999,0.5,0:10,3,Blue,None,0,0,1,28:50,./completed_changuitos/montage_glzyd_33.69_29.45.jpg,left,0,0,0,0,,,,,0,5,5,5,,,,,,,,,0,0,0,0,0,4,4,4,,,,,,,,,,,,,,,,,,,,,,,,,,,,,,,,,292.71431486499205,293.21421855699737,None,1,292.71431486499205,292.71431486499205,,,,,,,,,,,,,,,,,,,,,,,,,,,,,,,,,,,,,,,,,,,,,,celesteD,001,a,2019_Oct_14_1613,Experimento,3.2.3,60.421598226605774,
8,14,14,999,0.5,0:10,3,Cyan,None,0,0,1,28:50,./completed_changuitos/montage_glzyd_33.69_29.45.jpg,left,0,0,0,0,,,,,0,5,5,5,,,,,,,,,0,0,0,0,0,5,5,5,,,,,,,,,,,,,,,,,,,,,,,,,,,,,,,,,294.71496602999105,295.23075241698825,None,1,294.71496602999105,294.71496602999105,,,,,,,,,,,,,,,,,,,,,,,,,,,,,,,,,,,,,,,,,,,,,,celesteD,001,a,2019_Oct_14_1613,Experimento,3.2.3,60.421598226605774,
8,14,14,999,0.5,0:10,3,Blue,['space'],0,0,1,28:50,./completed_changuitos/montage_glzyd_33.69_29.45.jpg,left,0,0,0,0,,,,,0,5,5,5,,,,,,,,,0,0,0,0,0,6,6,6,,,,,,,,,,,,,,,,,,,,,,,,,,,,,,,,,296.73109683000075,297.2469252539886,['return'],0,296.73109683000075,296.73109683000075,[0.5469418139982736],,,,,,,,,,,,,,,,,,,,,,,,,,,,,,,,,,,,,,,,,,,,,celesteD,001,a,2019_Oct_14_1613,Experimento,3.2.3,60.421598226605774,
8,14,14,999,0.5,0:10,3,Yellow,None,0,0,1,28:50,./completed_changuitos/montage_glzyd_33.69_29.45.jpg,left,0,0,0,0,,,,,0,5,5,5,,,,,,,,,0,0,0,0,0,7,7,7,,,,,,,,,,,,,,,,,,,,,,,,,,,,,,,,,298.6633209776977,None,None,1,298.6633209776977,None,,,,,,,,,,,,,,,,,,,,,,,,,,,,,,,,,,,,,,,,,,,,,,celesteD,001,a,2019_Oct_14_1613,Experimento,3.2.3,60.421598226605774,
8,14,14,999,0.5,0:10,3,Cyan,None,0,0,1,28:50,./completed_changuitos/montage_glzyd_33.69_29.45.jpg,left,0,0,0,0,,,,,0,5,5,5,,,,,,,,,0,0,0,0,0,8,8,8,,,,,,,,,,,,,,,,,,,,,,,,,,,,,,,,,298.6633209776977,None,None,1,298.6633209776977,None,,,,,,,,,,,,,,,,,,,,,,,,,,,,,,,,,,,,,,,,,,,,,,celesteD,001,a,2019_Oct_14_1613,Experimento,3.2.3,60.421598226605774,
8,14,14,999,0.5,0:10,3,Yellow,['space'],0,0,1,28:50,./completed_changuitos/montage_glzyd_33.69_29.45.jpg,left,0,0,0,0,,,,,0,5,5,5,,,,,,,,,0,0,0,0,0,9,9,9,,,,,,,,,,,,,,,,,,,,,,,,,,,,,,,,,298.6633209776977,None,None,0,298.6633209776977,None,,,,,,,,,,,,,,,,,,,,,,,,,,,,,,,,,,,,,,,,,,,,,,celesteD,001,a,2019_Oct_14_1613,Experimento,3.2.3,60.421598226605774,
8,14,14,999,0.5,0:10,3,Magenta,None,0,0,1,28:50,./completed_changuitos/montage_glzyd_33.69_29.45.jpg,left,0,0,0,0,,,,,0,5,5,5,,,,,,,,,0,0,0,0,0,10,10,10,,,,,,,,,,,,,,,,,,,,,,,,,,,,,,,,,298.6633209776977,None,None,1,298.6633209776977,None,,,,,,,,,,,,,,,,,,,,,,,,,,,,,,,,,,,,,,,,,,,,,,celesteD,001,a,2019_Oct_14_1613,Experimento,3.2.3,60.421598226605774,
8,14,14,999,0.5,0:10,3,Red,None,0,0,1,28:50,./completed_changuitos/montage_glzyd_33.69_29.45.jpg,left,0,0,0,0,,,,,0,5,5,5,,,,,,,,,0,0,0,0,0,11,11,11,,,,,,,,,,,,,,,,,,,,,,,,,,,,,,,,,298.6633209776977,None,None,1,298.6633209776977,None,,,,,,,,,,,,,,,,,,,,,,,,,,,,,,,,,,,,,,,,,,,,,,celesteD,001,a,2019_Oct_14_1613,Experimento,3.2.3,60.421598226605774,
8,14,14,999,0.5,0:10,3,Magenta,['space'],0,0,1,28:50,./completed_changuitos/montage_glzyd_33.69_29.45.jpg,left,0,0,0,0,,,,,0,5,5,5,,,,,,,,,0,0,0,0,0,12,12,12,,,,,,,,,,,,,,,,,,,,,,,,,,,,,,,,,298.6633209776977,None,None,0,298.6633209776977,None,,,,,,,,,,,,,,,,,,,,,,,,,,,,,,,,,,,,,,,,,,,,,,celesteD,001,a,2019_Oct_14_1613,Experimento,3.2.3,60.421598226605774,
8,14,14,999,0.5,0:10,3,Red,['space'],0,0,1,28:50,./completed_changuitos/montage_glzyd_33.69_29.45.jpg,left,0,0,0,0,,,,,0,5,5,5,,,,,,,,,0,0,0,0,0,13,13,13,,,,,,,,,,,,,,,,,,,,,,,,,,,,,,,,,298.6633209776977,None,None,0,298.6633209776977,None,,,,,,,,,,,,,,,,,,,,,,,,,,,,,,,,,,,,,,,,,,,,,,celesteD,001,a,2019_Oct_14_1613,Experimento,3.2.3,60.421598226605774,
8,14,14,999,0.5,0:10,3,Yellow,None,0,0,1,28:50,./completed_changuitos/montage_glzyd_33.69_29.45.jpg,left,0,0,0,0,,,,,0,5,5,5,,,,,,,,,0,0,0,0,0,14,14,14,,,,,,,,,,,,,,,,,,,,,,,,,,,,,,,,,298.679878217398,None,None,1,298.679878217398,None,,,,,,,,,,,,,,,,,,,,,,,,,,,,,,,,,,,,,,,,,,,,,,celesteD,001,a,2019_Oct_14_1613,Experimento,3.2.3,60.421598226605774,
8,14,14,999,0.5,0:10,3,Cyan,None,0,0,1,28:50,./completed_changuitos/montage_glzyd_33.69_29.45.jpg,left,0,0,0,0,,,,,0,5,5,5,,,,,,,,,0,0,0,0,0,15,15,15,,,,,,,,,,,,,,,,,,,,,,,,,,,,,,,,,298.679878217398,None,None,1,298.679878217398,None,,,,,,,,,,,,,,,,,,,,,,,,,,,,,,,,,,,,,,,,,,,,,,celesteD,001,a,2019_Oct_14_1613,Experimento,3.2.3,60.421598226605774,
8,14,14,999,0.5,0:10,3,Green,None,0,0,1,28:50,./completed_changuitos/montage_glzyd_33.69_29.45.jpg,left,0,0,0,0,,,,,0,5,5,5,,,,,,,,,0,0,0,0,0,16,16,16,,,,,,,,,,,,,,,,,,,,,,,,,,,,,,,,,298.679878217398,None,None,1,298.679878217398,None,,,,,,,,,,,,,,,,,,,,,,,,,,,,,,,,,,,,,,,,,,,,,,celesteD,001,a,2019_Oct_14_1613,Experimento,3.2.3,60.421598226605774,
8,14,14,999,0.5,0:10,3,White,None,0,0,1,28:50,./completed_changuitos/montage_glzyd_33.69_29.45.jpg,left,0,0,0,0,,,,,0,5,5,5,,,,,,,,,0,0,0,0,0,17,17,17,,,,,,,,,,,,,,,,,,,,,,,,,,,,,,,,,298.679878217398,None,None,1,298.679878217398,None,,,,,,,,,,,,,,,,,,,,,,,,,,,,,,,,,,,,,,,,,,,,,,celesteD,001,a,2019_Oct_14_1613,Experimento,3.2.3,60.421598226605774,
8,14,14,999,0.5,0:10,3,Green,['space'],0,0,1,28:50,./completed_changuitos/montage_glzyd_33.69_29.45.jpg,left,0,0,0,0,,,,,0,5,5,5,,,,,,,,,0,0,0,0,0,18,18,18,,,,,,,,,,,,,,,,,,,,,,,,,,,,,,,,,298.679878217398,None,None,0,298.679878217398,None,,,,,,,,,,,,,,,,,,,,,,,,,,,,,,,,,,,,,,,,,,,,,,celesteD,001,a,2019_Oct_14_1613,Experimento,3.2.3,60.421598226605774,
8,14,14,999,0.5,0:10,3,Red,None,0,0,1,28:50,./completed_changuitos/montage_glzyd_33.69_29.45.jpg,left,0,0,0,0,,,,,0,5,5,5,,,,,,,,,0,0,0,0,0,19,19,19,,,,,,,,,,,,,,,,,,,,,,,,,,,,,,,,,298.679878217398,None,None,1,298.679878217398,None,,,,,,,,,,,,,,,,,,,,,,,,,,,,,,,,,,,,,,,,,,,,,,celesteD,001,a,2019_Oct_14_1613,Experimento,3.2.3,60.421598226605774,
8,14,14,999,0.5,0:10,3,Blue,None,0,0,1,28:50,./completed_changuitos/montage_glzyd_33.69_29.45.jpg,left,0,0,0,0,,,,,0,5,5,5,,,,,,,,,0,0,0,0,0,20,20,20,,,,,,,,,,,,,,,,,,,,,,,,,,,,,,,,,298.679878217398,None,None,1,298.679878217398,None,,,,,,,,,,,,,,,,,,,,,,,,,,,,,,,,,,,,,,,,,,,,,,celesteD,001,a,2019_Oct_14_1613,Experimento,3.2.3,60.421598226605774,
8,14,14,999,0.5,0:10,3,Green,None,0,0,1,28:50,./completed_changuitos/montage_glzyd_33.69_29.45.jpg,left,0,0,0,0,,,,,0,5,5,5,,,,,,,,,0,0,0,0,0,21,21,21,,,,,,,,,,,,,,,,,,,,,,,,,,,,,,,,,298.679878217398,None,None,1,298.679878217398,None,,,,,,,,,,,,,,,,,,,,,,,,,,,,,,,,,,,,,,,,,,,,,,celesteD,001,a,2019_Oct_14_1613,Experimento,3.2.3,60.421598226605774,
8,14,14,999,0.5,0:10,3,,,0,0,1,28:50,./completed_changuitos/montage_glzyd_33.69_29.45.jpg,left,0,0,0,0,,,,,0,5,5,5,,,,,,,,,0,0,0,0,,,,,,,,,,,,,,,,,,,,,,,,,,,,,,,,,,,,,,,,,,,,298.78095676099474,None,right,0,1.9937696300039534,298.78095676099474,None,298.78095676099474,None,,,,,,,,,,,,,,,,,,,,,,,,,,,,,,,,,,,,celesteD,001,a,2019_Oct_14_1613,Experimento,3.2.3,60.421598226605774,
8,14,14,999,0.5,0:10,3,,,0,0,1,28:50,,,0,0,0,0,,,,,0,5,5,5,,,,,,,,,,,,,,,,,,,,,,,,,,,,,,,,,,,,,,,,,,,,,,,,,,,,,,,,,,,,,,,,,,,,,,,,,,,,,,,,,,,,,,,,,,,,,,,,,,,,celesteD,001,a,2019_Oct_14_1613,Experimento,3.2.3,60.421598226605774,
8,14,14,999,0.5,0:10,3,,,0,1,0,10:50,./completed_changuitos/montage_vppqm_176.55_202.25.jpg,right,0,0,0,0,,,,,0,6,6,6,,,,,0,0,0,0,,,,,,,,,,,,,,,,,,,,,,301.06542421199265,302.0672242199944,302.0672242199944,310.079019605997,310.079019605997,324.07885126498877,right,1,3.0598970339924563,324.07885126498877,None,324.07885126498877,None,324.07885126498877,327.07933858499746,,,,,,,,,,,,,,,,,,,,,,,,,,,,,,,,,,,,,,,,,,,,,,,,,,,,,,,,celesteD,001,a,2019_Oct_14_1613,Experimento,3.2.3,60.421598226605774,
8,14,14,999,0.5,0:10,3,,,0,1,0,10:50,,,0,0,0,0,,,,,0,6,6,6,,,,,,,,,,,,,,,,,,,,,,,,,,,,,,,,,,,,,,,,,,,,,,,,,,,,,,,,,,,,,,,,,,,,,,,,,,,,,,,,,,,,,,,,,,,,,,,,,,,,celesteD,001,a,2019_Oct_14_1613,Experimento,3.2.3,60.421598226605774,
8,14,14,999,0.5,0:10,3,Yellow,None,0,0,1,15:50,./completed_changuitos/montage_hzpyp_56.7_64.19.jpg,right,0,0,0,0,,,,,0,7,7,7,,,,,,,,,0,0,0,0,0,0,0,0,,,,,,,,,,,,,,,,,,,,,,,,,,,,,327.3971724639996,328.66536718398856,328.66536718398856,None,336.71216147299856,337.2130475689919,None,1,336.71216147299856,None,,,,,,,,,,,,,,,,,,,,,,,,,,,,,,,,,,,,,,,,,,,,,,celesteD,001,a,2019_Oct_14_1613,Experimento,3.2.3,60.421598226605774,
8,14,14,999,0.5,0:10,3,White,['space'],0,0,1,15:50,./completed_changuitos/montage_hzpyp_56.7_64.19.jpg,right,0,0,0,0,,,,,0,7,7,7,,,,,,,,,0,0,0,0,0,1,1,1,,,,,,,,,,,,,,,,,,,,,,,,,,,,,,,,,338.7131859029905,339.21296029198857,None,0,338.7131859029905,338.7131859029905,,,,,,,,,,,,,,,,,,,,,,,,,,,,,,,,,,,,,,,,,,,,,,celesteD,001,a,2019_Oct_14_1613,Experimento,3.2.3,60.421598226605774,
8,14,14,999,0.5,0:10,3,Magenta,None,0,0,1,15:50,./completed_changuitos/montage_hzpyp_56.7_64.19.jpg,right,0,0,0,0,,,,,0,7,7,7,,,,,,,,,0,0,0,0,0,2,2,2,,,,,,,,,,,,,,,,,,,,,,,,,,,,,,,,,340.71279560099356,341.2130308249907,None,1,340.71279560099356,340.71279560099356,,,,,,,,,,,,,,,,,,,,,,,,,,,,,,,,,,,,,,,,,,,,,,celesteD,001,a,2019_Oct_14_1613,Experimento,3.2.3,60.421598226605774,
8,14,14,999,0.5,0:10,3,Cyan,None,0,0,1,15:50,./completed_changuitos/montage_hzpyp_56.7_64.19.jpg,right,0,0,0,0,,,,,0,7,7,7,,,,,,,,,0,0,0,0,0,3,3,3,,,,,,,,,,,,,,,,,,,,,,,,,,,,,,,,,342.7129935279954,343.2127932579897,None,1,342.7129935279954,342.7129935279954,,,,,,,,,,,,,,,,,,,,,,,,,,,,,,,,,,,,,,,,,,,,,,celesteD,001,a,2019_Oct_14_1613,Experimento,3.2.3,60.421598226605774,
8,14,14,999,0.5,0:10,3,Blue,None,0,0,1,15:50,./completed_changuitos/montage_hzpyp_56.7_64.19.jpg,right,0,0,0,0,,,,,0,7,7,7,,,,,,,,,0,0,0,0,0,4,4,4,,,,,,,,,,,,,,,,,,,,,,,,,,,,,,,,,344.7130983389943,345.21230394099257,None,1,344.7130983389943,344.7130983389943,,,,,,,,,,,,,,,,,,,,,,,,,,,,,,,,,,,,,,,,,,,,,,celesteD,001,a,2019_Oct_14_1613,Experimento,3.2.3,60.421598226605774,
8,14,14,999,0.5,0:10,3,Magenta,None,0,0,1,15:50,./completed_changuitos/montage_hzpyp_56.7_64.19.jpg,right,0,0,0,0,,,,,0,7,7,7,,,,,,,,,0,0,0,0,0,5,5,5,,,,,,,,,,,,,,,,,,,,,,,,,,,,,,,,,346.7126692819875,347.21296987499227,None,1,346.7126692819875,346.7126692819875,,,,,,,,,,,,,,,,,,,,,,,,,,,,,,,,,,,,,,,,,,,,,,celesteD,001,a,2019_Oct_14_1613,Experimento,3.2.3,60.421598226605774,
8,14,14,999,0.5,0:10,3,Blue,['space'],0,0,1,15:50,./completed_changuitos/montage_hzpyp_56.7_64.19.jpg,right,0,0,0,0,,,,,0,7,7,7,,,,,,,,,0,0,0,0,0,6,6,6,,,,,,,,,,,,,,,,,,,,,,,,,,,,,,,,,348.7129526310018,349.21280374299386,['return'],0,348.7129526310018,348.7129526310018,[0.4398393519950332],,,,,,,,,,,,,,,,,,,,,,,,,,,,,,,,,,,,,,,,,,,,,celesteD,001,a,2019_Oct_14_1613,Experimento,3.2.3,60.421598226605774,
8,14,14,999,0.5,0:10,3,Cyan,None,0,0,1,15:50,./completed_changuitos/montage_hzpyp_56.7_64.19.jpg,right,0,0,0,0,,,,,0,7,7,7,,,,,,,,,0,0,0,0,0,7,7,7,,,,,,,,,,,,,,,,,,,,,,,,,,,,,,,,,350.6793259967002,None,None,1,350.6793259967002,None,,,,,,,,,,,,,,,,,,,,,,,,,,,,,,,,,,,,,,,,,,,,,,celesteD,001,a,2019_Oct_14_1613,Experimento,3.2.3,60.421598226605774,
8,14,14,999,0.5,0:10,3,Yellow,None,0,0,1,15:50,./completed_changuitos/montage_hzpyp_56.7_64.19.jpg,right,0,0,0,0,,,,,0,7,7,7,,,,,,,,,0,0,0,0,0,8,8,8,,,,,,,,,,,,,,,,,,,,,,,,,,,,,,,,,350.6793259967002,None,None,1,350.6793259967002,None,,,,,,,,,,,,,,,,,,,,,,,,,,,,,,,,,,,,,,,,,,,,,,celesteD,001,a,2019_Oct_14_1613,Experimento,3.2.3,60.421598226605774,
8,14,14,999,0.5,0:10,3,Cyan,None,0,0,1,15:50,./completed_changuitos/montage_hzpyp_56.7_64.19.jpg,right,0,0,0,0,,,,,0,7,7,7,,,,,,,,,0,0,0,0,0,9,9,9,,,,,,,,,,,,,,,,,,,,,,,,,,,,,,,,,350.6793259967002,None,None,1,350.6793259967002,None,,,,,,,,,,,,,,,,,,,,,,,,,,,,,,,,,,,,,,,,,,,,,,celesteD,001,a,2019_Oct_14_1613,Experimento,3.2.3,60.421598226605774,
8,14,14,999,0.5,0:10,3,Blue,None,0,0,1,15:50,./completed_changuitos/montage_hzpyp_56.7_64.19.jpg,right,0,0,0,0,,,,,0,7,7,7,,,,,,,,,0,0,0,0,0,10,10,10,,,,,,,,,,,,,,,,,,,,,,,,,,,,,,,,,350.6793259967002,None,None,1,350.6793259967002,None,,,,,,,,,,,,,,,,,,,,,,,,,,,,,,,,,,,,,,,,,,,,,,celesteD,001,a,2019_Oct_14_1613,Experimento,3.2.3,60.421598226605774,
8,14,14,999,0.5,0:10,3,Cyan,['space'],0,0,1,15:50,./completed_changuitos/montage_hzpyp_56.7_64.19.jpg,right,0,0,0,0,,,,,0,7,7,7,,,,,,,,,0,0,0,0,0,11,11,11,,,,,,,,,,,,,,,,,,,,,,,,,,,,,,,,,350.6793259967002,None,None,0,350.6793259967002,None,,,,,,,,,,,,,,,,,,,,,,,,,,,,,,,,,,,,,,,,,,,,,,celesteD,001,a,2019_Oct_14_1613,Experimento,3.2.3,60.421598226605774,
8,14,14,999,0.5,0:10,3,Magenta,None,0,0,1,15:50,./completed_changuitos/montage_hzpyp_56.7_64.19.jpg,right,0,0,0,0,,,,,0,7,7,7,,,,,,,,,0,0,0,0,0,12,12,12,,,,,,,,,,,,,,,,,,,,,,,,,,,,,,,,,350.6793259967002,None,None,1,350.6793259967002,None,,,,,,,,,,,,,,,,,,,,,,,,,,,,,,,,,,,,,,,,,,,,,,celesteD,001,a,2019_Oct_14_1613,Experimento,3.2.3,60.421598226605774,
8,14,14,999,0.5,0:10,3,Red,None,0,0,1,15:50,./completed_changuitos/montage_hzpyp_56.7_64.19.jpg,right,0,0,0,0,,,,,0,7,7,7,,,,,,,,,0,0,0,0,0,13,13,13,,,,,,,,,,,,,,,,,,,,,,,,,,,,,,,,,350.6793259967002,None,None,1,350.6793259967002,None,,,,,,,,,,,,,,,,,,,,,,,,,,,,,,,,,,,,,,,,,,,,,,celesteD,001,a,2019_Oct_14_1613,Experimento,3.2.3,60.421598226605774,
8,14,14,999,0.5,0:10,3,Magenta,['space'],0,0,1,15:50,./completed_changuitos/montage_hzpyp_56.7_64.19.jpg,right,0,0,0,0,,,,,0,7,7,7,,,,,,,,,0,0,0,0,0,14,14,14,,,,,,,,,,,,,,,,,,,,,,,,,,,,,,,,,350.6958832364005,None,None,0,350.6958832364005,None,,,,,,,,,,,,,,,,,,,,,,,,,,,,,,,,,,,,,,,,,,,,,,celesteD,001,a,2019_Oct_14_1613,Experimento,3.2.3,60.421598226605774,
8,14,14,999,0.5,0:10,3,Green,None,0,0,1,15:50,./completed_changuitos/montage_hzpyp_56.7_64.19.jpg,right,0,0,0,0,,,,,0,7,7,7,,,,,,,,,0,0,0,0,0,15,15,15,,,,,,,,,,,,,,,,,,,,,,,,,,,,,,,,,350.6958832364005,None,None,1,350.6958832364005,None,,,,,,,,,,,,,,,,,,,,,,,,,,,,,,,,,,,,,,,,,,,,,,celesteD,001,a,2019_Oct_14_1613,Experimento,3.2.3,60.421598226605774,
8,14,14,999,0.5,0:10,3,Yellow,['space'],0,0,1,15:50,./completed_changuitos/montage_hzpyp_56.7_64.19.jpg,right,0,0,0,0,,,,,0,7,7,7,,,,,,,,,0,0,0,0,0,16,16,16,,,,,,,,,,,,,,,,,,,,,,,,,,,,,,,,,350.6958832364005,None,None,0,350.6958832364005,None,,,,,,,,,,,,,,,,,,,,,,,,,,,,,,,,,,,,,,,,,,,,,,celesteD,001,a,2019_Oct_14_1613,Experimento,3.2.3,60.421598226605774,
8,14,14,999,0.5,0:10,3,Blue,None,0,0,1,15:50,./completed_changuitos/montage_hzpyp_56.7_64.19.jpg,right,0,0,0,0,,,,,0,7,7,7,,,,,,,,,0,0,0,0,0,17,17,17,,,,,,,,,,,,,,,,,,,,,,,,,,,,,,,,,350.6958832364005,None,None,1,350.6958832364005,None,,,,,,,,,,,,,,,,,,,,,,,,,,,,,,,,,,,,,,,,,,,,,,celesteD,001,a,2019_Oct_14_1613,Experimento,3.2.3,60.421598226605774,
8,14,14,999,0.5,0:10,3,Cyan,None,0,0,1,15:50,./completed_changuitos/montage_hzpyp_56.7_64.19.jpg,right,0,0,0,0,,,,,0,7,7,7,,,,,,,,,0,0,0,0,0,18,18,18,,,,,,,,,,,,,,,,,,,,,,,,,,,,,,,,,350.6958832364005,None,None,1,350.6958832364005,None,,,,,,,,,,,,,,,,,,,,,,,,,,,,,,,,,,,,,,,,,,,,,,celesteD,001,a,2019_Oct_14_1613,Experimento,3.2.3,60.421598226605774,
8,14,14,999,0.5,0:10,3,Blue,['space'],0,0,1,15:50,./completed_changuitos/montage_hzpyp_56.7_64.19.jpg,right,0,0,0,0,,,,,0,7,7,7,,,,,,,,,0,0,0,0,0,19,19,19,,,,,,,,,,,,,,,,,,,,,,,,,,,,,,,,,350.6958832364005,None,None,0,350.6958832364005,None,,,,,,,,,,,,,,,,,,,,,,,,,,,,,,,,,,,,,,,,,,,,,,celesteD,001,a,2019_Oct_14_1613,Experimento,3.2.3,60.421598226605774,
8,14,14,999,0.5,0:10,3,Yellow,None,0,0,1,15:50,./completed_changuitos/montage_hzpyp_56.7_64.19.jpg,right,0,0,0,0,,,,,0,7,7,7,,,,,,,,,0,0,0,0,0,20,20,20,,,,,,,,,,,,,,,,,,,,,,,,,,,,,,,,,350.6958832364005,None,None,1,350.6958832364005,None,,,,,,,,,,,,,,,,,,,,,,,,,,,,,,,,,,,,,,,,,,,,,,celesteD,001,a,2019_Oct_14_1613,Experimento,3.2.3,60.421598226605774,
8,14,14,999,0.5,0:10,3,Cyan,None,0,0,1,15:50,./completed_changuitos/montage_hzpyp_56.7_64.19.jpg,right,0,0,0,0,,,,,0,7,7,7,,,,,,,,,0,0,0,0,0,21,21,21,,,,,,,,,,,,,,,,,,,,,,,,,,,,,,,,,350.6958832364005,None,None,1,350.6958832364005,None,,,,,,,,,,,,,,,,,,,,,,,,,,,,,,,,,,,,,,,,,,,,,,celesteD,001,a,2019_Oct_14_1613,Experimento,3.2.3,60.421598226605774,
8,14,14,999,0.5,0:10,3,Yellow,['space'],0,0,1,15:50,./completed_changuitos/montage_hzpyp_56.7_64.19.jpg,right,0,0,0,0,,,,,0,7,7,7,,,,,,,,,0,0,0,0,0,22,22,22,,,,,,,,,,,,,,,,,,,,,,,,,,,,,,,,,350.6958832364005,None,None,0,350.6958832364005,None,,,,,,,,,,,,,,,,,,,,,,,,,,,,,,,,,,,,,,,,,,,,,,celesteD,001,a,2019_Oct_14_1613,Experimento,3.2.3,60.421598226605774,
8,14,14,999,0.5,0:10,3,Magenta,None,0,0,1,15:50,./completed_changuitos/montage_hzpyp_56.7_64.19.jpg,right,0,0,0,0,,,,,0,7,7,7,,,,,,,,,0,0,0,0,0,23,23,23,,,,,,,,,,,,,,,,,,,,,,,,,,,,,,,,,350.6958832364005,None,None,1,350.6958832364005,None,,,,,,,,,,,,,,,,,,,,,,,,,,,,,,,,,,,,,,,,,,,,,,celesteD,001,a,2019_Oct_14_1613,Experimento,3.2.3,60.421598226605774,
8,14,14,999,0.5,0:10,3,Red,None,0,0,1,15:50,./completed_changuitos/montage_hzpyp_56.7_64.19.jpg,right,0,0,0,0,,,,,0,7,7,7,,,,,,,,,0,0,0,0,0,24,24,24,,,,,,,,,,,,,,,,,,,,,,,,,,,,,,,,,350.6958832364005,None,None,1,350.6958832364005,None,,,,,,,,,,,,,,,,,,,,,,,,,,,,,,,,,,,,,,,,,,,,,,celesteD,001,a,2019_Oct_14_1613,Experimento,3.2.3,60.421598226605774,
8,14,14,999,0.5,0:10,3,Magenta,['space'],0,0,1,15:50,./completed_changuitos/montage_hzpyp_56.7_64.19.jpg,right,0,0,0,0,,,,,0,7,7,7,,,,,,,,,0,0,0,0,0,25,25,25,,,,,,,,,,,,,,,,,,,,,,,,,,,,,,,,,350.7124404761009,None,None,0,350.7124404761009,None,,,,,,,,,,,,,,,,,,,,,,,,,,,,,,,,,,,,,,,,,,,,,,celesteD,001,a,2019_Oct_14_1613,Experimento,3.2.3,60.421598226605774,
8,14,14,999,0.5,0:10,3,Red,['space'],0,0,1,15:50,./completed_changuitos/montage_hzpyp_56.7_64.19.jpg,right,0,0,0,0,,,,,0,7,7,7,,,,,,,,,0,0,0,0,0,26,26,26,,,,,,,,,,,,,,,,,,,,,,,,,,,,,,,,,350.7124404761009,None,None,0,350.7124404761009,None,,,,,,,,,,,,,,,,,,,,,,,,,,,,,,,,,,,,,,,,,,,,,,celesteD,001,a,2019_Oct_14_1613,Experimento,3.2.3,60.421598226605774,
8,14,14,999,0.5,0:10,3,Yellow,None,0,0,1,15:50,./completed_changuitos/montage_hzpyp_56.7_64.19.jpg,right,0,0,0,0,,,,,0,7,7,7,,,,,,,,,0,0,0,0,0,27,27,27,,,,,,,,,,,,,,,,,,,,,,,,,,,,,,,,,350.7124404761009,None,None,1,350.7124404761009,None,,,,,,,,,,,,,,,,,,,,,,,,,,,,,,,,,,,,,,,,,,,,,,celesteD,001,a,2019_Oct_14_1613,Experimento,3.2.3,60.421598226605774,
8,14,14,999,0.5,0:10,3,Cyan,None,0,0,1,15:50,./completed_changuitos/montage_hzpyp_56.7_64.19.jpg,right,0,0,0,0,,,,,0,7,7,7,,,,,,,,,0,0,0,0,0,28,28,28,,,,,,,,,,,,,,,,,,,,,,,,,,,,,,,,,350.7124404761009,None,None,1,350.7124404761009,None,,,,,,,,,,,,,,,,,,,,,,,,,,,,,,,,,,,,,,,,,,,,,,celesteD,001,a,2019_Oct_14_1613,Experimento,3.2.3,60.421598226605774,
8,14,14,999,0.5,0:10,3,Green,None,0,0,1,15:50,./completed_changuitos/montage_hzpyp_56.7_64.19.jpg,right,0,0,0,0,,,,,0,7,7,7,,,,,,,,,0,0,0,0,0,29,29,29,,,,,,,,,,,,,,,,,,,,,,,,,,,,,,,,,350.7124404761009,None,None,1,350.7124404761009,None,,,,,,,,,,,,,,,,,,,,,,,,,,,,,,,,,,,,,,,,,,,,,,celesteD,001,a,2019_Oct_14_1613,Experimento,3.2.3,60.421598226605774,
8,14,14,999,0.5,0:10,3,White,None,0,0,1,15:50,./completed_changuitos/montage_hzpyp_56.7_64.19.jpg,right,0,0,0,0,,,,,0,7,7,7,,,,,,,,,0,0,0,0,0,30,30,30,,,,,,,,,,,,,,,,,,,,,,,,,,,,,,,,,350.7124404761009,None,None,1,350.7124404761009,None,,,,,,,,,,,,,,,,,,,,,,,,,,,,,,,,,,,,,,,,,,,,,,celesteD,001,a,2019_Oct_14_1613,Experimento,3.2.3,60.421598226605774,
8,14,14,999,0.5,0:10,3,Green,['space'],0,0,1,15:50,./completed_changuitos/montage_hzpyp_56.7_64.19.jpg,right,0,0,0,0,,,,,0,7,7,7,,,,,,,,,0,0,0,0,0,31,31,31,,,,,,,,,,,,,,,,,,,,,,,,,,,,,,,,,350.7124404761009,None,None,0,350.7124404761009,None,,,,,,,,,,,,,,,,,,,,,,,,,,,,,,,,,,,,,,,,,,,,,,celesteD,001,a,2019_Oct_14_1613,Experimento,3.2.3,60.421598226605774,
8,14,14,999,0.5,0:10,3,Red,None,0,0,1,15:50,./completed_changuitos/montage_hzpyp_56.7_64.19.jpg,right,0,0,0,0,,,,,0,7,7,7,,,,,,,,,0,0,0,0,0,32,32,32,,,,,,,,,,,,,,,,,,,,,,,,,,,,,,,,,350.7124404761009,None,None,1,350.7124404761009,None,,,,,,,,,,,,,,,,,,,,,,,,,,,,,,,,,,,,,,,,,,,,,,celesteD,001,a,2019_Oct_14_1613,Experimento,3.2.3,60.421598226605774,
8,14,14,999,0.5,0:10,3,Blue,None,0,0,1,15:50,./completed_changuitos/montage_hzpyp_56.7_64.19.jpg,right,0,0,0,0,,,,,0,7,7,7,,,,,,,,,0,0,0,0,0,33,33,33,,,,,,,,,,,,,,,,,,,,,,,,,,,,,,,,,350.7124404761009,None,None,1,350.7124404761009,None,,,,,,,,,,,,,,,,,,,,,,,,,,,,,,,,,,,,,,,,,,,,,,celesteD,001,a,2019_Oct_14_1613,Experimento,3.2.3,60.421598226605774,
8,14,14,999,0.5,0:10,3,Green,None,0,0,1,15:50,./completed_changuitos/montage_hzpyp_56.7_64.19.jpg,right,0,0,0,0,,,,,0,7,7,7,,,,,,,,,0,0,0,0,0,34,34,34,,,,,,,,,,,,,,,,,,,,,,,,,,,,,,,,,350.7124404761009,None,None,1,350.7124404761009,None,,,,,,,,,,,,,,,,,,,,,,,,,,,,,,,,,,,,,,,,,,,,,,celesteD,001,a,2019_Oct_14_1613,Experimento,3.2.3,60.421598226605774,
8,14,14,999,0.5,0:10,3,,,0,0,1,15:50,./completed_changuitos/montage_hzpyp_56.7_64.19.jpg,right,0,0,0,0,,,,,0,7,7,7,,,,,,,,,0,0,0,0,,,,,,,,,,,,,,,,,,,,,,,,,,,,,,,,,,,,,,,,,,,,350.81358343899774,None,left,0,1.3503281489975052,350.81358343899774,None,350.81358343899774,None,,,,,,,,,,,,,,,,,,,,,,,,,,,,,,,,,,,,celesteD,001,a,2019_Oct_14_1613,Experimento,3.2.3,60.421598226605774,
8,14,14,999,0.5,0:10,3,,,0,0,1,15:50,,,0,0,0,0,,,,,0,7,7,7,,,,,,,,,,,,,,,,,,,,,,,,,,,,,,,,,,,,,,,,,,,,,,,,,,,,,,,,,,,,,,,,,,,,,,,,,,,,,,,,,,,,,,,,,,,,,,,,,,,,celesteD,001,a,2019_Oct_14_1613,Experimento,3.2.3,60.421598226605774,
8,14,14,999,0.5,0:10,3,,,0,1,0,19:50,./completed_changuitos/montage_gtfmt_171.19_150.89.jpg,left,0,0,0,0,,,,,0,8,8,8,,,,,0,0,0,0,,,,,,,,,,,,,,,,,,,,,,352.4681968639925,353.4649882619997,353.4649882619997,361.47856494699954,361.47856494699954,375.47813454399875,right,0,2.649566121996031,375.47813454399875,None,375.47813454399875,None,375.47813454399875,None,,,,,,,,,,,,,,,,,,,,,,,,,,,,,,,,,,,,,,,,,,,,,,,,,,,,,,,,celesteD,001,a,2019_Oct_14_1613,Experimento,3.2.3,60.421598226605774,
8,14,14,999,0.5,0:10,3,,,0,1,0,19:50,,,0,0,0,0,,,,,0,8,8,8,,,,,,,,,,,,,,,,,,,,,,,,,,,,,,,,,,,,,,,,,,,,,,,,,,,,,,,,,,,,,,,,,,,,,,,,,,,,,,,,,,,,,,,,,,,,,,,,,,,,celesteD,001,a,2019_Oct_14_1613,Experimento,3.2.3,60.421598226605774,
8,14,14,999,0.5,0:10,3,Magenta,None,0,0,1,20:50,./completed_changuitos/montage_cnwoz_63.15_55.65.jpg,left,0,0,0,0,,,,,0,9,9,9,,,,,,,,,0,0,0,0,0,0,0,0,,,,,,,,,,,,,,,,,,,,,,,,,,,,,378.37934187699284,378.88220022499445,378.88220022499445,None,386.9130903309997,387.4123279579944,None,1,386.9130903309997,None,,,,,,,,,,,,,,,,,,,,,,,,,,,,,,,,,,,,,,,,,,,,,,celesteD,001,a,2019_Oct_14_1613,Experimento,3.2.3,60.421598226605774,
8,14,14,999,0.5,0:10,3,Blue,['space'],0,0,1,20:50,./completed_changuitos/montage_cnwoz_63.15_55.65.jpg,left,0,0,0,0,,,,,0,9,9,9,,,,,,,,,0,0,0,0,0,1,1,1,,,,,,,,,,,,,,,,,,,,,,,,,,,,,,,,,388.92912304100173,389.42918737798755,None,0,388.92912304100173,388.92912304100173,,,,,,,,,,,,,,,,,,,,,,,,,,,,,,,,,,,,,,,,,,,,,,celesteD,001,a,2019_Oct_14_1613,Experimento,3.2.3,60.421598226605774,
8,14,14,999,0.5,0:10,3,Cyan,None,0,0,1,20:50,./completed_changuitos/montage_cnwoz_63.15_55.65.jpg,left,0,0,0,0,,,,,0,9,9,9,,,,,,,,,0,0,0,0,0,2,2,2,,,,,,,,,,,,,,,,,,,,,,,,,,,,,,,,,390.92905125899415,391.4288746039965,None,1,390.92905125899415,390.92905125899415,,,,,,,,,,,,,,,,,,,,,,,,,,,,,,,,,,,,,,,,,,,,,,celesteD,001,a,2019_Oct_14_1613,Experimento,3.2.3,60.421598226605774,
8,14,14,999,0.5,0:10,3,Yellow,None,0,0,1,20:50,./completed_changuitos/montage_cnwoz_63.15_55.65.jpg,left,0,0,0,0,,,,,0,9,9,9,,,,,,,,,0,0,0,0,0,3,3,3,,,,,,,,,,,,,,,,,,,,,,,,,,,,,,,,,392.92872254199756,393.4288716759911,None,1,392.92872254199756,392.92872254199756,,,,,,,,,,,,,,,,,,,,,,,,,,,,,,,,,,,,,,,,,,,,,,celesteD,001,a,2019_Oct_14_1613,Experimento,3.2.3,60.421598226605774,
8,14,14,999,0.5,0:10,3,Cyan,None,0,0,1,20:50,./completed_changuitos/montage_cnwoz_63.15_55.65.jpg,left,0,0,0,0,,,,,0,9,9,9,,,,,,,,,0,0,0,0,0,4,4,4,,,,,,,,,,,,,,,,,,,,,,,,,,,,,,,,,394.92901201799395,395.42897224899207,['return'],0,394.92901201799395,394.92901201799395,[0.36712557000282686],,,,,,,,,,,,,,,,,,,,,,,,,,,,,,,,,,,,,,,,,,,,,celesteD,001,a,2019_Oct_14_1613,Experimento,3.2.3,60.421598226605774,
8,14,14,999,0.5,0:10,3,Blue,None,0,0,1,20:50,./completed_changuitos/montage_cnwoz_63.15_55.65.jpg,left,0,0,0,0,,,,,0,9,9,9,,,,,,,,,0,0,0,0,0,5,5,5,,,,,,,,,,,,,,,,,,,,,,,,,,,,,,,,,396.9300871939922,397.4450047309947,None,1,396.9300871939922,396.9300871939922,,,,,,,,,,,,,,,,,,,,,,,,,,,,,,,,,,,,,,,,,,,,,,celesteD,001,a,2019_Oct_14_1613,Experimento,3.2.3,60.421598226605774,
8,14,14,999,0.5,0:10,3,Cyan,['space'],0,0,1,20:50,./completed_changuitos/montage_cnwoz_63.15_55.65.jpg,left,0,0,0,0,,,,,0,9,9,9,,,,,,,,,0,0,0,0,0,6,6,6,,,,,,,,,,,,,,,,,,,,,,,,,,,,,,,,,398.9456815769954,399.4455845429911,None,0,398.9456815769954,398.9456815769954,,,,,,,,,,,,,,,,,,,,,,,,,,,,,,,,,,,,,,,,,,,,,,celesteD,001,a,2019_Oct_14_1613,Experimento,3.2.3,60.421598226605774,
8,14,14,999,0.5,0:10,3,Magenta,None,0,0,1,20:50,./completed_changuitos/montage_cnwoz_63.15_55.65.jpg,left,0,0,0,0,,,,,0,9,9,9,,,,,,,,,0,0,0,0,0,7,7,7,,,,,,,,,,,,,,,,,,,,,,,,,,,,,,,,,400.89547722269197,None,None,1,400.89547722269197,None,,,,,,,,,,,,,,,,,,,,,,,,,,,,,,,,,,,,,,,,,,,,,,celesteD,001,a,2019_Oct_14_1613,Experimento,3.2.3,60.421598226605774,
8,14,14,999,0.5,0:10,3,Red,None,0,0,1,20:50,./completed_changuitos/montage_cnwoz_63.15_55.65.jpg,left,0,0,0,0,,,,,0,9,9,9,,,,,,,,,0,0,0,0,0,8,8,8,,,,,,,,,,,,,,,,,,,,,,,,,,,,,,,,,400.89547722269197,None,None,1,400.89547722269197,None,,,,,,,,,,,,,,,,,,,,,,,,,,,,,,,,,,,,,,,,,,,,,,celesteD,001,a,2019_Oct_14_1613,Experimento,3.2.3,60.421598226605774,
8,14,14,999,0.5,0:10,3,Magenta,['space'],0,0,1,20:50,./completed_changuitos/montage_cnwoz_63.15_55.65.jpg,left,0,0,0,0,,,,,0,9,9,9,,,,,,,,,0,0,0,0,0,9,9,9,,,,,,,,,,,,,,,,,,,,,,,,,,,,,,,,,400.89547722269197,None,None,0,400.89547722269197,None,,,,,,,,,,,,,,,,,,,,,,,,,,,,,,,,,,,,,,,,,,,,,,celesteD,001,a,2019_Oct_14_1613,Experimento,3.2.3,60.421598226605774,
8,14,14,999,0.5,0:10,3,Green,None,0,0,1,20:50,./completed_changuitos/montage_cnwoz_63.15_55.65.jpg,left,0,0,0,0,,,,,0,9,9,9,,,,,,,,,0,0,0,0,0,10,10,10,,,,,,,,,,,,,,,,,,,,,,,,,,,,,,,,,400.89547722269197,None,None,1,400.89547722269197,None,,,,,,,,,,,,,,,,,,,,,,,,,,,,,,,,,,,,,,,,,,,,,,celesteD,001,a,2019_Oct_14_1613,Experimento,3.2.3,60.421598226605774,
8,14,14,999,0.5,0:10,3,Yellow,['space'],0,0,1,20:50,./completed_changuitos/montage_cnwoz_63.15_55.65.jpg,left,0,0,0,0,,,,,0,9,9,9,,,,,,,,,0,0,0,0,0,11,11,11,,,,,,,,,,,,,,,,,,,,,,,,,,,,,,,,,400.89547722269197,None,None,0,400.89547722269197,None,,,,,,,,,,,,,,,,,,,,,,,,,,,,,,,,,,,,,,,,,,,,,,celesteD,001,a,2019_Oct_14_1613,Experimento,3.2.3,60.421598226605774,
8,14,14,999,0.5,0:10,3,Blue,None,0,0,1,20:50,./completed_changuitos/montage_cnwoz_63.15_55.65.jpg,left,0,0,0,0,,,,,0,9,9,9,,,,,,,,,0,0,0,0,0,12,12,12,,,,,,,,,,,,,,,,,,,,,,,,,,,,,,,,,400.89547722269197,None,None,1,400.89547722269197,None,,,,,,,,,,,,,,,,,,,,,,,,,,,,,,,,,,,,,,,,,,,,,,celesteD,001,a,2019_Oct_14_1613,Experimento,3.2.3,60.421598226605774,
8,14,14,999,0.5,0:10,3,Cyan,None,0,0,1,20:50,./completed_changuitos/montage_cnwoz_63.15_55.65.jpg,left,0,0,0,0,,,,,0,9,9,9,,,,,,,,,0,0,0,0,0,13,13,13,,,,,,,,,,,,,,,,,,,,,,,,,,,,,,,,,400.89547722269197,None,None,1,400.89547722269197,None,,,,,,,,,,,,,,,,,,,,,,,,,,,,,,,,,,,,,,,,,,,,,,celesteD,001,a,2019_Oct_14_1613,Experimento,3.2.3,60.421598226605774,
8,14,14,999,0.5,0:10,3,Blue,['space'],0,0,1,20:50,./completed_changuitos/montage_cnwoz_63.15_55.65.jpg,left,0,0,0,0,,,,,0,9,9,9,,,,,,,,,0,0,0,0,0,14,14,14,,,,,,,,,,,,,,,,,,,,,,,,,,,,,,,,,400.9120344623923,None,None,0,400.9120344623923,None,,,,,,,,,,,,,,,,,,,,,,,,,,,,,,,,,,,,,,,,,,,,,,celesteD,001,a,2019_Oct_14_1613,Experimento,3.2.3,60.421598226605774,
8,14,14,999,0.5,0:10,3,Yellow,None,0,0,1,20:50,./completed_changuitos/montage_cnwoz_63.15_55.65.jpg,left,0,0,0,0,,,,,0,9,9,9,,,,,,,,,0,0,0,0,0,15,15,15,,,,,,,,,,,,,,,,,,,,,,,,,,,,,,,,,400.9120344623923,None,None,1,400.9120344623923,None,,,,,,,,,,,,,,,,,,,,,,,,,,,,,,,,,,,,,,,,,,,,,,celesteD,001,a,2019_Oct_14_1613,Experimento,3.2.3,60.421598226605774,
8,14,14,999,0.5,0:10,3,Cyan,None,0,0,1,20:50,./completed_changuitos/montage_cnwoz_63.15_55.65.jpg,left,0,0,0,0,,,,,0,9,9,9,,,,,,,,,0,0,0,0,0,16,16,16,,,,,,,,,,,,,,,,,,,,,,,,,,,,,,,,,400.9120344623923,None,None,1,400.9120344623923,None,,,,,,,,,,,,,,,,,,,,,,,,,,,,,,,,,,,,,,,,,,,,,,celesteD,001,a,2019_Oct_14_1613,Experimento,3.2.3,60.421598226605774,
8,14,14,999,0.5,0:10,3,Yellow,['space'],0,0,1,20:50,./completed_changuitos/montage_cnwoz_63.15_55.65.jpg,left,0,0,0,0,,,,,0,9,9,9,,,,,,,,,0,0,0,0,0,17,17,17,,,,,,,,,,,,,,,,,,,,,,,,,,,,,,,,,400.9120344623923,None,None,0,400.9120344623923,None,,,,,,,,,,,,,,,,,,,,,,,,,,,,,,,,,,,,,,,,,,,,,,celesteD,001,a,2019_Oct_14_1613,Experimento,3.2.3,60.421598226605774,
8,14,14,999,0.5,0:10,3,Magenta,None,0,0,1,20:50,./completed_changuitos/montage_cnwoz_63.15_55.65.jpg,left,0,0,0,0,,,,,0,9,9,9,,,,,,,,,0,0,0,0,0,18,18,18,,,,,,,,,,,,,,,,,,,,,,,,,,,,,,,,,400.9120344623923,None,None,1,400.9120344623923,None,,,,,,,,,,,,,,,,,,,,,,,,,,,,,,,,,,,,,,,,,,,,,,celesteD,001,a,2019_Oct_14_1613,Experimento,3.2.3,60.421598226605774,
8,14,14,999,0.5,0:10,3,Red,None,0,0,1,20:50,./completed_changuitos/montage_cnwoz_63.15_55.65.jpg,left,0,0,0,0,,,,,0,9,9,9,,,,,,,,,0,0,0,0,0,19,19,19,,,,,,,,,,,,,,,,,,,,,,,,,,,,,,,,,400.9120344623923,None,None,1,400.9120344623923,None,,,,,,,,,,,,,,,,,,,,,,,,,,,,,,,,,,,,,,,,,,,,,,celesteD,001,a,2019_Oct_14_1613,Experimento,3.2.3,60.421598226605774,
8,14,14,999,0.5,0:10,3,Magenta,['space'],0,0,1,20:50,./completed_changuitos/montage_cnwoz_63.15_55.65.jpg,left,0,0,0,0,,,,,0,9,9,9,,,,,,,,,0,0,0,0,0,20,20,20,,,,,,,,,,,,,,,,,,,,,,,,,,,,,,,,,400.9120344623923,None,None,0,400.9120344623923,None,,,,,,,,,,,,,,,,,,,,,,,,,,,,,,,,,,,,,,,,,,,,,,celesteD,001,a,2019_Oct_14_1613,Experimento,3.2.3,60.421598226605774,
8,14,14,999,0.5,0:10,3,Red,['space'],0,0,1,20:50,./completed_changuitos/montage_cnwoz_63.15_55.65.jpg,left,0,0,0,0,,,,,0,9,9,9,,,,,,,,,0,0,0,0,0,21,21,21,,,,,,,,,,,,,,,,,,,,,,,,,,,,,,,,,400.9120344623923,None,None,0,400.9120344623923,None,,,,,,,,,,,,,,,,,,,,,,,,,,,,,,,,,,,,,,,,,,,,,,celesteD,001,a,2019_Oct_14_1613,Experimento,3.2.3,60.421598226605774,
8,14,14,999,0.5,0:10,3,Yellow,None,0,0,1,20:50,./completed_changuitos/montage_cnwoz_63.15_55.65.jpg,left,0,0,0,0,,,,,0,9,9,9,,,,,,,,,0,0,0,0,0,22,22,22,,,,,,,,,,,,,,,,,,,,,,,,,,,,,,,,,400.9120344623923,None,None,1,400.9120344623923,None,,,,,,,,,,,,,,,,,,,,,,,,,,,,,,,,,,,,,,,,,,,,,,celesteD,001,a,2019_Oct_14_1613,Experimento,3.2.3,60.421598226605774,
8,14,14,999,0.5,0:10,3,Cyan,None,0,0,1,20:50,./completed_changuitos/montage_cnwoz_63.15_55.65.jpg,left,0,0,0,0,,,,,0,9,9,9,,,,,,,,,0,0,0,0,0,23,23,23,,,,,,,,,,,,,,,,,,,,,,,,,,,,,,,,,400.9120344623923,None,None,1,400.9120344623923,None,,,,,,,,,,,,,,,,,,,,,,,,,,,,,,,,,,,,,,,,,,,,,,celesteD,001,a,2019_Oct_14_1613,Experimento,3.2.3,60.421598226605774,
8,14,14,999,0.5,0:10,3,Green,None,0,0,1,20:50,./completed_changuitos/montage_cnwoz_63.15_55.65.jpg,left,0,0,0,0,,,,,0,9,9,9,,,,,,,,,0,0,0,0,0,24,24,24,,,,,,,,,,,,,,,,,,,,,,,,,,,,,,,,,400.9120344623923,None,None,1,400.9120344623923,None,,,,,,,,,,,,,,,,,,,,,,,,,,,,,,,,,,,,,,,,,,,,,,celesteD,001,a,2019_Oct_14_1613,Experimento,3.2.3,60.421598226605774,
8,14,14,999,0.5,0:10,3,White,None,0,0,1,20:50,./completed_changuitos/montage_cnwoz_63.15_55.65.jpg,left,0,0,0,0,,,,,0,9,9,9,,,,,,,,,0,0,0,0,0,25,25,25,,,,,,,,,,,,,,,,,,,,,,,,,,,,,,,,,400.92859170209266,None,None,1,400.92859170209266,None,,,,,,,,,,,,,,,,,,,,,,,,,,,,,,,,,,,,,,,,,,,,,,celesteD,001,a,2019_Oct_14_1613,Experimento,3.2.3,60.421598226605774,
8,14,14,999,0.5,0:10,3,Green,['space'],0,0,1,20:50,./completed_changuitos/montage_cnwoz_63.15_55.65.jpg,left,0,0,0,0,,,,,0,9,9,9,,,,,,,,,0,0,0,0,0,26,26,26,,,,,,,,,,,,,,,,,,,,,,,,,,,,,,,,,400.92859170209266,None,None,0,400.92859170209266,None,,,,,,,,,,,,,,,,,,,,,,,,,,,,,,,,,,,,,,,,,,,,,,celesteD,001,a,2019_Oct_14_1613,Experimento,3.2.3,60.421598226605774,
8,14,14,999,0.5,0:10,3,Red,None,0,0,1,20:50,./completed_changuitos/montage_cnwoz_63.15_55.65.jpg,left,0,0,0,0,,,,,0,9,9,9,,,,,,,,,0,0,0,0,0,27,27,27,,,,,,,,,,,,,,,,,,,,,,,,,,,,,,,,,400.92859170209266,None,None,1,400.92859170209266,None,,,,,,,,,,,,,,,,,,,,,,,,,,,,,,,,,,,,,,,,,,,,,,celesteD,001,a,2019_Oct_14_1613,Experimento,3.2.3,60.421598226605774,
8,14,14,999,0.5,0:10,3,Blue,None,0,0,1,20:50,./completed_changuitos/montage_cnwoz_63.15_55.65.jpg,left,0,0,0,0,,,,,0,9,9,9,,,,,,,,,0,0,0,0,0,28,28,28,,,,,,,,,,,,,,,,,,,,,,,,,,,,,,,,,400.92859170209266,None,None,1,400.92859170209266,None,,,,,,,,,,,,,,,,,,,,,,,,,,,,,,,,,,,,,,,,,,,,,,celesteD,001,a,2019_Oct_14_1613,Experimento,3.2.3,60.421598226605774,
8,14,14,999,0.5,0:10,3,Green,None,0,0,1,20:50,./completed_changuitos/montage_cnwoz_63.15_55.65.jpg,left,0,0,0,0,,,,,0,9,9,9,,,,,,,,,0,0,0,0,0,29,29,29,,,,,,,,,,,,,,,,,,,,,,,,,,,,,,,,,400.92859170209266,None,None,1,400.92859170209266,None,,,,,,,,,,,,,,,,,,,,,,,,,,,,,,,,,,,,,,,,,,,,,,celesteD,001,a,2019_Oct_14_1613,Experimento,3.2.3,60.421598226605774,
8,14,14,999,0.5,0:10,3,,,0,0,1,20:50,./completed_changuitos/montage_cnwoz_63.15_55.65.jpg,left,0,0,0,0,,,,,0,9,9,9,,,,,,,,,0,0,0,0,,,,,,,,,,,,,,,,,,,,,,,,,,,,,,,,,,,,,,,,,,,,401.02870377099316,None,left,1,3.9377667469962034,401.02870377099316,None,401.02870377099316,404.02930782499607,,,,,,,,,,,,,,,,,,,,,,,,,,,,,,,,,,,,celesteD,001,a,2019_Oct_14_1613,Experimento,3.2.3,60.421598226605774,
8,14,14,999,0.5,0:10,3,,,0,0,1,20:50,,,0,0,0,0,,,,,0,9,9,9,,,,,,,,,,,,,,,,,,,,,,,,,,,,,,,,,,,,,,,,,,,,,,,,,,,,,,,,,,,,,,,,,,,,,,,,,,,,,,,,,,,,,,,,,,,,,,,,,,,,celesteD,001,a,2019_Oct_14_1613,Experimento,3.2.3,60.421598226605774,
8,14,14,999,0.5,0:10,3,,,0,1,0,25:50,./completed_changuitos/montage_kemjk_171.49_202.15.jpg,right,0,0,0,0,,,,,0,10,10,10,,,,,0,0,0,0,,,,,,,,,,,,,,,,,,,,,,405.26617239500047,406.2305504239921,406.2305504239921,414.24427145399386,414.24427145399386,428.24585318499885,left,0,2.81967187000555,428.24585318499885,None,428.24585318499885,None,428.24585318499885,None,,,,,,,,,,,,,,,,,,,,,,,,,,,,,,,,,,,,,,,,,,,,,,,,,,,,,,,,celesteD,001,a,2019_Oct_14_1613,Experimento,3.2.3,60.421598226605774,
8,14,14,999,0.5,0:10,3,,,0,1,0,25:50,,,0,0,0,0,,,,,0,10,10,10,,,,,,,,,,,,,,,,,,,,,,,,,,,,,,,,,,,,,,,,,,,,,,,,,,,,,,,,,,,,,,,,,,,,,,,,,,,,,,,,,,,,,,,,,,,,,,,,,,,,celesteD,001,a,2019_Oct_14_1613,Experimento,3.2.3,60.421598226605774,
8,14,14,999,0.5,0:10,3,Red,None,0,0,1,28:50,./completed_changuitos/montage_hzcrt_54.49_47.09.jpg,left,0,0,0,0,,,,,0,11,11,11,,,,,,,,,0,0,0,0,0,0,0,0,,,,,,,,,,,,,,,,,,,,,,,,,,,,,431.32779552499414,446.58169874698797,446.58169874698797,None,454.6124834789953,455.1282448259881,None,1,454.6124834789953,None,,,,,,,,,,,,,,,,,,,,,,,,,,,,,,,,,,,,,,,,,,,,,,celesteD,001,a,2019_Oct_14_1613,Experimento,3.2.3,60.421598226605774,
8,14,14,999,0.5,0:10,3,Magenta,['space'],0,0,1,28:50,./completed_changuitos/montage_hzcrt_54.49_47.09.jpg,left,0,0,0,0,,,,,0,11,11,11,,,,,,,,,0,0,0,0,0,1,1,1,,,,,,,,,,,,,,,,,,,,,,,,,,,,,,,,,456.628746064991,457.1280185059877,None,0,456.628746064991,456.628746064991,,,,,,,,,,,,,,,,,,,,,,,,,,,,,,,,,,,,,,,,,,,,,,celesteD,001,a,2019_Oct_14_1613,Experimento,3.2.3,60.421598226605774,
8,14,14,999,0.5,0:10,3,Green,None,0,0,1,28:50,./completed_changuitos/montage_hzcrt_54.49_47.09.jpg,left,0,0,0,0,,,,,0,11,11,11,,,,,,,,,0,0,0,0,0,2,2,2,,,,,,,,,,,,,,,,,,,,,,,,,,,,,,,,,458.6282515209896,459.12810145800177,None,1,458.6282515209896,458.6282515209896,,,,,,,,,,,,,,,,,,,,,,,,,,,,,,,,,,,,,,,,,,,,,,celesteD,001,a,2019_Oct_14_1613,Experimento,3.2.3,60.421598226605774,
8,14,14,999,0.5,0:10,3,Yellow,['space'],0,0,1,28:50,./completed_changuitos/montage_hzcrt_54.49_47.09.jpg,left,0,0,0,0,,,,,0,11,11,11,,,,,,,,,0,0,0,0,0,3,3,3,,,,,,,,,,,,,,,,,,,,,,,,,,,,,,,,,460.6280436169909,461.1276068070001,None,0,460.6280436169909,460.6280436169909,,,,,,,,,,,,,,,,,,,,,,,,,,,,,,,,,,,,,,,,,,,,,,celesteD,001,a,2019_Oct_14_1613,Experimento,3.2.3,60.421598226605774,
8,14,14,999,0.5,0:10,3,Blue,None,0,0,1,28:50,./completed_changuitos/montage_hzcrt_54.49_47.09.jpg,left,0,0,0,0,,,,,0,11,11,11,,,,,,,,,0,0,0,0,0,4,4,4,,,,,,,,,,,,,,,,,,,,,,,,,,,,,,,,,462.62803493200045,463.128098199988,None,1,462.62803493200045,462.62803493200045,,,,,,,,,,,,,,,,,,,,,,,,,,,,,,,,,,,,,,,,,,,,,,celesteD,001,a,2019_Oct_14_1613,Experimento,3.2.3,60.421598226605774,
8,14,14,999,0.5,0:10,3,Cyan,None,0,0,1,28:50,./completed_changuitos/montage_hzcrt_54.49_47.09.jpg,left,0,0,0,0,,,,,0,11,11,11,,,,,,,,,0,0,0,0,0,5,5,5,,,,,,,,,,,,,,,,,,,,,,,,,,,,,,,,,464.6281448009977,465.1279017479974,None,1,464.6281448009977,464.6281448009977,,,,,,,,,,,,,,,,,,,,,,,,,,,,,,,,,,,,,,,,,,,,,,celesteD,001,a,2019_Oct_14_1613,Experimento,3.2.3,60.421598226605774,
8,14,14,999,0.5,0:10,3,Blue,['space'],0,0,1,28:50,./completed_changuitos/montage_hzcrt_54.49_47.09.jpg,left,0,0,0,0,,,,,0,11,11,11,,,,,,,,,0,0,0,0,0,6,6,6,,,,,,,,,,,,,,,,,,,,,,,,,,,,,,,,,466.6281020259921,467.1279593799991,['return'],0,466.6281020259921,466.6281020259921,[0.811391058989102],,,,,,,,,,,,,,,,,,,,,,,,,,,,,,,,,,,,,,,,,,,,,celesteD,001,a,2019_Oct_14_1613,Experimento,3.2.3,60.421598226605774,
8,14,14,999,0.5,0:10,3,Yellow,None,0,0,1,28:50,./completed_changuitos/montage_hzcrt_54.49_47.09.jpg,left,0,0,0,0,,,,,0,11,11,11,,,,,,,,,0,0,0,0,0,7,7,7,,,,,,,,,,,,,,,,,,,,,,,,,,,,,,,,,468.5945346736902,None,None,1,468.5945346736902,None,,,,,,,,,,,,,,,,,,,,,,,,,,,,,,,,,,,,,,,,,,,,,,celesteD,001,a,2019_Oct_14_1613,Experimento,3.2.3,60.421598226605774,
8,14,14,999,0.5,0:10,3,Cyan,None,0,0,1,28:50,./completed_changuitos/montage_hzcrt_54.49_47.09.jpg,left,0,0,0,0,,,,,0,11,11,11,,,,,,,,,0,0,0,0,0,8,8,8,,,,,,,,,,,,,,,,,,,,,,,,,,,,,,,,,468.5945346736902,None,None,1,468.5945346736902,None,,,,,,,,,,,,,,,,,,,,,,,,,,,,,,,,,,,,,,,,,,,,,,celesteD,001,a,2019_Oct_14_1613,Experimento,3.2.3,60.421598226605774,
8,14,14,999,0.5,0:10,3,Yellow,['space'],0,0,1,28:50,./completed_changuitos/montage_hzcrt_54.49_47.09.jpg,left,0,0,0,0,,,,,0,11,11,11,,,,,,,,,0,0,0,0,0,9,9,9,,,,,,,,,,,,,,,,,,,,,,,,,,,,,,,,,468.5945346736902,None,None,0,468.5945346736902,None,,,,,,,,,,,,,,,,,,,,,,,,,,,,,,,,,,,,,,,,,,,,,,celesteD,001,a,2019_Oct_14_1613,Experimento,3.2.3,60.421598226605774,
8,14,14,999,0.5,0:10,3,Magenta,None,0,0,1,28:50,./completed_changuitos/montage_hzcrt_54.49_47.09.jpg,left,0,0,0,0,,,,,0,11,11,11,,,,,,,,,0,0,0,0,0,10,10,10,,,,,,,,,,,,,,,,,,,,,,,,,,,,,,,,,468.5945346736902,None,None,1,468.5945346736902,None,,,,,,,,,,,,,,,,,,,,,,,,,,,,,,,,,,,,,,,,,,,,,,celesteD,001,a,2019_Oct_14_1613,Experimento,3.2.3,60.421598226605774,
8,14,14,999,0.5,0:10,3,Red,None,0,0,1,28:50,./completed_changuitos/montage_hzcrt_54.49_47.09.jpg,left,0,0,0,0,,,,,0,11,11,11,,,,,,,,,0,0,0,0,0,11,11,11,,,,,,,,,,,,,,,,,,,,,,,,,,,,,,,,,468.5945346736902,None,None,1,468.5945346736902,None,,,,,,,,,,,,,,,,,,,,,,,,,,,,,,,,,,,,,,,,,,,,,,celesteD,001,a,2019_Oct_14_1613,Experimento,3.2.3,60.421598226605774,
8,14,14,999,0.5,0:10,3,Magenta,['space'],0,0,1,28:50,./completed_changuitos/montage_hzcrt_54.49_47.09.jpg,left,0,0,0,0,,,,,0,11,11,11,,,,,,,,,0,0,0,0,0,12,12,12,,,,,,,,,,,,,,,,,,,,,,,,,,,,,,,,,468.5945346736902,None,None,0,468.5945346736902,None,,,,,,,,,,,,,,,,,,,,,,,,,,,,,,,,,,,,,,,,,,,,,,celesteD,001,a,2019_Oct_14_1613,Experimento,3.2.3,60.421598226605774,
8,14,14,999,0.5,0:10,3,Red,['space'],0,0,1,28:50,./completed_changuitos/montage_hzcrt_54.49_47.09.jpg,left,0,0,0,0,,,,,0,11,11,11,,,,,,,,,0,0,0,0,0,13,13,13,,,,,,,,,,,,,,,,,,,,,,,,,,,,,,,,,468.5945346736902,None,None,0,468.5945346736902,None,,,,,,,,,,,,,,,,,,,,,,,,,,,,,,,,,,,,,,,,,,,,,,celesteD,001,a,2019_Oct_14_1613,Experimento,3.2.3,60.421598226605774,
8,14,14,999,0.5,0:10,3,Yellow,None,0,0,1,28:50,./completed_changuitos/montage_hzcrt_54.49_47.09.jpg,left,0,0,0,0,,,,,0,11,11,11,,,,,,,,,0,0,0,0,0,14,14,14,,,,,,,,,,,,,,,,,,,,,,,,,,,,,,,,,468.6110919133905,None,None,1,468.6110919133905,None,,,,,,,,,,,,,,,,,,,,,,,,,,,,,,,,,,,,,,,,,,,,,,celesteD,001,a,2019_Oct_14_1613,Experimento,3.2.3,60.421598226605774,
8,14,14,999,0.5,0:10,3,Cyan,None,0,0,1,28:50,./completed_changuitos/montage_hzcrt_54.49_47.09.jpg,left,0,0,0,0,,,,,0,11,11,11,,,,,,,,,0,0,0,0,0,15,15,15,,,,,,,,,,,,,,,,,,,,,,,,,,,,,,,,,468.6110919133905,None,None,1,468.6110919133905,None,,,,,,,,,,,,,,,,,,,,,,,,,,,,,,,,,,,,,,,,,,,,,,celesteD,001,a,2019_Oct_14_1613,Experimento,3.2.3,60.421598226605774,
8,14,14,999,0.5,0:10,3,Green,None,0,0,1,28:50,./completed_changuitos/montage_hzcrt_54.49_47.09.jpg,left,0,0,0,0,,,,,0,11,11,11,,,,,,,,,0,0,0,0,0,16,16,16,,,,,,,,,,,,,,,,,,,,,,,,,,,,,,,,,468.6110919133905,None,None,1,468.6110919133905,None,,,,,,,,,,,,,,,,,,,,,,,,,,,,,,,,,,,,,,,,,,,,,,celesteD,001,a,2019_Oct_14_1613,Experimento,3.2.3,60.421598226605774,
8,14,14,999,0.5,0:10,3,White,None,0,0,1,28:50,./completed_changuitos/montage_hzcrt_54.49_47.09.jpg,left,0,0,0,0,,,,,0,11,11,11,,,,,,,,,0,0,0,0,0,17,17,17,,,,,,,,,,,,,,,,,,,,,,,,,,,,,,,,,468.6110919133905,None,None,1,468.6110919133905,None,,,,,,,,,,,,,,,,,,,,,,,,,,,,,,,,,,,,,,,,,,,,,,celesteD,001,a,2019_Oct_14_1613,Experimento,3.2.3,60.421598226605774,
8,14,14,999,0.5,0:10,3,Green,['space'],0,0,1,28:50,./completed_changuitos/montage_hzcrt_54.49_47.09.jpg,left,0,0,0,0,,,,,0,11,11,11,,,,,,,,,0,0,0,0,0,18,18,18,,,,,,,,,,,,,,,,,,,,,,,,,,,,,,,,,468.6110919133905,None,None,0,468.6110919133905,None,,,,,,,,,,,,,,,,,,,,,,,,,,,,,,,,,,,,,,,,,,,,,,celesteD,001,a,2019_Oct_14_1613,Experimento,3.2.3,60.421598226605774,
8,14,14,999,0.5,0:10,3,Red,None,0,0,1,28:50,./completed_changuitos/montage_hzcrt_54.49_47.09.jpg,left,0,0,0,0,,,,,0,11,11,11,,,,,,,,,0,0,0,0,0,19,19,19,,,,,,,,,,,,,,,,,,,,,,,,,,,,,,,,,468.6110919133905,None,None,1,468.6110919133905,None,,,,,,,,,,,,,,,,,,,,,,,,,,,,,,,,,,,,,,,,,,,,,,celesteD,001,a,2019_Oct_14_1613,Experimento,3.2.3,60.421598226605774,
8,14,14,999,0.5,0:10,3,Blue,None,0,0,1,28:50,./completed_changuitos/montage_hzcrt_54.49_47.09.jpg,left,0,0,0,0,,,,,0,11,11,11,,,,,,,,,0,0,0,0,0,20,20,20,,,,,,,,,,,,,,,,,,,,,,,,,,,,,,,,,468.6110919133905,None,None,1,468.6110919133905,None,,,,,,,,,,,,,,,,,,,,,,,,,,,,,,,,,,,,,,,,,,,,,,celesteD,001,a,2019_Oct_14_1613,Experimento,3.2.3,60.421598226605774,
8,14,14,999,0.5,0:10,3,Green,None,0,0,1,28:50,./completed_changuitos/montage_hzcrt_54.49_47.09.jpg,left,0,0,0,0,,,,,0,11,11,11,,,,,,,,,0,0,0,0,0,21,21,21,,,,,,,,,,,,,,,,,,,,,,,,,,,,,,,,,468.6110919133905,None,None,1,468.6110919133905,None,,,,,,,,,,,,,,,,,,,,,,,,,,,,,,,,,,,,,,,,,,,,,,celesteD,001,a,2019_Oct_14_1613,Experimento,3.2.3,60.421598226605774,
8,14,14,999,0.5,0:10,3,,,0,0,1,28:50,./completed_changuitos/montage_hzcrt_54.49_47.09.jpg,left,0,0,0,0,,,,,0,11,11,11,,,,,,,,,0,0,0,0,,,,,,,,,,,,,,,,,,,,,,,,,,,,,,,,,,,,,,,,,,,,468.7111421449954,None,right,0,2.393975345999934,468.7111421449954,None,468.7111421449954,None,,,,,,,,,,,,,,,,,,,,,,,,,,,,,,,,,,,,celesteD,001,a,2019_Oct_14_1613,Experimento,3.2.3,60.421598226605774,
8,14,14,999,0.5,0:10,3,,,0,0,1,28:50,,,0,0,0,0,,,,,0,11,11,11,,,,,,,,,,,,,,,,,,,,,,,,,,,,,,,,,,,,,,,,,,,,,,,,,,,,,,,,,,,,,,,,,,,,,,,,,,,,,,,,,,,,,,,,,,,,,,,,,,,,celesteD,001,a,2019_Oct_14_1613,Experimento,3.2.3,60.421598226605774,
8,14,14,999,0.5,0:10,3,,,1,0,0,30:50,./completed_changuitos/montage_ruupk_85.59_74.89.jpg,left,0,0,0,0,,,,,0,12,12,12,0,0,0,0,,,,,,,,,,,,,,,,,,,,,,,,,,,,,,,,,,,,,,,,,,,,,,,,,,,,,,,,,,,,,471.8620356369938,473.08090580899443,473.08090580899443,481.0939723999909,right,0,3.6381148299988126,481.0939723999909,None,481.0939723999909,None,481.0939723999909,484.0939623309969,,,,,,,,,,,,,,,,,,,,,,,celesteD,001,a,2019_Oct_14_1613,Experimento,3.2.3,60.421598226605774,
8,14,14,999,0.5,0:10,3,,,1,0,0,30:50,,,0,0,0,0,,,,,0,12,12,12,,,,,,,,,,,,,,,,,,,,,,,,,,,,,,,,,,,,,,,,,,,,,,,,,,,,,,,,,,,,,,,,,,,,,,,,,,,,,,,,,,,,,,,,,,,,,,,,,,,,celesteD,001,a,2019_Oct_14_1613,Experimento,3.2.3,60.421598226605774,
8,14,14,999,0.5,0:10,3,,,1,0,0,32:50,./completed_changuitos/montage_ujiac_115.55_133.75.jpg,right,0,0,0,0,,,,,0,13,13,13,0,0,0,0,,,,,,,,,,,,,,,,,,,,,,,,,,,,,,,,,,,,,,,,,,,,,,,,,,,,,,,,,,,,,485.527920263994,491.37759306999214,491.37759306999214,499.3770586699975,right,1,10.209863479001797,499.3770586699975,None,499.3770586699975,None,499.3770586699975,502.377146556988,,,,,,,,,,,,,,,,,,,,,,,celesteD,001,a,2019_Oct_14_1613,Experimento,3.2.3,60.421598226605774,
8,14,14,999,0.5,0:10,3,,,1,0,0,32:50,,,0,0,0,0,,,,,0,13,13,13,,,,,,,,,,,,,,,,,,,,,,,,,,,,,,,,,,,,,,,,,,,,,,,,,,,,,,,,,,,,,,,,,,,,,,,,,,,,,,,,,,,,,,,,,,,,,,,,,,,,celesteD,001,a,2019_Oct_14_1613,Experimento,3.2.3,60.421598226605774,
8,14,14,999,0.5,0:10,3,,,1,0,0,34:50,./completed_changuitos/montage_cgopq_189.6_163.7.jpg,left,0,0,0,0,,,,,0,14,14,14,0,0,0,0,,,,,,,,,,,,,,,,,,,,,,,,,,,,,,,,,,,,,,,,,,,,,,,,,,,,,,,,,,,,,510.3773599289998,516.6964696319919,516.6964696319919,524.7100514740014,left,1,2.2097046909912024,524.7100514740014,None,524.7100514740014,None,524.7100514740014,None,,,,,,,,,,,,,,,,,,,,,,,celesteD,001,a,2019_Oct_14_1613,Experimento,3.2.3,60.421598226605774,
8,14,14,999,0.5,0:10,3,,,1,0,0,34:50,,,0,0,0,0,,,,,0,14,14,14,,,,,,,,,,,,,,,,,,,,,,,,,,,,,,,,,,,,,,,,,,,,,,,,,,,,,,,,,,,,,,,,,,,,,,,,,,,,,,,,,,,,,,,,,,,,,,,,,,,,celesteD,001,a,2019_Oct_14_1613,Experimento,3.2.3,60.421598226605774,
8,14,14,999,0.5,0:10,3,,,1,0,0,30:50,./completed_changuitos/montage_djeez_90.99_79.19.jpg,left,0,0,0,0,,,,,0,15,15,15,0,0,0,0,,,,,,,,,,,,,,,,,,,,,,,,,,,,,,,,,,,,,,,,,,,,,,,,,,,,,,,,,,,,,527.71070168,529.061226188991,529.061226188991,537.0760521670018,right,0,0.5682952869974542,537.0760521670018,None,537.0760521670018,None,537.0760521670018,None,,,,,,,,,,,,,,,,,,,,,,,celesteD,001,a,2019_Oct_14_1613,Experimento,3.2.3,60.421598226605774,
8,14,14,999,0.5,0:10,3,,,1,0,0,30:50,,,0,0,0,0,,,,,0,15,15,15,,,,,,,,,,,,,,,,,,,,,,,,,,,,,,,,,,,,,,,,,,,,,,,,,,,,,,,,,,,,,,,,,,,,,,,,,,,,,,,,,,,,,,,,,,,,,,,,,,,,celesteD,001,a,2019_Oct_14_1613,Experimento,3.2.3,60.421598226605774,
8,14,14,999,0.5,0:10,3,,,1,0,0,32:50,./completed_changuitos/montage_irujz_224.59_256.79.jpg,right,0,0,0,0,,,,,0,16,16,16,0,0,0,0,,,,,,,,,,,,,,,,,,,,,,,,,,,,,,,,,,,,,,,,,,,,,,,,,,,,,,,,,,,,,538.4603850869898,539.5774673729902,539.5774673729902,547.5927101489942,right,1,1.8201716349867638,547.5927101489942,None,547.5927101489942,None,547.5927101489942,None,,,,,,,,,,,,,,,,,,,,,,,celesteD,001,a,2019_Oct_14_1613,Experimento,3.2.3,60.421598226605774,
8,14,14,999,0.5,0:10,3,,,1,0,0,32:50,,,0,0,0,0,,,,,0,16,16,16,,,,,,,,,,,,,,,,,,,,,,,,,,,,,,,,,,,,,,,,,,,,,,,,,,,,,,,,,,,,,,,,,,,,,,,,,,,,,,,,,,,,,,,,,,,,,,,,,,,,celesteD,001,a,2019_Oct_14_1613,Experimento,3.2.3,60.421598226605774,
8,14,14,999,0.5,0:10,3,,,1,0,0,34:50,./completed_changuitos/montage_avhrv_69.89_79.9.jpg,right,0,0,0,0,,,,,0,17,17,17,0,0,0,0,,,,,,,,,,,,,,,,,,,,,,,,,,,,,,,,,,,,,,,,,,,,,,,,,,,,,,,,,,,,,550.2106032099982,554.7121352579998,554.7121352579998,562.725667723993,left,0,3.9438785829988774,562.725667723993,None,562.725667723993,None,562.725667723993,565.7260750819987,,,,,,,,,,,,,,,,,,,,,,,celesteD,001,a,2019_Oct_14_1613,Experimento,3.2.3,60.421598226605774,
8,14,14,999,0.5,0:10,3,,,1,0,0,34:50,,,0,0,0,0,,,,,0,17,17,17,,,,,,,,,,,,,,,,,,,,,,,,,,,,,,,,,,,,,,,,,,,,,,,,,,,,,,,,,,,,,,,,,,,,,,,,,,,,,,,,,,,,,,,,,,,,,,,,,,,,celesteD,001,a,2019_Oct_14_1613,Experimento,3.2.3,60.421598226605774,
8,14,14,999,0.5,0:10,3,,,,,,,,,0,0,0,0,,,,,,,,,,,,,,,,,,,,,,,,,,,,,,,,,,,,,,,,,,,,,,,,,,,,,,,,,,,,,,,,,,,,,,,,,,,,,,,,,,,,,,566.7594317529874,572.1258640079905,8,13.691087406987208,572.1258640079905,None,572.1258640079905,None,b,8.37449931500305,585.8462149059924,None,585.8462149059924,None,585.8462149059924,None,594.2433184649999,None,5,8.278740618989104,594.2433184649999,None,celesteD,001,a,2019_Oct_14_1613,Experimento,3.2.3,60.421598226605774,
