changuito_time_to_show,time_to_think,time_to_play,total_items,nback_stimulus_time,nback_training,time_to_show_tiny_stimulus,colourtest,corresp,inmediato,consciente,inconsciente,nback_slice,imagen,correcta,trials_5.thisRepN,trials_5.thisTrialN,trials_5.thisN,trials_5.thisIndex,nback_train.thisRepN,nback_train.thisTrialN,nback_train.thisN,nback_train.thisIndex,treatment_order.thisRepN,treatment_order.thisTrialN,treatment_order.thisN,treatment_order.thisIndex,trials.thisRepN,trials.thisTrialN,trials.thisN,trials.thisIndex,trials_2.thisRepN,trials_2.thisTrialN,trials_2.thisN,trials_2.thisIndex,trials_3.thisRepN,trials_3.thisTrialN,trials_3.thisN,trials_3.thisIndex,trials_4.thisRepN,trials_4.thisTrialN,trials_4.thisN,trials_4.thisIndex,Presentacion.started,Presentacion.stopped,Juego.started,Juego.stopped,image_6.started,image_6.stopped,polygon.started,polygon.stopped,nback_train_resp.keys,nback_train_resp.corr,nback_train_resp.started,nback_train_resp.stopped,nback_train_resp.rt,holi.started,holi.stopped,image_3.started,image_3.stopped,polygon_2.started,polygon_2.stopped,nback_train_resp_2.keys,nback_train_resp_2.corr,nback_train_resp_2.started,nback_train_resp_2.stopped,nback_train_resp_2.rt,text_2.started,text_2.stopped,key_resp.keys,key_resp.corr,key_resp.rt,key_resp.started,key_resp.stopped,image_5.started,image_5.stopped,hola.started,hola.stopped,image_2.started,image_2.stopped,tiempo_para_pensar.started,tiempo_para_pensar.stopped,respuesta_consciente.keys,respuesta_consciente.corr,respuesta_consciente.rt,respuesta_consciente.started,respuesta_consciente.stopped,cual_es_la_mas_barata.started,cual_es_la_mas_barata.stopped,image_4.started,image_4.stopped,text.started,text.stopped,image.started,image.stopped,respuesta_inmediato.keys,respuesta_inmediato.corr,respuesta_inmediato.rt,respuesta_inmediato.started,respuesta_inmediato.stopped,pregunta_cual_es_el_mas_barato.started,pregunta_cual_es_el_mas_barato.stopped,short_stim1.started,short_stim1.stopped,gracias.started,gracias.stopped,respuesta1.keys,respuesta1.rt,respuesta1.started,respuesta1.stopped,pregunta1.started,pregunta1.stopped,respuesta3bis_3.keys,respuesta3bis_3.rt,respuesta3bis_3.started,respuesta3bis_3.stopped,pregunta3_3.started,pregunta3_3.stopped,productoCon3RANGOSabc_3.started,productoCon3RANGOSabc_3.stopped,text_3.started,text_3.stopped,key_resp_2.keys,key_resp_2.rt,key_resp_2.started,key_resp_2.stopped,participant,session,group,date,expName,psychopyVersion,frameRate,
8,14,14,999,0.5,0:10,3,White,None,,,,,,,0,0,0,0,0,0,0,0,,,,,,,,,,,,,,,,,,,,,21.52243049199751,None,55.78343579500506,None,55.78343579500506,None,105.09750982100377,105.59796923100657,None,1,105.09750982100377,None,,,,,,,,,,,,,,,,,,,,,,,,,,,,,,,,,,,,,,,,,,,,,,,,,,,,,,,,,,,,,,,,,,,,,,,,benitoR,001,b,2019_Oct_14_2032,Experimento,3.2.3,60.053426773653385,
8,14,14,999,0.5,0:10,3,Red,None,,,,,,,0,0,0,0,0,1,1,1,,,,,,,,,,,,,,,,,,,,,,,,,,,107.09789584900136,107.59791878299438,None,1,107.09789584900136,107.09789584900136,,,,,,,,,,,,,,,,,,,,,,,,,,,,,,,,,,,,,,,,,,,,,,,,,,,,,,,,,,,,,,,,,,,,,,,,benitoR,001,b,2019_Oct_14_2032,Experimento,3.2.3,60.053426773653385,
8,14,14,999,0.5,0:10,3,Magenta,None,,,,,,,0,0,0,0,0,2,2,2,,,,,,,,,,,,,,,,,,,,,,,,,,,109.09814673100482,109.59795016600401,None,1,109.09814673100482,109.09814673100482,,,,,,,,,,,,,,,,,,,,,,,,,,,,,,,,,,,,,,,,,,,,,,,,,,,,,,,,,,,,,,,,,,,,,,,,benitoR,001,b,2019_Oct_14_2032,Experimento,3.2.3,60.053426773653385,
8,14,14,999,0.5,0:10,3,Cyan,None,,,,,,,0,0,0,0,0,3,3,3,,,,,,,,,,,,,,,,,,,,,,,,,,,111.09801131399581,111.59801343499566,None,1,111.09801131399581,111.09801131399581,,,,,,,,,,,,,,,,,,,,,,,,,,,,,,,,,,,,,,,,,,,,,,,,,,,,,,,,,,,,,,,,,,,,,,,,benitoR,001,b,2019_Oct_14_2032,Experimento,3.2.3,60.053426773653385,
8,14,14,999,0.5,0:10,3,Magenta,['space'],,,,,,,0,0,0,0,0,4,4,4,,,,,,,,,,,,,,,,,,,,,,,,,,,113.097843740994,113.59830280499591,['return'],0,113.097843740994,113.097843740994,[0.6042794690001756],,,,,,,,,,,,,,,,,,,,,,,,,,,,,,,,,,,,,,,,,,,,,,,,,,,,,,,,,,,,,,,,,,,,,,,benitoR,001,b,2019_Oct_14_2032,Experimento,3.2.3,60.053426773653385,
8,14,14,999,0.5,0:10,3,Green,None,,,,,,,0,0,0,0,0,5,5,5,,,,,,,,,,,,,,,,,,,,,,,,,,,115.0983112660033,115.59759021400532,None,1,115.0983112660033,115.0983112660033,,,,,,,,,,,,,,,,,,,,,,,,,,,,,,,,,,,,,,,,,,,,,,,,,,,,,,,,,,,,,,,,,,,,,,,,benitoR,001,b,2019_Oct_14_2032,Experimento,3.2.3,60.053426773653385,
8,14,14,999,0.5,0:10,3,White,None,,,,,,,0,0,0,0,0,6,6,6,,,,,,,,,,,,,,,,,,,,,,,,,,,117.0977681469958,117.59834922599839,None,1,117.0977681469958,117.0977681469958,,,,,,,,,,,,,,,,,,,,,,,,,,,,,,,,,,,,,,,,,,,,,,,,,,,,,,,,,,,,,,,,,,,,,,,,benitoR,001,b,2019_Oct_14_2032,Experimento,3.2.3,60.053426773653385,
8,14,14,999,0.5,0:10,3,Green,['space'],,,,,,,0,0,0,0,0,7,7,7,,,,,,,,,,,,,,,,,,,,,,,,,,,119.097840988994,119.5983819450048,['return'],0,119.097840988994,119.097840988994,[0.4417616220016498],,,,,,,,,,,,,,,,,,,,,,,,,,,,,,,,,,,,,,,,,,,,,,,,,,,,,,,,,,,,,,,,,,,,,,,benitoR,001,b,2019_Oct_14_2032,Experimento,3.2.3,60.053426773653385,
8,14,14,999,0.5,0:10,3,Blue,None,,,,,,,0,0,0,0,0,8,8,8,,,,,,,,,,,,,,,,,,,,,,,,,,,121.0981700859993,121.59829114600143,None,1,121.0981700859993,121.0981700859993,,,,,,,,,,,,,,,,,,,,,,,,,,,,,,,,,,,,,,,,,,,,,,,,,,,,,,,,,,,,,,,,,,,,,,,,benitoR,001,b,2019_Oct_14_2032,Experimento,3.2.3,60.053426773653385,
8,14,14,999,0.5,0:10,3,Green,['space'],,,,,,,0,0,0,0,0,9,9,9,,,,,,,,,,,,,,,,,,,,,,,,,,,123.09774909200496,123.59833280500607,['return'],0,123.09774909200496,123.09774909200496,[0.7435528070054715],,,,,,,,,,,,,,,,,,,,,,,,,,,,,,,,,,,,,,,,,,,,,,,,,,,,,,,,,,,,,,,,,,,,,,,benitoR,001,b,2019_Oct_14_2032,Experimento,3.2.3,60.053426773653385,
8,14,14,999,0.5,0:10,3,Yellow,None,0,0,1,15:50,./completed_changuitos/montage_lxpqc_96.29_109.15.jpg,right,0,0,0,0,,,,,0,0,0,0,,,,,,,,,0,0,0,0,0,0,0,0,,,,,,,,,,,,,,125.33414623299905,135.0986683539959,135.0986683539959,None,143.1333671159955,143.64851237200492,None,1,143.1333671159955,None,,,,,,,,,,,,,,,,,,,,,,,,,,,,,,,,,,,,,,,,,,,,,,,,,,,,,,,,,,,,,benitoR,001,b,2019_Oct_14_2032,Experimento,3.2.3,60.053426773653385,
8,14,14,999,0.5,0:10,3,White,['space'],0,0,1,15:50,./completed_changuitos/montage_lxpqc_96.29_109.15.jpg,right,0,0,0,0,,,,,0,0,0,0,,,,,,,,,0,0,0,0,0,1,1,1,,,,,,,,,,,,,,,,,,145.14831247400434,145.6483337529935,None,0,145.14831247400434,145.14831247400434,,,,,,,,,,,,,,,,,,,,,,,,,,,,,,,,,,,,,,,,,,,,,,,,,,,,,,,,,,,,,benitoR,001,b,2019_Oct_14_2032,Experimento,3.2.3,60.053426773653385,
8,14,14,999,0.5,0:10,3,Magenta,None,0,0,1,15:50,./completed_changuitos/montage_lxpqc_96.29_109.15.jpg,right,0,0,0,0,,,,,0,0,0,0,,,,,,,,,0,0,0,0,0,2,2,2,,,,,,,,,,,,,,,,,,147.14846089399362,147.6484135589999,None,1,147.14846089399362,147.14846089399362,,,,,,,,,,,,,,,,,,,,,,,,,,,,,,,,,,,,,,,,,,,,,,,,,,,,,,,,,,,,,benitoR,001,b,2019_Oct_14_2032,Experimento,3.2.3,60.053426773653385,
8,14,14,999,0.5,0:10,3,Cyan,None,0,0,1,15:50,./completed_changuitos/montage_lxpqc_96.29_109.15.jpg,right,0,0,0,0,,,,,0,0,0,0,,,,,,,,,0,0,0,0,0,3,3,3,,,,,,,,,,,,,,,,,,149.1485777380003,149.64841845000046,None,1,149.1485777380003,149.1485777380003,,,,,,,,,,,,,,,,,,,,,,,,,,,,,,,,,,,,,,,,,,,,,,,,,,,,,,,,,,,,,benitoR,001,b,2019_Oct_14_2032,Experimento,3.2.3,60.053426773653385,
8,14,14,999,0.5,0:10,3,Blue,None,0,0,1,15:50,./completed_changuitos/montage_lxpqc_96.29_109.15.jpg,right,0,0,0,0,,,,,0,0,0,0,,,,,,,,,0,0,0,0,0,4,4,4,,,,,,,,,,,,,,,,,,151.14843287100666,151.64826413299306,None,1,151.14843287100666,151.14843287100666,,,,,,,,,,,,,,,,,,,,,,,,,,,,,,,,,,,,,,,,,,,,,,,,,,,,,,,,,,,,,benitoR,001,b,2019_Oct_14_2032,Experimento,3.2.3,60.053426773653385,
8,14,14,999,0.5,0:10,3,Magenta,None,0,0,1,15:50,./completed_changuitos/montage_lxpqc_96.29_109.15.jpg,right,0,0,0,0,,,,,0,0,0,0,,,,,,,,,0,0,0,0,0,5,5,5,,,,,,,,,,,,,,,,,,153.14879869300057,153.64833366300445,None,1,153.14879869300057,153.14879869300057,,,,,,,,,,,,,,,,,,,,,,,,,,,,,,,,,,,,,,,,,,,,,,,,,,,,,,,,,,,,,benitoR,001,b,2019_Oct_14_2032,Experimento,3.2.3,60.053426773653385,
8,14,14,999,0.5,0:10,3,Blue,['space'],0,0,1,15:50,./completed_changuitos/montage_lxpqc_96.29_109.15.jpg,right,0,0,0,0,,,,,0,0,0,0,,,,,,,,,0,0,0,0,0,6,6,6,,,,,,,,,,,,,,,,,,155.1485430890025,155.64812605800398,['return'],0,155.1485430890025,155.1485430890025,[0.8200148820033064],,,,,,,,,,,,,,,,,,,,,,,,,,,,,,,,,,,,,,,,,,,,,,,,,,,,,,,,,,,,benitoR,001,b,2019_Oct_14_2032,Experimento,3.2.3,60.053426773653385,
8,14,14,999,0.5,0:10,3,Cyan,None,0,0,1,15:50,./completed_changuitos/montage_lxpqc_96.29_109.15.jpg,right,0,0,0,0,,,,,0,0,0,0,,,,,,,,,0,0,0,0,0,7,7,7,,,,,,,,,,,,,,,,,,157.11464194989676,None,None,1,157.11464194989676,None,,,,,,,,,,,,,,,,,,,,,,,,,,,,,,,,,,,,,,,,,,,,,,,,,,,,,,,,,,,,,benitoR,001,b,2019_Oct_14_2032,Experimento,3.2.3,60.053426773653385,
8,14,14,999,0.5,0:10,3,Yellow,None,0,0,1,15:50,./completed_changuitos/montage_lxpqc_96.29_109.15.jpg,right,0,0,0,0,,,,,0,0,0,0,,,,,,,,,0,0,0,0,0,8,8,8,,,,,,,,,,,,,,,,,,157.11464194989676,None,None,1,157.11464194989676,None,,,,,,,,,,,,,,,,,,,,,,,,,,,,,,,,,,,,,,,,,,,,,,,,,,,,,,,,,,,,,benitoR,001,b,2019_Oct_14_2032,Experimento,3.2.3,60.053426773653385,
8,14,14,999,0.5,0:10,3,Cyan,None,0,0,1,15:50,./completed_changuitos/montage_lxpqc_96.29_109.15.jpg,right,0,0,0,0,,,,,0,0,0,0,,,,,,,,,0,0,0,0,0,9,9,9,,,,,,,,,,,,,,,,,,157.11464194989676,None,None,1,157.11464194989676,None,,,,,,,,,,,,,,,,,,,,,,,,,,,,,,,,,,,,,,,,,,,,,,,,,,,,,,,,,,,,,benitoR,001,b,2019_Oct_14_2032,Experimento,3.2.3,60.053426773653385,
8,14,14,999,0.5,0:10,3,Blue,None,0,0,1,15:50,./completed_changuitos/montage_lxpqc_96.29_109.15.jpg,right,0,0,0,0,,,,,0,0,0,0,,,,,,,,,0,0,0,0,0,10,10,10,,,,,,,,,,,,,,,,,,157.11464194989676,None,None,1,157.11464194989676,None,,,,,,,,,,,,,,,,,,,,,,,,,,,,,,,,,,,,,,,,,,,,,,,,,,,,,,,,,,,,,benitoR,001,b,2019_Oct_14_2032,Experimento,3.2.3,60.053426773653385,
8,14,14,999,0.5,0:10,3,Cyan,['space'],0,0,1,15:50,./completed_changuitos/montage_lxpqc_96.29_109.15.jpg,right,0,0,0,0,,,,,0,0,0,0,,,,,,,,,0,0,0,0,0,11,11,11,,,,,,,,,,,,,,,,,,157.11464194989676,None,None,0,157.11464194989676,None,,,,,,,,,,,,,,,,,,,,,,,,,,,,,,,,,,,,,,,,,,,,,,,,,,,,,,,,,,,,,benitoR,001,b,2019_Oct_14_2032,Experimento,3.2.3,60.053426773653385,
8,14,14,999,0.5,0:10,3,Magenta,None,0,0,1,15:50,./completed_changuitos/montage_lxpqc_96.29_109.15.jpg,right,0,0,0,0,,,,,0,0,0,0,,,,,,,,,0,0,0,0,0,12,12,12,,,,,,,,,,,,,,,,,,157.11464194989676,None,None,1,157.11464194989676,None,,,,,,,,,,,,,,,,,,,,,,,,,,,,,,,,,,,,,,,,,,,,,,,,,,,,,,,,,,,,,benitoR,001,b,2019_Oct_14_2032,Experimento,3.2.3,60.053426773653385,
8,14,14,999,0.5,0:10,3,Red,None,0,0,1,15:50,./completed_changuitos/montage_lxpqc_96.29_109.15.jpg,right,0,0,0,0,,,,,0,0,0,0,,,,,,,,,0,0,0,0,0,13,13,13,,,,,,,,,,,,,,,,,,157.11464194989676,None,None,1,157.11464194989676,None,,,,,,,,,,,,,,,,,,,,,,,,,,,,,,,,,,,,,,,,,,,,,,,,,,,,,,,,,,,,,benitoR,001,b,2019_Oct_14_2032,Experimento,3.2.3,60.053426773653385,
8,14,14,999,0.5,0:10,3,Magenta,['space'],0,0,1,15:50,./completed_changuitos/montage_lxpqc_96.29_109.15.jpg,right,0,0,0,0,,,,,0,0,0,0,,,,,,,,,0,0,0,0,0,14,14,14,,,,,,,,,,,,,,,,,,157.13101485279623,None,None,0,157.13101485279623,None,,,,,,,,,,,,,,,,,,,,,,,,,,,,,,,,,,,,,,,,,,,,,,,,,,,,,,,,,,,,,benitoR,001,b,2019_Oct_14_2032,Experimento,3.2.3,60.053426773653385,
8,14,14,999,0.5,0:10,3,Green,None,0,0,1,15:50,./completed_changuitos/montage_lxpqc_96.29_109.15.jpg,right,0,0,0,0,,,,,0,0,0,0,,,,,,,,,0,0,0,0,0,15,15,15,,,,,,,,,,,,,,,,,,157.13101485279623,None,None,1,157.13101485279623,None,,,,,,,,,,,,,,,,,,,,,,,,,,,,,,,,,,,,,,,,,,,,,,,,,,,,,,,,,,,,,benitoR,001,b,2019_Oct_14_2032,Experimento,3.2.3,60.053426773653385,
8,14,14,999,0.5,0:10,3,Yellow,['space'],0,0,1,15:50,./completed_changuitos/montage_lxpqc_96.29_109.15.jpg,right,0,0,0,0,,,,,0,0,0,0,,,,,,,,,0,0,0,0,0,16,16,16,,,,,,,,,,,,,,,,,,157.13101485279623,None,None,0,157.13101485279623,None,,,,,,,,,,,,,,,,,,,,,,,,,,,,,,,,,,,,,,,,,,,,,,,,,,,,,,,,,,,,,benitoR,001,b,2019_Oct_14_2032,Experimento,3.2.3,60.053426773653385,
8,14,14,999,0.5,0:10,3,Blue,None,0,0,1,15:50,./completed_changuitos/montage_lxpqc_96.29_109.15.jpg,right,0,0,0,0,,,,,0,0,0,0,,,,,,,,,0,0,0,0,0,17,17,17,,,,,,,,,,,,,,,,,,157.13101485279623,None,None,1,157.13101485279623,None,,,,,,,,,,,,,,,,,,,,,,,,,,,,,,,,,,,,,,,,,,,,,,,,,,,,,,,,,,,,,benitoR,001,b,2019_Oct_14_2032,Experimento,3.2.3,60.053426773653385,
8,14,14,999,0.5,0:10,3,Cyan,None,0,0,1,15:50,./completed_changuitos/montage_lxpqc_96.29_109.15.jpg,right,0,0,0,0,,,,,0,0,0,0,,,,,,,,,0,0,0,0,0,18,18,18,,,,,,,,,,,,,,,,,,157.13101485279623,None,None,1,157.13101485279623,None,,,,,,,,,,,,,,,,,,,,,,,,,,,,,,,,,,,,,,,,,,,,,,,,,,,,,,,,,,,,,benitoR,001,b,2019_Oct_14_2032,Experimento,3.2.3,60.053426773653385,
8,14,14,999,0.5,0:10,3,Blue,['space'],0,0,1,15:50,./completed_changuitos/montage_lxpqc_96.29_109.15.jpg,right,0,0,0,0,,,,,0,0,0,0,,,,,,,,,0,0,0,0,0,19,19,19,,,,,,,,,,,,,,,,,,157.13101485279623,None,None,0,157.13101485279623,None,,,,,,,,,,,,,,,,,,,,,,,,,,,,,,,,,,,,,,,,,,,,,,,,,,,,,,,,,,,,,benitoR,001,b,2019_Oct_14_2032,Experimento,3.2.3,60.053426773653385,
8,14,14,999,0.5,0:10,3,Yellow,None,0,0,1,15:50,./completed_changuitos/montage_lxpqc_96.29_109.15.jpg,right,0,0,0,0,,,,,0,0,0,0,,,,,,,,,0,0,0,0,0,20,20,20,,,,,,,,,,,,,,,,,,157.13101485279623,None,None,1,157.13101485279623,None,,,,,,,,,,,,,,,,,,,,,,,,,,,,,,,,,,,,,,,,,,,,,,,,,,,,,,,,,,,,,benitoR,001,b,2019_Oct_14_2032,Experimento,3.2.3,60.053426773653385,
8,14,14,999,0.5,0:10,3,Cyan,None,0,0,1,15:50,./completed_changuitos/montage_lxpqc_96.29_109.15.jpg,right,0,0,0,0,,,,,0,0,0,0,,,,,,,,,0,0,0,0,0,21,21,21,,,,,,,,,,,,,,,,,,157.13101485279623,None,None,1,157.13101485279623,None,,,,,,,,,,,,,,,,,,,,,,,,,,,,,,,,,,,,,,,,,,,,,,,,,,,,,,,,,,,,,benitoR,001,b,2019_Oct_14_2032,Experimento,3.2.3,60.053426773653385,
8,14,14,999,0.5,0:10,3,Yellow,['space'],0,0,1,15:50,./completed_changuitos/montage_lxpqc_96.29_109.15.jpg,right,0,0,0,0,,,,,0,0,0,0,,,,,,,,,0,0,0,0,0,22,22,22,,,,,,,,,,,,,,,,,,157.13101485279623,None,None,0,157.13101485279623,None,,,,,,,,,,,,,,,,,,,,,,,,,,,,,,,,,,,,,,,,,,,,,,,,,,,,,,,,,,,,,benitoR,001,b,2019_Oct_14_2032,Experimento,3.2.3,60.053426773653385,
8,14,14,999,0.5,0:10,3,Magenta,None,0,0,1,15:50,./completed_changuitos/montage_lxpqc_96.29_109.15.jpg,right,0,0,0,0,,,,,0,0,0,0,,,,,,,,,0,0,0,0,0,23,23,23,,,,,,,,,,,,,,,,,,157.13101485279623,None,None,1,157.13101485279623,None,,,,,,,,,,,,,,,,,,,,,,,,,,,,,,,,,,,,,,,,,,,,,,,,,,,,,,,,,,,,,benitoR,001,b,2019_Oct_14_2032,Experimento,3.2.3,60.053426773653385,
8,14,14,999,0.5,0:10,3,Red,None,0,0,1,15:50,./completed_changuitos/montage_lxpqc_96.29_109.15.jpg,right,0,0,0,0,,,,,0,0,0,0,,,,,,,,,0,0,0,0,0,24,24,24,,,,,,,,,,,,,,,,,,157.13101485279623,None,None,1,157.13101485279623,None,,,,,,,,,,,,,,,,,,,,,,,,,,,,,,,,,,,,,,,,,,,,,,,,,,,,,,,,,,,,,benitoR,001,b,2019_Oct_14_2032,Experimento,3.2.3,60.053426773653385,
8,14,14,999,0.5,0:10,3,Magenta,['space'],0,0,1,15:50,./completed_changuitos/montage_lxpqc_96.29_109.15.jpg,right,0,0,0,0,,,,,0,0,0,0,,,,,,,,,0,0,0,0,0,25,25,25,,,,,,,,,,,,,,,,,,157.1473877556957,None,None,0,157.1473877556957,None,,,,,,,,,,,,,,,,,,,,,,,,,,,,,,,,,,,,,,,,,,,,,,,,,,,,,,,,,,,,,benitoR,001,b,2019_Oct_14_2032,Experimento,3.2.3,60.053426773653385,
8,14,14,999,0.5,0:10,3,Red,['space'],0,0,1,15:50,./completed_changuitos/montage_lxpqc_96.29_109.15.jpg,right,0,0,0,0,,,,,0,0,0,0,,,,,,,,,0,0,0,0,0,26,26,26,,,,,,,,,,,,,,,,,,157.1473877556957,None,None,0,157.1473877556957,None,,,,,,,,,,,,,,,,,,,,,,,,,,,,,,,,,,,,,,,,,,,,,,,,,,,,,,,,,,,,,benitoR,001,b,2019_Oct_14_2032,Experimento,3.2.3,60.053426773653385,
8,14,14,999,0.5,0:10,3,Yellow,None,0,0,1,15:50,./completed_changuitos/montage_lxpqc_96.29_109.15.jpg,right,0,0,0,0,,,,,0,0,0,0,,,,,,,,,0,0,0,0,0,27,27,27,,,,,,,,,,,,,,,,,,157.1473877556957,None,None,1,157.1473877556957,None,,,,,,,,,,,,,,,,,,,,,,,,,,,,,,,,,,,,,,,,,,,,,,,,,,,,,,,,,,,,,benitoR,001,b,2019_Oct_14_2032,Experimento,3.2.3,60.053426773653385,
8,14,14,999,0.5,0:10,3,Cyan,None,0,0,1,15:50,./completed_changuitos/montage_lxpqc_96.29_109.15.jpg,right,0,0,0,0,,,,,0,0,0,0,,,,,,,,,0,0,0,0,0,28,28,28,,,,,,,,,,,,,,,,,,157.1473877556957,None,None,1,157.1473877556957,None,,,,,,,,,,,,,,,,,,,,,,,,,,,,,,,,,,,,,,,,,,,,,,,,,,,,,,,,,,,,,benitoR,001,b,2019_Oct_14_2032,Experimento,3.2.3,60.053426773653385,
8,14,14,999,0.5,0:10,3,Green,None,0,0,1,15:50,./completed_changuitos/montage_lxpqc_96.29_109.15.jpg,right,0,0,0,0,,,,,0,0,0,0,,,,,,,,,0,0,0,0,0,29,29,29,,,,,,,,,,,,,,,,,,157.1473877556957,None,None,1,157.1473877556957,None,,,,,,,,,,,,,,,,,,,,,,,,,,,,,,,,,,,,,,,,,,,,,,,,,,,,,,,,,,,,,benitoR,001,b,2019_Oct_14_2032,Experimento,3.2.3,60.053426773653385,
8,14,14,999,0.5,0:10,3,White,None,0,0,1,15:50,./completed_changuitos/montage_lxpqc_96.29_109.15.jpg,right,0,0,0,0,,,,,0,0,0,0,,,,,,,,,0,0,0,0,0,30,30,30,,,,,,,,,,,,,,,,,,157.1473877556957,None,None,1,157.1473877556957,None,,,,,,,,,,,,,,,,,,,,,,,,,,,,,,,,,,,,,,,,,,,,,,,,,,,,,,,,,,,,,benitoR,001,b,2019_Oct_14_2032,Experimento,3.2.3,60.053426773653385,
8,14,14,999,0.5,0:10,3,Green,['space'],0,0,1,15:50,./completed_changuitos/montage_lxpqc_96.29_109.15.jpg,right,0,0,0,0,,,,,0,0,0,0,,,,,,,,,0,0,0,0,0,31,31,31,,,,,,,,,,,,,,,,,,157.1473877556957,None,None,0,157.1473877556957,None,,,,,,,,,,,,,,,,,,,,,,,,,,,,,,,,,,,,,,,,,,,,,,,,,,,,,,,,,,,,,benitoR,001,b,2019_Oct_14_2032,Experimento,3.2.3,60.053426773653385,
8,14,14,999,0.5,0:10,3,Red,None,0,0,1,15:50,./completed_changuitos/montage_lxpqc_96.29_109.15.jpg,right,0,0,0,0,,,,,0,0,0,0,,,,,,,,,0,0,0,0,0,32,32,32,,,,,,,,,,,,,,,,,,157.1473877556957,None,None,1,157.1473877556957,None,,,,,,,,,,,,,,,,,,,,,,,,,,,,,,,,,,,,,,,,,,,,,,,,,,,,,,,,,,,,,benitoR,001,b,2019_Oct_14_2032,Experimento,3.2.3,60.053426773653385,
8,14,14,999,0.5,0:10,3,Blue,None,0,0,1,15:50,./completed_changuitos/montage_lxpqc_96.29_109.15.jpg,right,0,0,0,0,,,,,0,0,0,0,,,,,,,,,0,0,0,0,0,33,33,33,,,,,,,,,,,,,,,,,,157.1473877556957,None,None,1,157.1473877556957,None,,,,,,,,,,,,,,,,,,,,,,,,,,,,,,,,,,,,,,,,,,,,,,,,,,,,,,,,,,,,,benitoR,001,b,2019_Oct_14_2032,Experimento,3.2.3,60.053426773653385,
8,14,14,999,0.5,0:10,3,Green,None,0,0,1,15:50,./completed_changuitos/montage_lxpqc_96.29_109.15.jpg,right,0,0,0,0,,,,,0,0,0,0,,,,,,,,,0,0,0,0,0,34,34,34,,,,,,,,,,,,,,,,,,157.1473877556957,None,None,1,157.1473877556957,None,,,,,,,,,,,,,,,,,,,,,,,,,,,,,,,,,,,,,,,,,,,,,,,,,,,,,,,,,,,,,benitoR,001,b,2019_Oct_14_2032,Experimento,3.2.3,60.053426773653385,
8,14,14,999,0.5,0:10,3,,,0,0,1,15:50,./completed_changuitos/montage_lxpqc_96.29_109.15.jpg,right,0,0,0,0,,,,,0,0,0,0,,,,,,,,,0,0,0,0,,,,,,,,,,,,,,,,,,,,,,,,,,,,,157.24930811500235,None,right,1,7.004780589995789,157.24930811500235,None,157.24930811500235,160.26459466399683,,,,,,,,,,,,,,,,,,,,,,,,,,,,,,,,,,,,,,,,,,,,,,,,,,,benitoR,001,b,2019_Oct_14_2032,Experimento,3.2.3,60.053426773653385,
8,14,14,999,0.5,0:10,3,,,0,0,1,15:50,,,0,0,0,0,,,,,0,0,0,0,,,,,,,,,,,,,,,,,,,,,,,,,,,,,,,,,,,,,,,,,,,,,,,,,,,,,,,,,,,,,,,,,,,,,,,,,,,,,,,,,,,,,,,,,,,,,,,,,,,,benitoR,001,b,2019_Oct_14_2032,Experimento,3.2.3,60.053426773653385,
8,14,14,999,0.5,0:10,3,,,0,1,0,19:50,./completed_changuitos/montage_jcmey_71.69_84.55.jpg,right,0,0,0,0,,,,,0,1,1,1,,,,,0,0,0,0,,,,,,,,,,,,,,,,,,,,,,,,,,,,,,,,,,,,,,,,,,164.59936573299638,172.91875081599574,172.91875081599574,180.93047246799688,180.93047246799688,194.92958627900225,right,1,4.508293247999973,194.92958627900225,None,194.92958627900225,None,194.92958627900225,197.93027541899937,,,,,,,,,,,,,,,,,,,,,,,,,,,,,,,,,,,,benitoR,001,b,2019_Oct_14_2032,Experimento,3.2.3,60.053426773653385,
8,14,14,999,0.5,0:10,3,,,0,1,0,19:50,,,0,0,0,0,,,,,0,1,1,1,,,,,,,,,,,,,,,,,,,,,,,,,,,,,,,,,,,,,,,,,,,,,,,,,,,,,,,,,,,,,,,,,,,,,,,,,,,,,,,,,,,,,,,,,,,,,,,,,,,,benitoR,001,b,2019_Oct_14_2032,Experimento,3.2.3,60.053426773653385,
8,14,14,999,0.5,0:10,3,Magenta,None,0,0,1,20:50,./completed_changuitos/montage_dxlru_106.79_123.05.jpg,right,0,0,0,0,,,,,0,2,2,2,,,,,,,,,0,0,0,0,0,0,0,0,,,,,,,,,,,,,,199.69797117500275,214.71522654000728,214.71522654000728,None,222.76321174099576,223.26411763500073,None,1,222.76321174099576,None,,,,,,,,,,,,,,,,,,,,,,,,,,,,,,,,,,,,,,,,,,,,,,,,,,,,,,,,,,,,,benitoR,001,b,2019_Oct_14_2032,Experimento,3.2.3,60.053426773653385,
8,14,14,999,0.5,0:10,3,Blue,['space'],0,0,1,20:50,./completed_changuitos/montage_dxlru_106.79_123.05.jpg,right,0,0,0,0,,,,,0,2,2,2,,,,,,,,,0,0,0,0,0,1,1,1,,,,,,,,,,,,,,,,,,224.76557302099536,225.28013107000152,None,0,224.76557302099536,224.76557302099536,,,,,,,,,,,,,,,,,,,,,,,,,,,,,,,,,,,,,,,,,,,,,,,,,,,,,,,,,,,,,benitoR,001,b,2019_Oct_14_2032,Experimento,3.2.3,60.053426773653385,
8,14,14,999,0.5,0:10,3,Cyan,None,0,0,1,20:50,./completed_changuitos/montage_dxlru_106.79_123.05.jpg,right,0,0,0,0,,,,,0,2,2,2,,,,,,,,,0,0,0,0,0,2,2,2,,,,,,,,,,,,,,,,,,226.78091893700184,227.28058476600563,None,1,226.78091893700184,226.78091893700184,,,,,,,,,,,,,,,,,,,,,,,,,,,,,,,,,,,,,,,,,,,,,,,,,,,,,,,,,,,,,benitoR,001,b,2019_Oct_14_2032,Experimento,3.2.3,60.053426773653385,
8,14,14,999,0.5,0:10,3,Yellow,None,0,0,1,20:50,./completed_changuitos/montage_dxlru_106.79_123.05.jpg,right,0,0,0,0,,,,,0,2,2,2,,,,,,,,,0,0,0,0,0,3,3,3,,,,,,,,,,,,,,,,,,228.7808563449944,229.2805546229938,None,1,228.7808563449944,228.7808563449944,,,,,,,,,,,,,,,,,,,,,,,,,,,,,,,,,,,,,,,,,,,,,,,,,,,,,,,,,,,,,benitoR,001,b,2019_Oct_14_2032,Experimento,3.2.3,60.053426773653385,
8,14,14,999,0.5,0:10,3,Cyan,None,0,0,1,20:50,./completed_changuitos/montage_dxlru_106.79_123.05.jpg,right,0,0,0,0,,,,,0,2,2,2,,,,,,,,,0,0,0,0,0,4,4,4,,,,,,,,,,,,,,,,,,230.78093463199912,231.280588263995,['return'],0,230.78093463199912,230.78093463199912,[1.1560380550072296],,,,,,,,,,,,,,,,,,,,,,,,,,,,,,,,,,,,,,,,,,,,,,,,,,,,,,,,,,,,benitoR,001,b,2019_Oct_14_2032,Experimento,3.2.3,60.053426773653385,
8,14,14,999,0.5,0:10,3,Blue,None,0,0,1,20:50,./completed_changuitos/montage_dxlru_106.79_123.05.jpg,right,0,0,0,0,,,,,0,2,2,2,,,,,,,,,0,0,0,0,0,5,5,5,,,,,,,,,,,,,,,,,,232.78059663600288,233.28067342400027,None,1,232.78059663600288,232.78059663600288,,,,,,,,,,,,,,,,,,,,,,,,,,,,,,,,,,,,,,,,,,,,,,,,,,,,,,,,,,,,,benitoR,001,b,2019_Oct_14_2032,Experimento,3.2.3,60.053426773653385,
8,14,14,999,0.5,0:10,3,Cyan,['space'],0,0,1,20:50,./completed_changuitos/montage_dxlru_106.79_123.05.jpg,right,0,0,0,0,,,,,0,2,2,2,,,,,,,,,0,0,0,0,0,6,6,6,,,,,,,,,,,,,,,,,,234.78072578299907,235.28058733799844,['return'],0,234.78072578299907,234.78072578299907,[0.48093405600229744],,,,,,,,,,,,,,,,,,,,,,,,,,,,,,,,,,,,,,,,,,,,,,,,,,,,,,,,,,,,benitoR,001,b,2019_Oct_14_2032,Experimento,3.2.3,60.053426773653385,
8,14,14,999,0.5,0:10,3,Magenta,None,0,0,1,20:50,./completed_changuitos/montage_dxlru_106.79_123.05.jpg,right,0,0,0,0,,,,,0,2,2,2,,,,,,,,,0,0,0,0,0,7,7,7,,,,,,,,,,,,,,,,,,236.72959381890396,None,None,1,236.72959381890396,None,,,,,,,,,,,,,,,,,,,,,,,,,,,,,,,,,,,,,,,,,,,,,,,,,,,,,,,,,,,,,benitoR,001,b,2019_Oct_14_2032,Experimento,3.2.3,60.053426773653385,
8,14,14,999,0.5,0:10,3,Red,None,0,0,1,20:50,./completed_changuitos/montage_dxlru_106.79_123.05.jpg,right,0,0,0,0,,,,,0,2,2,2,,,,,,,,,0,0,0,0,0,8,8,8,,,,,,,,,,,,,,,,,,236.72959381890396,None,None,1,236.72959381890396,None,,,,,,,,,,,,,,,,,,,,,,,,,,,,,,,,,,,,,,,,,,,,,,,,,,,,,,,,,,,,,benitoR,001,b,2019_Oct_14_2032,Experimento,3.2.3,60.053426773653385,
8,14,14,999,0.5,0:10,3,Magenta,['space'],0,0,1,20:50,./completed_changuitos/montage_dxlru_106.79_123.05.jpg,right,0,0,0,0,,,,,0,2,2,2,,,,,,,,,0,0,0,0,0,9,9,9,,,,,,,,,,,,,,,,,,236.72959381890396,None,None,0,236.72959381890396,None,,,,,,,,,,,,,,,,,,,,,,,,,,,,,,,,,,,,,,,,,,,,,,,,,,,,,,,,,,,,,benitoR,001,b,2019_Oct_14_2032,Experimento,3.2.3,60.053426773653385,
8,14,14,999,0.5,0:10,3,Green,None,0,0,1,20:50,./completed_changuitos/montage_dxlru_106.79_123.05.jpg,right,0,0,0,0,,,,,0,2,2,2,,,,,,,,,0,0,0,0,0,10,10,10,,,,,,,,,,,,,,,,,,236.72959381890396,None,None,1,236.72959381890396,None,,,,,,,,,,,,,,,,,,,,,,,,,,,,,,,,,,,,,,,,,,,,,,,,,,,,,,,,,,,,,benitoR,001,b,2019_Oct_14_2032,Experimento,3.2.3,60.053426773653385,
8,14,14,999,0.5,0:10,3,Yellow,['space'],0,0,1,20:50,./completed_changuitos/montage_dxlru_106.79_123.05.jpg,right,0,0,0,0,,,,,0,2,2,2,,,,,,,,,0,0,0,0,0,11,11,11,,,,,,,,,,,,,,,,,,236.74596672180343,None,None,0,236.74596672180343,None,,,,,,,,,,,,,,,,,,,,,,,,,,,,,,,,,,,,,,,,,,,,,,,,,,,,,,,,,,,,,benitoR,001,b,2019_Oct_14_2032,Experimento,3.2.3,60.053426773653385,
8,14,14,999,0.5,0:10,3,Blue,None,0,0,1,20:50,./completed_changuitos/montage_dxlru_106.79_123.05.jpg,right,0,0,0,0,,,,,0,2,2,2,,,,,,,,,0,0,0,0,0,12,12,12,,,,,,,,,,,,,,,,,,236.74596672180343,None,None,1,236.74596672180343,None,,,,,,,,,,,,,,,,,,,,,,,,,,,,,,,,,,,,,,,,,,,,,,,,,,,,,,,,,,,,,benitoR,001,b,2019_Oct_14_2032,Experimento,3.2.3,60.053426773653385,
8,14,14,999,0.5,0:10,3,Cyan,None,0,0,1,20:50,./completed_changuitos/montage_dxlru_106.79_123.05.jpg,right,0,0,0,0,,,,,0,2,2,2,,,,,,,,,0,0,0,0,0,13,13,13,,,,,,,,,,,,,,,,,,236.74596672180343,None,None,1,236.74596672180343,None,,,,,,,,,,,,,,,,,,,,,,,,,,,,,,,,,,,,,,,,,,,,,,,,,,,,,,,,,,,,,benitoR,001,b,2019_Oct_14_2032,Experimento,3.2.3,60.053426773653385,
8,14,14,999,0.5,0:10,3,Blue,['space'],0,0,1,20:50,./completed_changuitos/montage_dxlru_106.79_123.05.jpg,right,0,0,0,0,,,,,0,2,2,2,,,,,,,,,0,0,0,0,0,14,14,14,,,,,,,,,,,,,,,,,,236.74596672180343,None,None,0,236.74596672180343,None,,,,,,,,,,,,,,,,,,,,,,,,,,,,,,,,,,,,,,,,,,,,,,,,,,,,,,,,,,,,,benitoR,001,b,2019_Oct_14_2032,Experimento,3.2.3,60.053426773653385,
8,14,14,999,0.5,0:10,3,Yellow,None,0,0,1,20:50,./completed_changuitos/montage_dxlru_106.79_123.05.jpg,right,0,0,0,0,,,,,0,2,2,2,,,,,,,,,0,0,0,0,0,15,15,15,,,,,,,,,,,,,,,,,,236.74596672180343,None,None,1,236.74596672180343,None,,,,,,,,,,,,,,,,,,,,,,,,,,,,,,,,,,,,,,,,,,,,,,,,,,,,,,,,,,,,,benitoR,001,b,2019_Oct_14_2032,Experimento,3.2.3,60.053426773653385,
8,14,14,999,0.5,0:10,3,Cyan,None,0,0,1,20:50,./completed_changuitos/montage_dxlru_106.79_123.05.jpg,right,0,0,0,0,,,,,0,2,2,2,,,,,,,,,0,0,0,0,0,16,16,16,,,,,,,,,,,,,,,,,,236.74596672180343,None,None,1,236.74596672180343,None,,,,,,,,,,,,,,,,,,,,,,,,,,,,,,,,,,,,,,,,,,,,,,,,,,,,,,,,,,,,,benitoR,001,b,2019_Oct_14_2032,Experimento,3.2.3,60.053426773653385,
8,14,14,999,0.5,0:10,3,Yellow,['space'],0,0,1,20:50,./completed_changuitos/montage_dxlru_106.79_123.05.jpg,right,0,0,0,0,,,,,0,2,2,2,,,,,,,,,0,0,0,0,0,17,17,17,,,,,,,,,,,,,,,,,,236.74596672180343,None,None,0,236.74596672180343,None,,,,,,,,,,,,,,,,,,,,,,,,,,,,,,,,,,,,,,,,,,,,,,,,,,,,,,,,,,,,,benitoR,001,b,2019_Oct_14_2032,Experimento,3.2.3,60.053426773653385,
8,14,14,999,0.5,0:10,3,Magenta,None,0,0,1,20:50,./completed_changuitos/montage_dxlru_106.79_123.05.jpg,right,0,0,0,0,,,,,0,2,2,2,,,,,,,,,0,0,0,0,0,18,18,18,,,,,,,,,,,,,,,,,,236.74596672180343,None,None,1,236.74596672180343,None,,,,,,,,,,,,,,,,,,,,,,,,,,,,,,,,,,,,,,,,,,,,,,,,,,,,,,,,,,,,,benitoR,001,b,2019_Oct_14_2032,Experimento,3.2.3,60.053426773653385,
8,14,14,999,0.5,0:10,3,Red,None,0,0,1,20:50,./completed_changuitos/montage_dxlru_106.79_123.05.jpg,right,0,0,0,0,,,,,0,2,2,2,,,,,,,,,0,0,0,0,0,19,19,19,,,,,,,,,,,,,,,,,,236.74596672180343,None,None,1,236.74596672180343,None,,,,,,,,,,,,,,,,,,,,,,,,,,,,,,,,,,,,,,,,,,,,,,,,,,,,,,,,,,,,,benitoR,001,b,2019_Oct_14_2032,Experimento,3.2.3,60.053426773653385,
8,14,14,999,0.5,0:10,3,Magenta,['space'],0,0,1,20:50,./completed_changuitos/montage_dxlru_106.79_123.05.jpg,right,0,0,0,0,,,,,0,2,2,2,,,,,,,,,0,0,0,0,0,20,20,20,,,,,,,,,,,,,,,,,,236.74596672180343,None,None,0,236.74596672180343,None,,,,,,,,,,,,,,,,,,,,,,,,,,,,,,,,,,,,,,,,,,,,,,,,,,,,,,,,,,,,,benitoR,001,b,2019_Oct_14_2032,Experimento,3.2.3,60.053426773653385,
8,14,14,999,0.5,0:10,3,Red,['space'],0,0,1,20:50,./completed_changuitos/montage_dxlru_106.79_123.05.jpg,right,0,0,0,0,,,,,0,2,2,2,,,,,,,,,0,0,0,0,0,21,21,21,,,,,,,,,,,,,,,,,,236.7623396247029,None,None,0,236.7623396247029,None,,,,,,,,,,,,,,,,,,,,,,,,,,,,,,,,,,,,,,,,,,,,,,,,,,,,,,,,,,,,,benitoR,001,b,2019_Oct_14_2032,Experimento,3.2.3,60.053426773653385,
8,14,14,999,0.5,0:10,3,Yellow,None,0,0,1,20:50,./completed_changuitos/montage_dxlru_106.79_123.05.jpg,right,0,0,0,0,,,,,0,2,2,2,,,,,,,,,0,0,0,0,0,22,22,22,,,,,,,,,,,,,,,,,,236.7623396247029,None,None,1,236.7623396247029,None,,,,,,,,,,,,,,,,,,,,,,,,,,,,,,,,,,,,,,,,,,,,,,,,,,,,,,,,,,,,,benitoR,001,b,2019_Oct_14_2032,Experimento,3.2.3,60.053426773653385,
8,14,14,999,0.5,0:10,3,Cyan,None,0,0,1,20:50,./completed_changuitos/montage_dxlru_106.79_123.05.jpg,right,0,0,0,0,,,,,0,2,2,2,,,,,,,,,0,0,0,0,0,23,23,23,,,,,,,,,,,,,,,,,,236.7623396247029,None,None,1,236.7623396247029,None,,,,,,,,,,,,,,,,,,,,,,,,,,,,,,,,,,,,,,,,,,,,,,,,,,,,,,,,,,,,,benitoR,001,b,2019_Oct_14_2032,Experimento,3.2.3,60.053426773653385,
8,14,14,999,0.5,0:10,3,Green,None,0,0,1,20:50,./completed_changuitos/montage_dxlru_106.79_123.05.jpg,right,0,0,0,0,,,,,0,2,2,2,,,,,,,,,0,0,0,0,0,24,24,24,,,,,,,,,,,,,,,,,,236.7623396247029,None,None,1,236.7623396247029,None,,,,,,,,,,,,,,,,,,,,,,,,,,,,,,,,,,,,,,,,,,,,,,,,,,,,,,,,,,,,,benitoR,001,b,2019_Oct_14_2032,Experimento,3.2.3,60.053426773653385,
8,14,14,999,0.5,0:10,3,White,None,0,0,1,20:50,./completed_changuitos/montage_dxlru_106.79_123.05.jpg,right,0,0,0,0,,,,,0,2,2,2,,,,,,,,,0,0,0,0,0,25,25,25,,,,,,,,,,,,,,,,,,236.7623396247029,None,None,1,236.7623396247029,None,,,,,,,,,,,,,,,,,,,,,,,,,,,,,,,,,,,,,,,,,,,,,,,,,,,,,,,,,,,,,benitoR,001,b,2019_Oct_14_2032,Experimento,3.2.3,60.053426773653385,
8,14,14,999,0.5,0:10,3,Green,['space'],0,0,1,20:50,./completed_changuitos/montage_dxlru_106.79_123.05.jpg,right,0,0,0,0,,,,,0,2,2,2,,,,,,,,,0,0,0,0,0,26,26,26,,,,,,,,,,,,,,,,,,236.7623396247029,None,None,0,236.7623396247029,None,,,,,,,,,,,,,,,,,,,,,,,,,,,,,,,,,,,,,,,,,,,,,,,,,,,,,,,,,,,,,benitoR,001,b,2019_Oct_14_2032,Experimento,3.2.3,60.053426773653385,
8,14,14,999,0.5,0:10,3,Red,None,0,0,1,20:50,./completed_changuitos/montage_dxlru_106.79_123.05.jpg,right,0,0,0,0,,,,,0,2,2,2,,,,,,,,,0,0,0,0,0,27,27,27,,,,,,,,,,,,,,,,,,236.7623396247029,None,None,1,236.7623396247029,None,,,,,,,,,,,,,,,,,,,,,,,,,,,,,,,,,,,,,,,,,,,,,,,,,,,,,,,,,,,,,benitoR,001,b,2019_Oct_14_2032,Experimento,3.2.3,60.053426773653385,
8,14,14,999,0.5,0:10,3,Blue,None,0,0,1,20:50,./completed_changuitos/montage_dxlru_106.79_123.05.jpg,right,0,0,0,0,,,,,0,2,2,2,,,,,,,,,0,0,0,0,0,28,28,28,,,,,,,,,,,,,,,,,,236.7623396247029,None,None,1,236.7623396247029,None,,,,,,,,,,,,,,,,,,,,,,,,,,,,,,,,,,,,,,,,,,,,,,,,,,,,,,,,,,,,,benitoR,001,b,2019_Oct_14_2032,Experimento,3.2.3,60.053426773653385,
8,14,14,999,0.5,0:10,3,Green,None,0,0,1,20:50,./completed_changuitos/montage_dxlru_106.79_123.05.jpg,right,0,0,0,0,,,,,0,2,2,2,,,,,,,,,0,0,0,0,0,29,29,29,,,,,,,,,,,,,,,,,,236.7623396247029,None,None,1,236.7623396247029,None,,,,,,,,,,,,,,,,,,,,,,,,,,,,,,,,,,,,,,,,,,,,,,,,,,,,,,,,,,,,,benitoR,001,b,2019_Oct_14_2032,Experimento,3.2.3,60.053426773653385,
8,14,14,999,0.5,0:10,3,,,0,0,1,20:50,./completed_changuitos/montage_dxlru_106.79_123.05.jpg,right,0,0,0,0,,,,,0,2,2,2,,,,,,,,,0,0,0,0,,,,,,,,,,,,,,,,,,,,,,,,,,,,,236.8640105259983,None,right,1,2.3393228689965326,236.8640105259983,None,236.8640105259983,None,,,,,,,,,,,,,,,,,,,,,,,,,,,,,,,,,,,,,,,,,,,,,,,,,,,benitoR,001,b,2019_Oct_14_2032,Experimento,3.2.3,60.053426773653385,
8,14,14,999,0.5,0:10,3,,,0,0,1,20:50,,,0,0,0,0,,,,,0,2,2,2,,,,,,,,,,,,,,,,,,,,,,,,,,,,,,,,,,,,,,,,,,,,,,,,,,,,,,,,,,,,,,,,,,,,,,,,,,,,,,,,,,,,,,,,,,,,,,,,,,,,benitoR,001,b,2019_Oct_14_2032,Experimento,3.2.3,60.053426773653385,
8,14,14,999,0.5,0:10,3,,,0,1,0,25:50,./completed_changuitos/montage_lceqc_146.19_171.09.jpg,right,0,0,0,0,,,,,0,3,3,3,,,,,0,0,0,0,,,,,,,,,,,,,,,,,,,,,,,,,,,,,,,,,,,,,,,,,,239.48083011100243,242.21728013199754,242.21728013199754,250.22940384599497,250.22940384599497,264.23035732300195,left,0,2.8851575650041923,264.23035732300195,None,264.23035732300195,None,264.23035732300195,None,,,,,,,,,,,,,,,,,,,,,,,,,,,,,,,,,,,,benitoR,001,b,2019_Oct_14_2032,Experimento,3.2.3,60.053426773653385,
8,14,14,999,0.5,0:10,3,,,0,1,0,25:50,,,0,0,0,0,,,,,0,3,3,3,,,,,,,,,,,,,,,,,,,,,,,,,,,,,,,,,,,,,,,,,,,,,,,,,,,,,,,,,,,,,,,,,,,,,,,,,,,,,,,,,,,,,,,,,,,,,,,,,,,,benitoR,001,b,2019_Oct_14_2032,Experimento,3.2.3,60.053426773653385,
8,14,14,999,0.5,0:10,3,Red,None,0,0,1,28:50,./completed_changuitos/montage_jdwdw_122.95_146.59.jpg,right,0,0,0,0,,,,,0,4,4,4,,,,,,,,,0,0,0,0,0,0,0,0,,,,,,,,,,,,,,267.3802604730008,269.7475523989997,269.7475523989997,None,277.7811658730061,278.2962444709992,None,1,277.7811658730061,None,,,,,,,,,,,,,,,,,,,,,,,,,,,,,,,,,,,,,,,,,,,,,,,,,,,,,,,,,,,,,benitoR,001,b,2019_Oct_14_2032,Experimento,3.2.3,60.053426773653385,
8,14,14,999,0.5,0:10,3,Magenta,['space'],0,0,1,28:50,./completed_changuitos/montage_jdwdw_122.95_146.59.jpg,right,0,0,0,0,,,,,0,4,4,4,,,,,,,,,0,0,0,0,0,1,1,1,,,,,,,,,,,,,,,,,,279.79637455199554,280.2960802529997,None,0,279.79637455199554,279.79637455199554,,,,,,,,,,,,,,,,,,,,,,,,,,,,,,,,,,,,,,,,,,,,,,,,,,,,,,,,,,,,,benitoR,001,b,2019_Oct_14_2032,Experimento,3.2.3,60.053426773653385,
8,14,14,999,0.5,0:10,3,Green,None,0,0,1,28:50,./completed_changuitos/montage_jdwdw_122.95_146.59.jpg,right,0,0,0,0,,,,,0,4,4,4,,,,,,,,,0,0,0,0,0,2,2,2,,,,,,,,,,,,,,,,,,281.79595063500165,282.29618715299875,None,1,281.79595063500165,281.79595063500165,,,,,,,,,,,,,,,,,,,,,,,,,,,,,,,,,,,,,,,,,,,,,,,,,,,,,,,,,,,,,benitoR,001,b,2019_Oct_14_2032,Experimento,3.2.3,60.053426773653385,
8,14,14,999,0.5,0:10,3,Yellow,['space'],0,0,1,28:50,./completed_changuitos/montage_jdwdw_122.95_146.59.jpg,right,0,0,0,0,,,,,0,4,4,4,,,,,,,,,0,0,0,0,0,3,3,3,,,,,,,,,,,,,,,,,,283.7956961549935,284.2962589939998,None,0,283.7956961549935,283.7956961549935,,,,,,,,,,,,,,,,,,,,,,,,,,,,,,,,,,,,,,,,,,,,,,,,,,,,,,,,,,,,,benitoR,001,b,2019_Oct_14_2032,Experimento,3.2.3,60.053426773653385,
8,14,14,999,0.5,0:10,3,Blue,None,0,0,1,28:50,./completed_changuitos/montage_jdwdw_122.95_146.59.jpg,right,0,0,0,0,,,,,0,4,4,4,,,,,,,,,0,0,0,0,0,4,4,4,,,,,,,,,,,,,,,,,,285.7957412310061,286.2959633989958,None,1,285.7957412310061,285.7957412310061,,,,,,,,,,,,,,,,,,,,,,,,,,,,,,,,,,,,,,,,,,,,,,,,,,,,,,,,,,,,,benitoR,001,b,2019_Oct_14_2032,Experimento,3.2.3,60.053426773653385,
8,14,14,999,0.5,0:10,3,Cyan,None,0,0,1,28:50,./completed_changuitos/montage_jdwdw_122.95_146.59.jpg,right,0,0,0,0,,,,,0,4,4,4,,,,,,,,,0,0,0,0,0,5,5,5,,,,,,,,,,,,,,,,,,287.79619994999666,288.29611844000465,None,1,287.79619994999666,287.79619994999666,,,,,,,,,,,,,,,,,,,,,,,,,,,,,,,,,,,,,,,,,,,,,,,,,,,,,,,,,,,,,benitoR,001,b,2019_Oct_14_2032,Experimento,3.2.3,60.053426773653385,
8,14,14,999,0.5,0:10,3,Blue,['space'],0,0,1,28:50,./completed_changuitos/montage_jdwdw_122.95_146.59.jpg,right,0,0,0,0,,,,,0,4,4,4,,,,,,,,,0,0,0,0,0,6,6,6,,,,,,,,,,,,,,,,,,289.79588263700134,290.2960959869961,['return'],0,289.79588263700134,289.79588263700134,[0.5275560699956259],,,,,,,,,,,,,,,,,,,,,,,,,,,,,,,,,,,,,,,,,,,,,,,,,,,,,,,,,,,,benitoR,001,b,2019_Oct_14_2032,Experimento,3.2.3,60.053426773653385,
8,14,14,999,0.5,0:10,3,Yellow,None,0,0,1,28:50,./completed_changuitos/montage_jdwdw_122.95_146.59.jpg,right,0,0,0,0,,,,,0,4,4,4,,,,,,,,,0,0,0,0,0,7,7,7,,,,,,,,,,,,,,,,,,291.7626015858972,None,None,1,291.7626015858972,None,,,,,,,,,,,,,,,,,,,,,,,,,,,,,,,,,,,,,,,,,,,,,,,,,,,,,,,,,,,,,benitoR,001,b,2019_Oct_14_2032,Experimento,3.2.3,60.053426773653385,
8,14,14,999,0.5,0:10,3,Cyan,None,0,0,1,28:50,./completed_changuitos/montage_jdwdw_122.95_146.59.jpg,right,0,0,0,0,,,,,0,4,4,4,,,,,,,,,0,0,0,0,0,8,8,8,,,,,,,,,,,,,,,,,,291.7626015858972,None,None,1,291.7626015858972,None,,,,,,,,,,,,,,,,,,,,,,,,,,,,,,,,,,,,,,,,,,,,,,,,,,,,,,,,,,,,,benitoR,001,b,2019_Oct_14_2032,Experimento,3.2.3,60.053426773653385,
8,14,14,999,0.5,0:10,3,Yellow,['space'],0,0,1,28:50,./completed_changuitos/montage_jdwdw_122.95_146.59.jpg,right,0,0,0,0,,,,,0,4,4,4,,,,,,,,,0,0,0,0,0,9,9,9,,,,,,,,,,,,,,,,,,291.7626015858972,None,None,0,291.7626015858972,None,,,,,,,,,,,,,,,,,,,,,,,,,,,,,,,,,,,,,,,,,,,,,,,,,,,,,,,,,,,,,benitoR,001,b,2019_Oct_14_2032,Experimento,3.2.3,60.053426773653385,
8,14,14,999,0.5,0:10,3,Magenta,None,0,0,1,28:50,./completed_changuitos/montage_jdwdw_122.95_146.59.jpg,right,0,0,0,0,,,,,0,4,4,4,,,,,,,,,0,0,0,0,0,10,10,10,,,,,,,,,,,,,,,,,,291.7626015858972,None,None,1,291.7626015858972,None,,,,,,,,,,,,,,,,,,,,,,,,,,,,,,,,,,,,,,,,,,,,,,,,,,,,,,,,,,,,,benitoR,001,b,2019_Oct_14_2032,Experimento,3.2.3,60.053426773653385,
8,14,14,999,0.5,0:10,3,Red,None,0,0,1,28:50,./completed_changuitos/montage_jdwdw_122.95_146.59.jpg,right,0,0,0,0,,,,,0,4,4,4,,,,,,,,,0,0,0,0,0,11,11,11,,,,,,,,,,,,,,,,,,291.7626015858972,None,None,1,291.7626015858972,None,,,,,,,,,,,,,,,,,,,,,,,,,,,,,,,,,,,,,,,,,,,,,,,,,,,,,,,,,,,,,benitoR,001,b,2019_Oct_14_2032,Experimento,3.2.3,60.053426773653385,
8,14,14,999,0.5,0:10,3,Magenta,['space'],0,0,1,28:50,./completed_changuitos/montage_jdwdw_122.95_146.59.jpg,right,0,0,0,0,,,,,0,4,4,4,,,,,,,,,0,0,0,0,0,12,12,12,,,,,,,,,,,,,,,,,,291.7626015858972,None,None,0,291.7626015858972,None,,,,,,,,,,,,,,,,,,,,,,,,,,,,,,,,,,,,,,,,,,,,,,,,,,,,,,,,,,,,,benitoR,001,b,2019_Oct_14_2032,Experimento,3.2.3,60.053426773653385,
8,14,14,999,0.5,0:10,3,Red,['space'],0,0,1,28:50,./completed_changuitos/montage_jdwdw_122.95_146.59.jpg,right,0,0,0,0,,,,,0,4,4,4,,,,,,,,,0,0,0,0,0,13,13,13,,,,,,,,,,,,,,,,,,291.7626015858972,None,None,0,291.7626015858972,None,,,,,,,,,,,,,,,,,,,,,,,,,,,,,,,,,,,,,,,,,,,,,,,,,,,,,,,,,,,,,benitoR,001,b,2019_Oct_14_2032,Experimento,3.2.3,60.053426773653385,
8,14,14,999,0.5,0:10,3,Yellow,None,0,0,1,28:50,./completed_changuitos/montage_jdwdw_122.95_146.59.jpg,right,0,0,0,0,,,,,0,4,4,4,,,,,,,,,0,0,0,0,0,14,14,14,,,,,,,,,,,,,,,,,,291.7789744887966,None,None,1,291.7789744887966,None,,,,,,,,,,,,,,,,,,,,,,,,,,,,,,,,,,,,,,,,,,,,,,,,,,,,,,,,,,,,,benitoR,001,b,2019_Oct_14_2032,Experimento,3.2.3,60.053426773653385,
8,14,14,999,0.5,0:10,3,Cyan,None,0,0,1,28:50,./completed_changuitos/montage_jdwdw_122.95_146.59.jpg,right,0,0,0,0,,,,,0,4,4,4,,,,,,,,,0,0,0,0,0,15,15,15,,,,,,,,,,,,,,,,,,291.7789744887966,None,None,1,291.7789744887966,None,,,,,,,,,,,,,,,,,,,,,,,,,,,,,,,,,,,,,,,,,,,,,,,,,,,,,,,,,,,,,benitoR,001,b,2019_Oct_14_2032,Experimento,3.2.3,60.053426773653385,
8,14,14,999,0.5,0:10,3,Green,None,0,0,1,28:50,./completed_changuitos/montage_jdwdw_122.95_146.59.jpg,right,0,0,0,0,,,,,0,4,4,4,,,,,,,,,0,0,0,0,0,16,16,16,,,,,,,,,,,,,,,,,,291.7789744887966,None,None,1,291.7789744887966,None,,,,,,,,,,,,,,,,,,,,,,,,,,,,,,,,,,,,,,,,,,,,,,,,,,,,,,,,,,,,,benitoR,001,b,2019_Oct_14_2032,Experimento,3.2.3,60.053426773653385,
8,14,14,999,0.5,0:10,3,White,None,0,0,1,28:50,./completed_changuitos/montage_jdwdw_122.95_146.59.jpg,right,0,0,0,0,,,,,0,4,4,4,,,,,,,,,0,0,0,0,0,17,17,17,,,,,,,,,,,,,,,,,,291.7789744887966,None,None,1,291.7789744887966,None,,,,,,,,,,,,,,,,,,,,,,,,,,,,,,,,,,,,,,,,,,,,,,,,,,,,,,,,,,,,,benitoR,001,b,2019_Oct_14_2032,Experimento,3.2.3,60.053426773653385,
8,14,14,999,0.5,0:10,3,Green,['space'],0,0,1,28:50,./completed_changuitos/montage_jdwdw_122.95_146.59.jpg,right,0,0,0,0,,,,,0,4,4,4,,,,,,,,,0,0,0,0,0,18,18,18,,,,,,,,,,,,,,,,,,291.7789744887966,None,None,0,291.7789744887966,None,,,,,,,,,,,,,,,,,,,,,,,,,,,,,,,,,,,,,,,,,,,,,,,,,,,,,,,,,,,,,benitoR,001,b,2019_Oct_14_2032,Experimento,3.2.3,60.053426773653385,
8,14,14,999,0.5,0:10,3,Red,None,0,0,1,28:50,./completed_changuitos/montage_jdwdw_122.95_146.59.jpg,right,0,0,0,0,,,,,0,4,4,4,,,,,,,,,0,0,0,0,0,19,19,19,,,,,,,,,,,,,,,,,,291.7789744887966,None,None,1,291.7789744887966,None,,,,,,,,,,,,,,,,,,,,,,,,,,,,,,,,,,,,,,,,,,,,,,,,,,,,,,,,,,,,,benitoR,001,b,2019_Oct_14_2032,Experimento,3.2.3,60.053426773653385,
8,14,14,999,0.5,0:10,3,Blue,None,0,0,1,28:50,./completed_changuitos/montage_jdwdw_122.95_146.59.jpg,right,0,0,0,0,,,,,0,4,4,4,,,,,,,,,0,0,0,0,0,20,20,20,,,,,,,,,,,,,,,,,,291.7789744887966,None,None,1,291.7789744887966,None,,,,,,,,,,,,,,,,,,,,,,,,,,,,,,,,,,,,,,,,,,,,,,,,,,,,,,,,,,,,,benitoR,001,b,2019_Oct_14_2032,Experimento,3.2.3,60.053426773653385,
8,14,14,999,0.5,0:10,3,Green,None,0,0,1,28:50,./completed_changuitos/montage_jdwdw_122.95_146.59.jpg,right,0,0,0,0,,,,,0,4,4,4,,,,,,,,,0,0,0,0,0,21,21,21,,,,,,,,,,,,,,,,,,291.7789744887966,None,None,1,291.7789744887966,None,,,,,,,,,,,,,,,,,,,,,,,,,,,,,,,,,,,,,,,,,,,,,,,,,,,,,,,,,,,,,benitoR,001,b,2019_Oct_14_2032,Experimento,3.2.3,60.053426773653385,
8,14,14,999,0.5,0:10,3,,,0,0,1,28:50,./completed_changuitos/montage_jdwdw_122.95_146.59.jpg,right,0,0,0,0,,,,,0,4,4,4,,,,,,,,,0,0,0,0,,,,,,,,,,,,,,,,,,,,,,,,,,,,,291.8800059329951,None,right,1,2.275216572001227,291.8800059329951,None,291.8800059329951,None,,,,,,,,,,,,,,,,,,,,,,,,,,,,,,,,,,,,,,,,,,,,,,,,,,,benitoR,001,b,2019_Oct_14_2032,Experimento,3.2.3,60.053426773653385,
8,14,14,999,0.5,0:10,3,,,0,0,1,28:50,,,0,0,0,0,,,,,0,4,4,4,,,,,,,,,,,,,,,,,,,,,,,,,,,,,,,,,,,,,,,,,,,,,,,,,,,,,,,,,,,,,,,,,,,,,,,,,,,,,,,,,,,,,,,,,,,,,,,,,,,,benitoR,001,b,2019_Oct_14_2032,Experimento,3.2.3,60.053426773653385,
8,14,14,999,0.5,0:10,3,,,0,1,0,10:50,./completed_changuitos/montage_ckzhm_42.79_36.9.jpg,left,0,0,0,0,,,,,0,5,5,5,,,,,0,0,0,0,,,,,,,,,,,,,,,,,,,,,,,,,,,,,,,,,,,,,,,,,,294.46426029200666,297.5821152330027,297.5821152330027,305.59542506799335,305.59542506799335,319.5951878890046,left,1,2.2589435749978293,319.5951878890046,None,319.5951878890046,None,319.5951878890046,None,,,,,,,,,,,,,,,,,,,,,,,,,,,,,,,,,,,,benitoR,001,b,2019_Oct_14_2032,Experimento,3.2.3,60.053426773653385,
8,14,14,999,0.5,0:10,3,,,0,1,0,10:50,,,0,0,0,0,,,,,0,5,5,5,,,,,,,,,,,,,,,,,,,,,,,,,,,,,,,,,,,,,,,,,,,,,,,,,,,,,,,,,,,,,,,,,,,,,,,,,,,,,,,,,,,,,,,,,,,,,,,,,,,,benitoR,001,b,2019_Oct_14_2032,Experimento,3.2.3,60.053426773653385,
8,14,14,999,0.5,0:10,3,Yellow,None,0,0,1,15:50,./completed_changuitos/montage_gisxa_69.9_60.99.jpg,left,0,0,0,0,,,,,0,6,6,6,,,,,,,,,0,0,0,0,0,0,0,0,,,,,,,,,,,,,,322.1499258160038,324.24833007200505,324.24833007200505,None,332.2951067630056,332.79560403799405,None,1,332.2951067630056,None,,,,,,,,,,,,,,,,,,,,,,,,,,,,,,,,,,,,,,,,,,,,,,,,,,,,,,,,,,,,,benitoR,001,b,2019_Oct_14_2032,Experimento,3.2.3,60.053426773653385,
8,14,14,999,0.5,0:10,3,White,['space'],0,0,1,15:50,./completed_changuitos/montage_gisxa_69.9_60.99.jpg,left,0,0,0,0,,,,,0,6,6,6,,,,,,,,,0,0,0,0,0,1,1,1,,,,,,,,,,,,,,,,,,334.2962779380032,334.79586102999747,None,0,334.2962779380032,334.2962779380032,,,,,,,,,,,,,,,,,,,,,,,,,,,,,,,,,,,,,,,,,,,,,,,,,,,,,,,,,,,,,benitoR,001,b,2019_Oct_14_2032,Experimento,3.2.3,60.053426773653385,
8,14,14,999,0.5,0:10,3,Magenta,None,0,0,1,15:50,./completed_changuitos/montage_gisxa_69.9_60.99.jpg,left,0,0,0,0,,,,,0,6,6,6,,,,,,,,,0,0,0,0,0,2,2,2,,,,,,,,,,,,,,,,,,336.3126908749982,336.81262470300135,None,1,336.3126908749982,336.3126908749982,,,,,,,,,,,,,,,,,,,,,,,,,,,,,,,,,,,,,,,,,,,,,,,,,,,,,,,,,,,,,benitoR,001,b,2019_Oct_14_2032,Experimento,3.2.3,60.053426773653385,
8,14,14,999,0.5,0:10,3,Cyan,None,0,0,1,15:50,./completed_changuitos/montage_gisxa_69.9_60.99.jpg,left,0,0,0,0,,,,,0,6,6,6,,,,,,,,,0,0,0,0,0,3,3,3,,,,,,,,,,,,,,,,,,338.3123473129963,338.8126776860008,None,1,338.3123473129963,338.3123473129963,,,,,,,,,,,,,,,,,,,,,,,,,,,,,,,,,,,,,,,,,,,,,,,,,,,,,,,,,,,,,benitoR,001,b,2019_Oct_14_2032,Experimento,3.2.3,60.053426773653385,
8,14,14,999,0.5,0:10,3,Blue,None,0,0,1,15:50,./completed_changuitos/montage_gisxa_69.9_60.99.jpg,left,0,0,0,0,,,,,0,6,6,6,,,,,,,,,0,0,0,0,0,4,4,4,,,,,,,,,,,,,,,,,,340.3127120160061,340.8126139100059,None,1,340.3127120160061,340.3127120160061,,,,,,,,,,,,,,,,,,,,,,,,,,,,,,,,,,,,,,,,,,,,,,,,,,,,,,,,,,,,,benitoR,001,b,2019_Oct_14_2032,Experimento,3.2.3,60.053426773653385,
8,14,14,999,0.5,0:10,3,Magenta,None,0,0,1,15:50,./completed_changuitos/montage_gisxa_69.9_60.99.jpg,left,0,0,0,0,,,,,0,6,6,6,,,,,,,,,0,0,0,0,0,5,5,5,,,,,,,,,,,,,,,,,,342.31292521199794,342.8124474570068,None,1,342.31292521199794,342.31292521199794,,,,,,,,,,,,,,,,,,,,,,,,,,,,,,,,,,,,,,,,,,,,,,,,,,,,,,,,,,,,,benitoR,001,b,2019_Oct_14_2032,Experimento,3.2.3,60.053426773653385,
8,14,14,999,0.5,0:10,3,Blue,['space'],0,0,1,15:50,./completed_changuitos/montage_gisxa_69.9_60.99.jpg,left,0,0,0,0,,,,,0,6,6,6,,,,,,,,,0,0,0,0,0,6,6,6,,,,,,,,,,,,,,,,,,344.3127186680067,344.81244730799517,['return'],0,344.3127186680067,344.3127186680067,[0.522647051999229],,,,,,,,,,,,,,,,,,,,,,,,,,,,,,,,,,,,,,,,,,,,,,,,,,,,,,,,,,,,benitoR,001,b,2019_Oct_14_2032,Experimento,3.2.3,60.053426773653385,
8,14,14,999,0.5,0:10,3,Cyan,None,0,0,1,15:50,./completed_changuitos/montage_gisxa_69.9_60.99.jpg,left,0,0,0,0,,,,,0,6,6,6,,,,,,,,,0,0,0,0,0,7,7,7,,,,,,,,,,,,,,,,,,346.2620894858977,None,None,1,346.2620894858977,None,,,,,,,,,,,,,,,,,,,,,,,,,,,,,,,,,,,,,,,,,,,,,,,,,,,,,,,,,,,,,benitoR,001,b,2019_Oct_14_2032,Experimento,3.2.3,60.053426773653385,
8,14,14,999,0.5,0:10,3,Yellow,None,0,0,1,15:50,./completed_changuitos/montage_gisxa_69.9_60.99.jpg,left,0,0,0,0,,,,,0,6,6,6,,,,,,,,,0,0,0,0,0,8,8,8,,,,,,,,,,,,,,,,,,346.2620894858977,None,None,1,346.2620894858977,None,,,,,,,,,,,,,,,,,,,,,,,,,,,,,,,,,,,,,,,,,,,,,,,,,,,,,,,,,,,,,benitoR,001,b,2019_Oct_14_2032,Experimento,3.2.3,60.053426773653385,
8,14,14,999,0.5,0:10,3,Cyan,None,0,0,1,15:50,./completed_changuitos/montage_gisxa_69.9_60.99.jpg,left,0,0,0,0,,,,,0,6,6,6,,,,,,,,,0,0,0,0,0,9,9,9,,,,,,,,,,,,,,,,,,346.2620894858977,None,None,1,346.2620894858977,None,,,,,,,,,,,,,,,,,,,,,,,,,,,,,,,,,,,,,,,,,,,,,,,,,,,,,,,,,,,,,benitoR,001,b,2019_Oct_14_2032,Experimento,3.2.3,60.053426773653385,
8,14,14,999,0.5,0:10,3,Blue,None,0,0,1,15:50,./completed_changuitos/montage_gisxa_69.9_60.99.jpg,left,0,0,0,0,,,,,0,6,6,6,,,,,,,,,0,0,0,0,0,10,10,10,,,,,,,,,,,,,,,,,,346.2620894858977,None,None,1,346.2620894858977,None,,,,,,,,,,,,,,,,,,,,,,,,,,,,,,,,,,,,,,,,,,,,,,,,,,,,,,,,,,,,,benitoR,001,b,2019_Oct_14_2032,Experimento,3.2.3,60.053426773653385,
8,14,14,999,0.5,0:10,3,Cyan,['space'],0,0,1,15:50,./completed_changuitos/montage_gisxa_69.9_60.99.jpg,left,0,0,0,0,,,,,0,6,6,6,,,,,,,,,0,0,0,0,0,11,11,11,,,,,,,,,,,,,,,,,,346.2620894858977,None,None,0,346.2620894858977,None,,,,,,,,,,,,,,,,,,,,,,,,,,,,,,,,,,,,,,,,,,,,,,,,,,,,,,,,,,,,,benitoR,001,b,2019_Oct_14_2032,Experimento,3.2.3,60.053426773653385,
8,14,14,999,0.5,0:10,3,Magenta,None,0,0,1,15:50,./completed_changuitos/montage_gisxa_69.9_60.99.jpg,left,0,0,0,0,,,,,0,6,6,6,,,,,,,,,0,0,0,0,0,12,12,12,,,,,,,,,,,,,,,,,,346.2620894858977,None,None,1,346.2620894858977,None,,,,,,,,,,,,,,,,,,,,,,,,,,,,,,,,,,,,,,,,,,,,,,,,,,,,,,,,,,,,,benitoR,001,b,2019_Oct_14_2032,Experimento,3.2.3,60.053426773653385,
8,14,14,999,0.5,0:10,3,Red,None,0,0,1,15:50,./completed_changuitos/montage_gisxa_69.9_60.99.jpg,left,0,0,0,0,,,,,0,6,6,6,,,,,,,,,0,0,0,0,0,13,13,13,,,,,,,,,,,,,,,,,,346.2620894858977,None,None,1,346.2620894858977,None,,,,,,,,,,,,,,,,,,,,,,,,,,,,,,,,,,,,,,,,,,,,,,,,,,,,,,,,,,,,,benitoR,001,b,2019_Oct_14_2032,Experimento,3.2.3,60.053426773653385,
8,14,14,999,0.5,0:10,3,Magenta,['space'],0,0,1,15:50,./completed_changuitos/montage_gisxa_69.9_60.99.jpg,left,0,0,0,0,,,,,0,6,6,6,,,,,,,,,0,0,0,0,0,14,14,14,,,,,,,,,,,,,,,,,,346.27846238879715,None,None,0,346.27846238879715,None,,,,,,,,,,,,,,,,,,,,,,,,,,,,,,,,,,,,,,,,,,,,,,,,,,,,,,,,,,,,,benitoR,001,b,2019_Oct_14_2032,Experimento,3.2.3,60.053426773653385,
8,14,14,999,0.5,0:10,3,Green,None,0,0,1,15:50,./completed_changuitos/montage_gisxa_69.9_60.99.jpg,left,0,0,0,0,,,,,0,6,6,6,,,,,,,,,0,0,0,0,0,15,15,15,,,,,,,,,,,,,,,,,,346.27846238879715,None,None,1,346.27846238879715,None,,,,,,,,,,,,,,,,,,,,,,,,,,,,,,,,,,,,,,,,,,,,,,,,,,,,,,,,,,,,,benitoR,001,b,2019_Oct_14_2032,Experimento,3.2.3,60.053426773653385,
8,14,14,999,0.5,0:10,3,Yellow,['space'],0,0,1,15:50,./completed_changuitos/montage_gisxa_69.9_60.99.jpg,left,0,0,0,0,,,,,0,6,6,6,,,,,,,,,0,0,0,0,0,16,16,16,,,,,,,,,,,,,,,,,,346.27846238879715,None,None,0,346.27846238879715,None,,,,,,,,,,,,,,,,,,,,,,,,,,,,,,,,,,,,,,,,,,,,,,,,,,,,,,,,,,,,,benitoR,001,b,2019_Oct_14_2032,Experimento,3.2.3,60.053426773653385,
8,14,14,999,0.5,0:10,3,Blue,None,0,0,1,15:50,./completed_changuitos/montage_gisxa_69.9_60.99.jpg,left,0,0,0,0,,,,,0,6,6,6,,,,,,,,,0,0,0,0,0,17,17,17,,,,,,,,,,,,,,,,,,346.27846238879715,None,None,1,346.27846238879715,None,,,,,,,,,,,,,,,,,,,,,,,,,,,,,,,,,,,,,,,,,,,,,,,,,,,,,,,,,,,,,benitoR,001,b,2019_Oct_14_2032,Experimento,3.2.3,60.053426773653385,
8,14,14,999,0.5,0:10,3,Cyan,None,0,0,1,15:50,./completed_changuitos/montage_gisxa_69.9_60.99.jpg,left,0,0,0,0,,,,,0,6,6,6,,,,,,,,,0,0,0,0,0,18,18,18,,,,,,,,,,,,,,,,,,346.27846238879715,None,None,1,346.27846238879715,None,,,,,,,,,,,,,,,,,,,,,,,,,,,,,,,,,,,,,,,,,,,,,,,,,,,,,,,,,,,,,benitoR,001,b,2019_Oct_14_2032,Experimento,3.2.3,60.053426773653385,
8,14,14,999,0.5,0:10,3,Blue,['space'],0,0,1,15:50,./completed_changuitos/montage_gisxa_69.9_60.99.jpg,left,0,0,0,0,,,,,0,6,6,6,,,,,,,,,0,0,0,0,0,19,19,19,,,,,,,,,,,,,,,,,,346.27846238879715,None,None,0,346.27846238879715,None,,,,,,,,,,,,,,,,,,,,,,,,,,,,,,,,,,,,,,,,,,,,,,,,,,,,,,,,,,,,,benitoR,001,b,2019_Oct_14_2032,Experimento,3.2.3,60.053426773653385,
8,14,14,999,0.5,0:10,3,Yellow,None,0,0,1,15:50,./completed_changuitos/montage_gisxa_69.9_60.99.jpg,left,0,0,0,0,,,,,0,6,6,6,,,,,,,,,0,0,0,0,0,20,20,20,,,,,,,,,,,,,,,,,,346.27846238879715,None,None,1,346.27846238879715,None,,,,,,,,,,,,,,,,,,,,,,,,,,,,,,,,,,,,,,,,,,,,,,,,,,,,,,,,,,,,,benitoR,001,b,2019_Oct_14_2032,Experimento,3.2.3,60.053426773653385,
8,14,14,999,0.5,0:10,3,Cyan,None,0,0,1,15:50,./completed_changuitos/montage_gisxa_69.9_60.99.jpg,left,0,0,0,0,,,,,0,6,6,6,,,,,,,,,0,0,0,0,0,21,21,21,,,,,,,,,,,,,,,,,,346.27846238879715,None,None,1,346.27846238879715,None,,,,,,,,,,,,,,,,,,,,,,,,,,,,,,,,,,,,,,,,,,,,,,,,,,,,,,,,,,,,,benitoR,001,b,2019_Oct_14_2032,Experimento,3.2.3,60.053426773653385,
8,14,14,999,0.5,0:10,3,Yellow,['space'],0,0,1,15:50,./completed_changuitos/montage_gisxa_69.9_60.99.jpg,left,0,0,0,0,,,,,0,6,6,6,,,,,,,,,0,0,0,0,0,22,22,22,,,,,,,,,,,,,,,,,,346.27846238879715,None,None,0,346.27846238879715,None,,,,,,,,,,,,,,,,,,,,,,,,,,,,,,,,,,,,,,,,,,,,,,,,,,,,,,,,,,,,,benitoR,001,b,2019_Oct_14_2032,Experimento,3.2.3,60.053426773653385,
8,14,14,999,0.5,0:10,3,Magenta,None,0,0,1,15:50,./completed_changuitos/montage_gisxa_69.9_60.99.jpg,left,0,0,0,0,,,,,0,6,6,6,,,,,,,,,0,0,0,0,0,23,23,23,,,,,,,,,,,,,,,,,,346.27846238879715,None,None,1,346.27846238879715,None,,,,,,,,,,,,,,,,,,,,,,,,,,,,,,,,,,,,,,,,,,,,,,,,,,,,,,,,,,,,,benitoR,001,b,2019_Oct_14_2032,Experimento,3.2.3,60.053426773653385,
8,14,14,999,0.5,0:10,3,Red,None,0,0,1,15:50,./completed_changuitos/montage_gisxa_69.9_60.99.jpg,left,0,0,0,0,,,,,0,6,6,6,,,,,,,,,0,0,0,0,0,24,24,24,,,,,,,,,,,,,,,,,,346.27846238879715,None,None,1,346.27846238879715,None,,,,,,,,,,,,,,,,,,,,,,,,,,,,,,,,,,,,,,,,,,,,,,,,,,,,,,,,,,,,,benitoR,001,b,2019_Oct_14_2032,Experimento,3.2.3,60.053426773653385,
8,14,14,999,0.5,0:10,3,Magenta,['space'],0,0,1,15:50,./completed_changuitos/montage_gisxa_69.9_60.99.jpg,left,0,0,0,0,,,,,0,6,6,6,,,,,,,,,0,0,0,0,0,25,25,25,,,,,,,,,,,,,,,,,,346.29483529169664,None,None,0,346.29483529169664,None,,,,,,,,,,,,,,,,,,,,,,,,,,,,,,,,,,,,,,,,,,,,,,,,,,,,,,,,,,,,,benitoR,001,b,2019_Oct_14_2032,Experimento,3.2.3,60.053426773653385,
8,14,14,999,0.5,0:10,3,Red,['space'],0,0,1,15:50,./completed_changuitos/montage_gisxa_69.9_60.99.jpg,left,0,0,0,0,,,,,0,6,6,6,,,,,,,,,0,0,0,0,0,26,26,26,,,,,,,,,,,,,,,,,,346.29483529169664,None,None,0,346.29483529169664,None,,,,,,,,,,,,,,,,,,,,,,,,,,,,,,,,,,,,,,,,,,,,,,,,,,,,,,,,,,,,,benitoR,001,b,2019_Oct_14_2032,Experimento,3.2.3,60.053426773653385,
8,14,14,999,0.5,0:10,3,Yellow,None,0,0,1,15:50,./completed_changuitos/montage_gisxa_69.9_60.99.jpg,left,0,0,0,0,,,,,0,6,6,6,,,,,,,,,0,0,0,0,0,27,27,27,,,,,,,,,,,,,,,,,,346.29483529169664,None,None,1,346.29483529169664,None,,,,,,,,,,,,,,,,,,,,,,,,,,,,,,,,,,,,,,,,,,,,,,,,,,,,,,,,,,,,,benitoR,001,b,2019_Oct_14_2032,Experimento,3.2.3,60.053426773653385,
8,14,14,999,0.5,0:10,3,Cyan,None,0,0,1,15:50,./completed_changuitos/montage_gisxa_69.9_60.99.jpg,left,0,0,0,0,,,,,0,6,6,6,,,,,,,,,0,0,0,0,0,28,28,28,,,,,,,,,,,,,,,,,,346.29483529169664,None,None,1,346.29483529169664,None,,,,,,,,,,,,,,,,,,,,,,,,,,,,,,,,,,,,,,,,,,,,,,,,,,,,,,,,,,,,,benitoR,001,b,2019_Oct_14_2032,Experimento,3.2.3,60.053426773653385,
8,14,14,999,0.5,0:10,3,Green,None,0,0,1,15:50,./completed_changuitos/montage_gisxa_69.9_60.99.jpg,left,0,0,0,0,,,,,0,6,6,6,,,,,,,,,0,0,0,0,0,29,29,29,,,,,,,,,,,,,,,,,,346.29483529169664,None,None,1,346.29483529169664,None,,,,,,,,,,,,,,,,,,,,,,,,,,,,,,,,,,,,,,,,,,,,,,,,,,,,,,,,,,,,,benitoR,001,b,2019_Oct_14_2032,Experimento,3.2.3,60.053426773653385,
8,14,14,999,0.5,0:10,3,White,None,0,0,1,15:50,./completed_changuitos/montage_gisxa_69.9_60.99.jpg,left,0,0,0,0,,,,,0,6,6,6,,,,,,,,,0,0,0,0,0,30,30,30,,,,,,,,,,,,,,,,,,346.29483529169664,None,None,1,346.29483529169664,None,,,,,,,,,,,,,,,,,,,,,,,,,,,,,,,,,,,,,,,,,,,,,,,,,,,,,,,,,,,,,benitoR,001,b,2019_Oct_14_2032,Experimento,3.2.3,60.053426773653385,
8,14,14,999,0.5,0:10,3,Green,['space'],0,0,1,15:50,./completed_changuitos/montage_gisxa_69.9_60.99.jpg,left,0,0,0,0,,,,,0,6,6,6,,,,,,,,,0,0,0,0,0,31,31,31,,,,,,,,,,,,,,,,,,346.29483529169664,None,None,0,346.29483529169664,None,,,,,,,,,,,,,,,,,,,,,,,,,,,,,,,,,,,,,,,,,,,,,,,,,,,,,,,,,,,,,benitoR,001,b,2019_Oct_14_2032,Experimento,3.2.3,60.053426773653385,
8,14,14,999,0.5,0:10,3,Red,None,0,0,1,15:50,./completed_changuitos/montage_gisxa_69.9_60.99.jpg,left,0,0,0,0,,,,,0,6,6,6,,,,,,,,,0,0,0,0,0,32,32,32,,,,,,,,,,,,,,,,,,346.29483529169664,None,None,1,346.29483529169664,None,,,,,,,,,,,,,,,,,,,,,,,,,,,,,,,,,,,,,,,,,,,,,,,,,,,,,,,,,,,,,benitoR,001,b,2019_Oct_14_2032,Experimento,3.2.3,60.053426773653385,
8,14,14,999,0.5,0:10,3,Blue,None,0,0,1,15:50,./completed_changuitos/montage_gisxa_69.9_60.99.jpg,left,0,0,0,0,,,,,0,6,6,6,,,,,,,,,0,0,0,0,0,33,33,33,,,,,,,,,,,,,,,,,,346.29483529169664,None,None,1,346.29483529169664,None,,,,,,,,,,,,,,,,,,,,,,,,,,,,,,,,,,,,,,,,,,,,,,,,,,,,,,,,,,,,,benitoR,001,b,2019_Oct_14_2032,Experimento,3.2.3,60.053426773653385,
8,14,14,999,0.5,0:10,3,Green,None,0,0,1,15:50,./completed_changuitos/montage_gisxa_69.9_60.99.jpg,left,0,0,0,0,,,,,0,6,6,6,,,,,,,,,0,0,0,0,0,34,34,34,,,,,,,,,,,,,,,,,,346.29483529169664,None,None,1,346.29483529169664,None,,,,,,,,,,,,,,,,,,,,,,,,,,,,,,,,,,,,,,,,,,,,,,,,,,,,,,,,,,,,,benitoR,001,b,2019_Oct_14_2032,Experimento,3.2.3,60.053426773653385,
8,14,14,999,0.5,0:10,3,,,0,0,1,15:50,./completed_changuitos/montage_gisxa_69.9_60.99.jpg,left,0,0,0,0,,,,,0,6,6,6,,,,,,,,,0,0,0,0,,,,,,,,,,,,,,,,,,,,,,,,,,,,,346.3950093080057,None,left,1,1.8723212629993213,346.3950093080057,None,346.3950093080057,None,,,,,,,,,,,,,,,,,,,,,,,,,,,,,,,,,,,,,,,,,,,,,,,,,,,benitoR,001,b,2019_Oct_14_2032,Experimento,3.2.3,60.053426773653385,
8,14,14,999,0.5,0:10,3,,,0,0,1,15:50,,,0,0,0,0,,,,,0,6,6,6,,,,,,,,,,,,,,,,,,,,,,,,,,,,,,,,,,,,,,,,,,,,,,,,,,,,,,,,,,,,,,,,,,,,,,,,,,,,,,,,,,,,,,,,,,,,,,,,,,,,benitoR,001,b,2019_Oct_14_2032,Experimento,3.2.3,60.053426773653385,
8,14,14,999,0.5,0:10,3,,,0,1,0,19:50,./completed_changuitos/montage_rkmec_89.89_101.65.jpg,right,0,0,0,0,,,,,0,7,7,7,,,,,0,0,0,0,,,,,,,,,,,,,,,,,,,,,,,,,,,,,,,,,,,,,,,,,,348.5630671510007,354.4464963890059,354.4464963890059,362.46128815499833,362.46128815499833,376.4610731660068,left,0,2.8075480749976123,376.4610731660068,None,376.4610731660068,None,376.4610731660068,None,,,,,,,,,,,,,,,,,,,,,,,,,,,,,,,,,,,,benitoR,001,b,2019_Oct_14_2032,Experimento,3.2.3,60.053426773653385,
8,14,14,999,0.5,0:10,3,,,0,1,0,19:50,,,0,0,0,0,,,,,0,7,7,7,,,,,,,,,,,,,,,,,,,,,,,,,,,,,,,,,,,,,,,,,,,,,,,,,,,,,,,,,,,,,,,,,,,,,,,,,,,,,,,,,,,,,,,,,,,,,,,,,,,,benitoR,001,b,2019_Oct_14_2032,Experimento,3.2.3,60.053426773653385,
8,14,14,999,0.5,0:10,3,Magenta,None,0,0,1,20:50,./completed_changuitos/montage_dwhty_57.59_48.69.jpg,left,0,0,0,0,,,,,0,8,8,8,,,,,,,,,0,0,0,0,0,0,0,0,,,,,,,,,,,,,,379.54612970899325,400.9970339249994,400.9970339249994,None,409.02990020900324,409.5443500389956,None,1,409.02990020900324,None,,,,,,,,,,,,,,,,,,,,,,,,,,,,,,,,,,,,,,,,,,,,,,,,,,,,,,,,,,,,,benitoR,001,b,2019_Oct_14_2032,Experimento,3.2.3,60.053426773653385,
8,14,14,999,0.5,0:10,3,Blue,['space'],0,0,1,20:50,./completed_changuitos/montage_dwhty_57.59_48.69.jpg,left,0,0,0,0,,,,,0,8,8,8,,,,,,,,,0,0,0,0,0,1,1,1,,,,,,,,,,,,,,,,,,411.0452224009932,411.5448615399946,None,0,411.0452224009932,411.0452224009932,,,,,,,,,,,,,,,,,,,,,,,,,,,,,,,,,,,,,,,,,,,,,,,,,,,,,,,,,,,,,benitoR,001,b,2019_Oct_14_2032,Experimento,3.2.3,60.053426773653385,
8,14,14,999,0.5,0:10,3,Cyan,None,0,0,1,20:50,./completed_changuitos/montage_dwhty_57.59_48.69.jpg,left,0,0,0,0,,,,,0,8,8,8,,,,,,,,,0,0,0,0,0,2,2,2,,,,,,,,,,,,,,,,,,413.0451300860004,413.5450343410048,None,1,413.0451300860004,413.0451300860004,,,,,,,,,,,,,,,,,,,,,,,,,,,,,,,,,,,,,,,,,,,,,,,,,,,,,,,,,,,,,benitoR,001,b,2019_Oct_14_2032,Experimento,3.2.3,60.053426773653385,
8,14,14,999,0.5,0:10,3,Yellow,None,0,0,1,20:50,./completed_changuitos/montage_dwhty_57.59_48.69.jpg,left,0,0,0,0,,,,,0,8,8,8,,,,,,,,,0,0,0,0,0,3,3,3,,,,,,,,,,,,,,,,,,415.04504293299397,415.5449582339934,None,1,415.04504293299397,415.04504293299397,,,,,,,,,,,,,,,,,,,,,,,,,,,,,,,,,,,,,,,,,,,,,,,,,,,,,,,,,,,,,benitoR,001,b,2019_Oct_14_2032,Experimento,3.2.3,60.053426773653385,
8,14,14,999,0.5,0:10,3,Cyan,None,0,0,1,20:50,./completed_changuitos/montage_dwhty_57.59_48.69.jpg,left,0,0,0,0,,,,,0,8,8,8,,,,,,,,,0,0,0,0,0,4,4,4,,,,,,,,,,,,,,,,,,417.0450736740022,417.54483131300367,['return'],0,417.0450736740022,417.0450736740022,[0.6096523619926302],,,,,,,,,,,,,,,,,,,,,,,,,,,,,,,,,,,,,,,,,,,,,,,,,,,,,,,,,,,,benitoR,001,b,2019_Oct_14_2032,Experimento,3.2.3,60.053426773653385,
8,14,14,999,0.5,0:10,3,Blue,None,0,0,1,20:50,./completed_changuitos/montage_dwhty_57.59_48.69.jpg,left,0,0,0,0,,,,,0,8,8,8,,,,,,,,,0,0,0,0,0,5,5,5,,,,,,,,,,,,,,,,,,419.0450436670071,419.5442396319995,None,1,419.0450436670071,419.0450436670071,,,,,,,,,,,,,,,,,,,,,,,,,,,,,,,,,,,,,,,,,,,,,,,,,,,,,,,,,,,,,benitoR,001,b,2019_Oct_14_2032,Experimento,3.2.3,60.053426773653385,
8,14,14,999,0.5,0:10,3,Cyan,['space'],0,0,1,20:50,./completed_changuitos/montage_dwhty_57.59_48.69.jpg,left,0,0,0,0,,,,,0,8,8,8,,,,,,,,,0,0,0,0,0,6,6,6,,,,,,,,,,,,,,,,,,421.0449249959929,421.5447383819992,None,0,421.0449249959929,421.0449249959929,,,,,,,,,,,,,,,,,,,,,,,,,,,,,,,,,,,,,,,,,,,,,,,,,,,,,,,,,,,,,benitoR,001,b,2019_Oct_14_2032,Experimento,3.2.3,60.053426773653385,
8,14,14,999,0.5,0:10,3,Magenta,None,0,0,1,20:50,./completed_changuitos/montage_dwhty_57.59_48.69.jpg,left,0,0,0,0,,,,,0,8,8,8,,,,,,,,,0,0,0,0,0,7,7,7,,,,,,,,,,,,,,,,,,423.0110057008991,None,None,1,423.0110057008991,None,,,,,,,,,,,,,,,,,,,,,,,,,,,,,,,,,,,,,,,,,,,,,,,,,,,,,,,,,,,,,benitoR,001,b,2019_Oct_14_2032,Experimento,3.2.3,60.053426773653385,
8,14,14,999,0.5,0:10,3,Red,None,0,0,1,20:50,./completed_changuitos/montage_dwhty_57.59_48.69.jpg,left,0,0,0,0,,,,,0,8,8,8,,,,,,,,,0,0,0,0,0,8,8,8,,,,,,,,,,,,,,,,,,423.0110057008991,None,None,1,423.0110057008991,None,,,,,,,,,,,,,,,,,,,,,,,,,,,,,,,,,,,,,,,,,,,,,,,,,,,,,,,,,,,,,benitoR,001,b,2019_Oct_14_2032,Experimento,3.2.3,60.053426773653385,
8,14,14,999,0.5,0:10,3,Magenta,['space'],0,0,1,20:50,./completed_changuitos/montage_dwhty_57.59_48.69.jpg,left,0,0,0,0,,,,,0,8,8,8,,,,,,,,,0,0,0,0,0,9,9,9,,,,,,,,,,,,,,,,,,423.0110057008991,None,None,0,423.0110057008991,None,,,,,,,,,,,,,,,,,,,,,,,,,,,,,,,,,,,,,,,,,,,,,,,,,,,,,,,,,,,,,benitoR,001,b,2019_Oct_14_2032,Experimento,3.2.3,60.053426773653385,
8,14,14,999,0.5,0:10,3,Green,None,0,0,1,20:50,./completed_changuitos/montage_dwhty_57.59_48.69.jpg,left,0,0,0,0,,,,,0,8,8,8,,,,,,,,,0,0,0,0,0,10,10,10,,,,,,,,,,,,,,,,,,423.0110057008991,None,None,1,423.0110057008991,None,,,,,,,,,,,,,,,,,,,,,,,,,,,,,,,,,,,,,,,,,,,,,,,,,,,,,,,,,,,,,benitoR,001,b,2019_Oct_14_2032,Experimento,3.2.3,60.053426773653385,
8,14,14,999,0.5,0:10,3,Yellow,['space'],0,0,1,20:50,./completed_changuitos/montage_dwhty_57.59_48.69.jpg,left,0,0,0,0,,,,,0,8,8,8,,,,,,,,,0,0,0,0,0,11,11,11,,,,,,,,,,,,,,,,,,423.0110057008991,None,None,0,423.0110057008991,None,,,,,,,,,,,,,,,,,,,,,,,,,,,,,,,,,,,,,,,,,,,,,,,,,,,,,,,,,,,,,benitoR,001,b,2019_Oct_14_2032,Experimento,3.2.3,60.053426773653385,
8,14,14,999,0.5,0:10,3,Blue,None,0,0,1,20:50,./completed_changuitos/montage_dwhty_57.59_48.69.jpg,left,0,0,0,0,,,,,0,8,8,8,,,,,,,,,0,0,0,0,0,12,12,12,,,,,,,,,,,,,,,,,,423.0110057008991,None,None,1,423.0110057008991,None,,,,,,,,,,,,,,,,,,,,,,,,,,,,,,,,,,,,,,,,,,,,,,,,,,,,,,,,,,,,,benitoR,001,b,2019_Oct_14_2032,Experimento,3.2.3,60.053426773653385,
8,14,14,999,0.5,0:10,3,Cyan,None,0,0,1,20:50,./completed_changuitos/montage_dwhty_57.59_48.69.jpg,left,0,0,0,0,,,,,0,8,8,8,,,,,,,,,0,0,0,0,0,13,13,13,,,,,,,,,,,,,,,,,,423.0110057008991,None,None,1,423.0110057008991,None,,,,,,,,,,,,,,,,,,,,,,,,,,,,,,,,,,,,,,,,,,,,,,,,,,,,,,,,,,,,,benitoR,001,b,2019_Oct_14_2032,Experimento,3.2.3,60.053426773653385,
8,14,14,999,0.5,0:10,3,Blue,['space'],0,0,1,20:50,./completed_changuitos/montage_dwhty_57.59_48.69.jpg,left,0,0,0,0,,,,,0,8,8,8,,,,,,,,,0,0,0,0,0,14,14,14,,,,,,,,,,,,,,,,,,423.0273786037985,None,None,0,423.0273786037985,None,,,,,,,,,,,,,,,,,,,,,,,,,,,,,,,,,,,,,,,,,,,,,,,,,,,,,,,,,,,,,benitoR,001,b,2019_Oct_14_2032,Experimento,3.2.3,60.053426773653385,
8,14,14,999,0.5,0:10,3,Yellow,None,0,0,1,20:50,./completed_changuitos/montage_dwhty_57.59_48.69.jpg,left,0,0,0,0,,,,,0,8,8,8,,,,,,,,,0,0,0,0,0,15,15,15,,,,,,,,,,,,,,,,,,423.0273786037985,None,None,1,423.0273786037985,None,,,,,,,,,,,,,,,,,,,,,,,,,,,,,,,,,,,,,,,,,,,,,,,,,,,,,,,,,,,,,benitoR,001,b,2019_Oct_14_2032,Experimento,3.2.3,60.053426773653385,
8,14,14,999,0.5,0:10,3,Cyan,None,0,0,1,20:50,./completed_changuitos/montage_dwhty_57.59_48.69.jpg,left,0,0,0,0,,,,,0,8,8,8,,,,,,,,,0,0,0,0,0,16,16,16,,,,,,,,,,,,,,,,,,423.0273786037985,None,None,1,423.0273786037985,None,,,,,,,,,,,,,,,,,,,,,,,,,,,,,,,,,,,,,,,,,,,,,,,,,,,,,,,,,,,,,benitoR,001,b,2019_Oct_14_2032,Experimento,3.2.3,60.053426773653385,
8,14,14,999,0.5,0:10,3,Yellow,['space'],0,0,1,20:50,./completed_changuitos/montage_dwhty_57.59_48.69.jpg,left,0,0,0,0,,,,,0,8,8,8,,,,,,,,,0,0,0,0,0,17,17,17,,,,,,,,,,,,,,,,,,423.0273786037985,None,None,0,423.0273786037985,None,,,,,,,,,,,,,,,,,,,,,,,,,,,,,,,,,,,,,,,,,,,,,,,,,,,,,,,,,,,,,benitoR,001,b,2019_Oct_14_2032,Experimento,3.2.3,60.053426773653385,
8,14,14,999,0.5,0:10,3,Magenta,None,0,0,1,20:50,./completed_changuitos/montage_dwhty_57.59_48.69.jpg,left,0,0,0,0,,,,,0,8,8,8,,,,,,,,,0,0,0,0,0,18,18,18,,,,,,,,,,,,,,,,,,423.0273786037985,None,None,1,423.0273786037985,None,,,,,,,,,,,,,,,,,,,,,,,,,,,,,,,,,,,,,,,,,,,,,,,,,,,,,,,,,,,,,benitoR,001,b,2019_Oct_14_2032,Experimento,3.2.3,60.053426773653385,
8,14,14,999,0.5,0:10,3,Red,None,0,0,1,20:50,./completed_changuitos/montage_dwhty_57.59_48.69.jpg,left,0,0,0,0,,,,,0,8,8,8,,,,,,,,,0,0,0,0,0,19,19,19,,,,,,,,,,,,,,,,,,423.0273786037985,None,None,1,423.0273786037985,None,,,,,,,,,,,,,,,,,,,,,,,,,,,,,,,,,,,,,,,,,,,,,,,,,,,,,,,,,,,,,benitoR,001,b,2019_Oct_14_2032,Experimento,3.2.3,60.053426773653385,
8,14,14,999,0.5,0:10,3,Magenta,['space'],0,0,1,20:50,./completed_changuitos/montage_dwhty_57.59_48.69.jpg,left,0,0,0,0,,,,,0,8,8,8,,,,,,,,,0,0,0,0,0,20,20,20,,,,,,,,,,,,,,,,,,423.0273786037985,None,None,0,423.0273786037985,None,,,,,,,,,,,,,,,,,,,,,,,,,,,,,,,,,,,,,,,,,,,,,,,,,,,,,,,,,,,,,benitoR,001,b,2019_Oct_14_2032,Experimento,3.2.3,60.053426773653385,
8,14,14,999,0.5,0:10,3,Red,['space'],0,0,1,20:50,./completed_changuitos/montage_dwhty_57.59_48.69.jpg,left,0,0,0,0,,,,,0,8,8,8,,,,,,,,,0,0,0,0,0,21,21,21,,,,,,,,,,,,,,,,,,423.0273786037985,None,None,0,423.0273786037985,None,,,,,,,,,,,,,,,,,,,,,,,,,,,,,,,,,,,,,,,,,,,,,,,,,,,,,,,,,,,,,benitoR,001,b,2019_Oct_14_2032,Experimento,3.2.3,60.053426773653385,
8,14,14,999,0.5,0:10,3,Yellow,None,0,0,1,20:50,./completed_changuitos/montage_dwhty_57.59_48.69.jpg,left,0,0,0,0,,,,,0,8,8,8,,,,,,,,,0,0,0,0,0,22,22,22,,,,,,,,,,,,,,,,,,423.0273786037985,None,None,1,423.0273786037985,None,,,,,,,,,,,,,,,,,,,,,,,,,,,,,,,,,,,,,,,,,,,,,,,,,,,,,,,,,,,,,benitoR,001,b,2019_Oct_14_2032,Experimento,3.2.3,60.053426773653385,
8,14,14,999,0.5,0:10,3,Cyan,None,0,0,1,20:50,./completed_changuitos/montage_dwhty_57.59_48.69.jpg,left,0,0,0,0,,,,,0,8,8,8,,,,,,,,,0,0,0,0,0,23,23,23,,,,,,,,,,,,,,,,,,423.0273786037985,None,None,1,423.0273786037985,None,,,,,,,,,,,,,,,,,,,,,,,,,,,,,,,,,,,,,,,,,,,,,,,,,,,,,,,,,,,,,benitoR,001,b,2019_Oct_14_2032,Experimento,3.2.3,60.053426773653385,
8,14,14,999,0.5,0:10,3,Green,None,0,0,1,20:50,./completed_changuitos/montage_dwhty_57.59_48.69.jpg,left,0,0,0,0,,,,,0,8,8,8,,,,,,,,,0,0,0,0,0,24,24,24,,,,,,,,,,,,,,,,,,423.0273786037985,None,None,1,423.0273786037985,None,,,,,,,,,,,,,,,,,,,,,,,,,,,,,,,,,,,,,,,,,,,,,,,,,,,,,,,,,,,,,benitoR,001,b,2019_Oct_14_2032,Experimento,3.2.3,60.053426773653385,
8,14,14,999,0.5,0:10,3,White,None,0,0,1,20:50,./completed_changuitos/montage_dwhty_57.59_48.69.jpg,left,0,0,0,0,,,,,0,8,8,8,,,,,,,,,0,0,0,0,0,25,25,25,,,,,,,,,,,,,,,,,,423.043751506698,None,None,1,423.043751506698,None,,,,,,,,,,,,,,,,,,,,,,,,,,,,,,,,,,,,,,,,,,,,,,,,,,,,,,,,,,,,,benitoR,001,b,2019_Oct_14_2032,Experimento,3.2.3,60.053426773653385,
8,14,14,999,0.5,0:10,3,Green,['space'],0,0,1,20:50,./completed_changuitos/montage_dwhty_57.59_48.69.jpg,left,0,0,0,0,,,,,0,8,8,8,,,,,,,,,0,0,0,0,0,26,26,26,,,,,,,,,,,,,,,,,,423.043751506698,None,None,0,423.043751506698,None,,,,,,,,,,,,,,,,,,,,,,,,,,,,,,,,,,,,,,,,,,,,,,,,,,,,,,,,,,,,,benitoR,001,b,2019_Oct_14_2032,Experimento,3.2.3,60.053426773653385,
8,14,14,999,0.5,0:10,3,Red,None,0,0,1,20:50,./completed_changuitos/montage_dwhty_57.59_48.69.jpg,left,0,0,0,0,,,,,0,8,8,8,,,,,,,,,0,0,0,0,0,27,27,27,,,,,,,,,,,,,,,,,,423.043751506698,None,None,1,423.043751506698,None,,,,,,,,,,,,,,,,,,,,,,,,,,,,,,,,,,,,,,,,,,,,,,,,,,,,,,,,,,,,,benitoR,001,b,2019_Oct_14_2032,Experimento,3.2.3,60.053426773653385,
8,14,14,999,0.5,0:10,3,Blue,None,0,0,1,20:50,./completed_changuitos/montage_dwhty_57.59_48.69.jpg,left,0,0,0,0,,,,,0,8,8,8,,,,,,,,,0,0,0,0,0,28,28,28,,,,,,,,,,,,,,,,,,423.043751506698,None,None,1,423.043751506698,None,,,,,,,,,,,,,,,,,,,,,,,,,,,,,,,,,,,,,,,,,,,,,,,,,,,,,,,,,,,,,benitoR,001,b,2019_Oct_14_2032,Experimento,3.2.3,60.053426773653385,
8,14,14,999,0.5,0:10,3,Green,None,0,0,1,20:50,./completed_changuitos/montage_dwhty_57.59_48.69.jpg,left,0,0,0,0,,,,,0,8,8,8,,,,,,,,,0,0,0,0,0,29,29,29,,,,,,,,,,,,,,,,,,423.043751506698,None,None,1,423.043751506698,None,,,,,,,,,,,,,,,,,,,,,,,,,,,,,,,,,,,,,,,,,,,,,,,,,,,,,,,,,,,,,benitoR,001,b,2019_Oct_14_2032,Experimento,3.2.3,60.053426773653385,
8,14,14,999,0.5,0:10,3,,,0,0,1,20:50,./completed_changuitos/montage_dwhty_57.59_48.69.jpg,left,0,0,0,0,,,,,0,8,8,8,,,,,,,,,0,0,0,0,,,,,,,,,,,,,,,,,,,,,,,,,,,,,423.145088018995,None,right,0,3.820602346007945,423.145088018995,None,423.145088018995,426.1453016940068,,,,,,,,,,,,,,,,,,,,,,,,,,,,,,,,,,,,,,,,,,,,,,,,,,,benitoR,001,b,2019_Oct_14_2032,Experimento,3.2.3,60.053426773653385,
8,14,14,999,0.5,0:10,3,,,0,0,1,20:50,,,0,0,0,0,,,,,0,8,8,8,,,,,,,,,,,,,,,,,,,,,,,,,,,,,,,,,,,,,,,,,,,,,,,,,,,,,,,,,,,,,,,,,,,,,,,,,,,,,,,,,,,,,,,,,,,,,,,,,,,,benitoR,001,b,2019_Oct_14_2032,Experimento,3.2.3,60.053426773653385,
8,14,14,999,0.5,0:10,3,,,0,1,0,25:50,./completed_changuitos/montage_kjkwh_77.05_91.39.jpg,right,0,0,0,0,,,,,0,9,9,9,,,,,0,0,0,0,,,,,,,,,,,,,,,,,,,,,,,,,,,,,,,,,,,,,,,,,,427.2797369189939,430.59791655400477,430.59791655400477,438.6102855469944,438.6102855469944,452.6110387899971,right,1,1.471188280993374,452.6110387899971,None,452.6110387899971,None,452.6110387899971,None,,,,,,,,,,,,,,,,,,,,,,,,,,,,,,,,,,,,benitoR,001,b,2019_Oct_14_2032,Experimento,3.2.3,60.053426773653385,
8,14,14,999,0.5,0:10,3,,,0,1,0,25:50,,,0,0,0,0,,,,,0,9,9,9,,,,,,,,,,,,,,,,,,,,,,,,,,,,,,,,,,,,,,,,,,,,,,,,,,,,,,,,,,,,,,,,,,,,,,,,,,,,,,,,,,,,,,,,,,,,,,,,,,,,benitoR,001,b,2019_Oct_14_2032,Experimento,3.2.3,60.053426773653385,
8,14,14,999,0.5,0:10,3,Red,None,0,0,1,28:50,./completed_changuitos/montage_qkfth_75.99_66.35.jpg,left,0,0,0,0,,,,,0,10,10,10,,,,,,,,,0,0,0,0,0,0,0,0,,,,,,,,,,,,,,454.33049447899975,456.6802086910029,456.6802086910029,None,464.71234473500226,465.22716144900187,None,1,464.71234473500226,None,,,,,,,,,,,,,,,,,,,,,,,,,,,,,,,,,,,,,,,,,,,,,,,,,,,,,,,,,,,,,benitoR,001,b,2019_Oct_14_2032,Experimento,3.2.3,60.053426773653385,
8,14,14,999,0.5,0:10,3,Magenta,['space'],0,0,1,28:50,./completed_changuitos/montage_qkfth_75.99_66.35.jpg,left,0,0,0,0,,,,,0,10,10,10,,,,,,,,,0,0,0,0,0,1,1,1,,,,,,,,,,,,,,,,,,466.7268664440053,467.2271092470037,None,0,466.7268664440053,466.7268664440053,,,,,,,,,,,,,,,,,,,,,,,,,,,,,,,,,,,,,,,,,,,,,,,,,,,,,,,,,,,,,benitoR,001,b,2019_Oct_14_2032,Experimento,3.2.3,60.053426773653385,
8,14,14,999,0.5,0:10,3,Green,None,0,0,1,28:50,./completed_changuitos/montage_qkfth_75.99_66.35.jpg,left,0,0,0,0,,,,,0,10,10,10,,,,,,,,,0,0,0,0,0,2,2,2,,,,,,,,,,,,,,,,,,468.72663438599557,469.2271412980044,None,1,468.72663438599557,468.72663438599557,,,,,,,,,,,,,,,,,,,,,,,,,,,,,,,,,,,,,,,,,,,,,,,,,,,,,,,,,,,,,benitoR,001,b,2019_Oct_14_2032,Experimento,3.2.3,60.053426773653385,
8,14,14,999,0.5,0:10,3,Yellow,['space'],0,0,1,28:50,./completed_changuitos/montage_qkfth_75.99_66.35.jpg,left,0,0,0,0,,,,,0,10,10,10,,,,,,,,,0,0,0,0,0,3,3,3,,,,,,,,,,,,,,,,,,470.7268657399982,471.2269651420065,None,0,470.7268657399982,470.7268657399982,,,,,,,,,,,,,,,,,,,,,,,,,,,,,,,,,,,,,,,,,,,,,,,,,,,,,,,,,,,,,benitoR,001,b,2019_Oct_14_2032,Experimento,3.2.3,60.053426773653385,
8,14,14,999,0.5,0:10,3,Blue,None,0,0,1,28:50,./completed_changuitos/montage_qkfth_75.99_66.35.jpg,left,0,0,0,0,,,,,0,10,10,10,,,,,,,,,0,0,0,0,0,4,4,4,,,,,,,,,,,,,,,,,,472.72690757999953,473.2270208400005,None,1,472.72690757999953,472.72690757999953,,,,,,,,,,,,,,,,,,,,,,,,,,,,,,,,,,,,,,,,,,,,,,,,,,,,,,,,,,,,,benitoR,001,b,2019_Oct_14_2032,Experimento,3.2.3,60.053426773653385,
8,14,14,999,0.5,0:10,3,Cyan,None,0,0,1,28:50,./completed_changuitos/montage_qkfth_75.99_66.35.jpg,left,0,0,0,0,,,,,0,10,10,10,,,,,,,,,0,0,0,0,0,5,5,5,,,,,,,,,,,,,,,,,,474.72884890899877,475.2442015379929,None,1,474.72884890899877,474.72884890899877,,,,,,,,,,,,,,,,,,,,,,,,,,,,,,,,,,,,,,,,,,,,,,,,,,,,,,,,,,,,,benitoR,001,b,2019_Oct_14_2032,Experimento,3.2.3,60.053426773653385,
8,14,14,999,0.5,0:10,3,Blue,['space'],0,0,1,28:50,./completed_changuitos/montage_qkfth_75.99_66.35.jpg,left,0,0,0,0,,,,,0,10,10,10,,,,,,,,,0,0,0,0,0,6,6,6,,,,,,,,,,,,,,,,,,476.7442959379987,477.2439736249944,['return'],0,476.7442959379987,476.7442959379987,[0.48918868199689314],,,,,,,,,,,,,,,,,,,,,,,,,,,,,,,,,,,,,,,,,,,,,,,,,,,,,,,,,,,,benitoR,001,b,2019_Oct_14_2032,Experimento,3.2.3,60.053426773653385,
8,14,14,999,0.5,0:10,3,Yellow,None,0,0,1,28:50,./completed_changuitos/montage_qkfth_75.99_66.35.jpg,left,0,0,0,0,,,,,0,10,10,10,,,,,,,,,0,0,0,0,0,7,7,7,,,,,,,,,,,,,,,,,,478.69368652190167,None,None,1,478.69368652190167,None,,,,,,,,,,,,,,,,,,,,,,,,,,,,,,,,,,,,,,,,,,,,,,,,,,,,,,,,,,,,,benitoR,001,b,2019_Oct_14_2032,Experimento,3.2.3,60.053426773653385,
8,14,14,999,0.5,0:10,3,Cyan,None,0,0,1,28:50,./completed_changuitos/montage_qkfth_75.99_66.35.jpg,left,0,0,0,0,,,,,0,10,10,10,,,,,,,,,0,0,0,0,0,8,8,8,,,,,,,,,,,,,,,,,,478.69368652190167,None,None,1,478.69368652190167,None,,,,,,,,,,,,,,,,,,,,,,,,,,,,,,,,,,,,,,,,,,,,,,,,,,,,,,,,,,,,,benitoR,001,b,2019_Oct_14_2032,Experimento,3.2.3,60.053426773653385,
8,14,14,999,0.5,0:10,3,Yellow,['space'],0,0,1,28:50,./completed_changuitos/montage_qkfth_75.99_66.35.jpg,left,0,0,0,0,,,,,0,10,10,10,,,,,,,,,0,0,0,0,0,9,9,9,,,,,,,,,,,,,,,,,,478.69368652190167,None,None,0,478.69368652190167,None,,,,,,,,,,,,,,,,,,,,,,,,,,,,,,,,,,,,,,,,,,,,,,,,,,,,,,,,,,,,,benitoR,001,b,2019_Oct_14_2032,Experimento,3.2.3,60.053426773653385,
8,14,14,999,0.5,0:10,3,Magenta,None,0,0,1,28:50,./completed_changuitos/montage_qkfth_75.99_66.35.jpg,left,0,0,0,0,,,,,0,10,10,10,,,,,,,,,0,0,0,0,0,10,10,10,,,,,,,,,,,,,,,,,,478.69368652190167,None,None,1,478.69368652190167,None,,,,,,,,,,,,,,,,,,,,,,,,,,,,,,,,,,,,,,,,,,,,,,,,,,,,,,,,,,,,,benitoR,001,b,2019_Oct_14_2032,Experimento,3.2.3,60.053426773653385,
8,14,14,999,0.5,0:10,3,Red,None,0,0,1,28:50,./completed_changuitos/montage_qkfth_75.99_66.35.jpg,left,0,0,0,0,,,,,0,10,10,10,,,,,,,,,0,0,0,0,0,11,11,11,,,,,,,,,,,,,,,,,,478.69368652190167,None,None,1,478.69368652190167,None,,,,,,,,,,,,,,,,,,,,,,,,,,,,,,,,,,,,,,,,,,,,,,,,,,,,,,,,,,,,,benitoR,001,b,2019_Oct_14_2032,Experimento,3.2.3,60.053426773653385,
8,14,14,999,0.5,0:10,3,Magenta,['space'],0,0,1,28:50,./completed_changuitos/montage_qkfth_75.99_66.35.jpg,left,0,0,0,0,,,,,0,10,10,10,,,,,,,,,0,0,0,0,0,12,12,12,,,,,,,,,,,,,,,,,,478.69368652190167,None,None,0,478.69368652190167,None,,,,,,,,,,,,,,,,,,,,,,,,,,,,,,,,,,,,,,,,,,,,,,,,,,,,,,,,,,,,,benitoR,001,b,2019_Oct_14_2032,Experimento,3.2.3,60.053426773653385,
8,14,14,999,0.5,0:10,3,Red,['space'],0,0,1,28:50,./completed_changuitos/montage_qkfth_75.99_66.35.jpg,left,0,0,0,0,,,,,0,10,10,10,,,,,,,,,0,0,0,0,0,13,13,13,,,,,,,,,,,,,,,,,,478.69368652190167,None,None,0,478.69368652190167,None,,,,,,,,,,,,,,,,,,,,,,,,,,,,,,,,,,,,,,,,,,,,,,,,,,,,,,,,,,,,,benitoR,001,b,2019_Oct_14_2032,Experimento,3.2.3,60.053426773653385,
8,14,14,999,0.5,0:10,3,Yellow,None,0,0,1,28:50,./completed_changuitos/montage_qkfth_75.99_66.35.jpg,left,0,0,0,0,,,,,0,10,10,10,,,,,,,,,0,0,0,0,0,14,14,14,,,,,,,,,,,,,,,,,,478.7100594248011,None,None,1,478.7100594248011,None,,,,,,,,,,,,,,,,,,,,,,,,,,,,,,,,,,,,,,,,,,,,,,,,,,,,,,,,,,,,,benitoR,001,b,2019_Oct_14_2032,Experimento,3.2.3,60.053426773653385,
8,14,14,999,0.5,0:10,3,Cyan,None,0,0,1,28:50,./completed_changuitos/montage_qkfth_75.99_66.35.jpg,left,0,0,0,0,,,,,0,10,10,10,,,,,,,,,0,0,0,0,0,15,15,15,,,,,,,,,,,,,,,,,,478.7100594248011,None,None,1,478.7100594248011,None,,,,,,,,,,,,,,,,,,,,,,,,,,,,,,,,,,,,,,,,,,,,,,,,,,,,,,,,,,,,,benitoR,001,b,2019_Oct_14_2032,Experimento,3.2.3,60.053426773653385,
8,14,14,999,0.5,0:10,3,Green,None,0,0,1,28:50,./completed_changuitos/montage_qkfth_75.99_66.35.jpg,left,0,0,0,0,,,,,0,10,10,10,,,,,,,,,0,0,0,0,0,16,16,16,,,,,,,,,,,,,,,,,,478.7100594248011,None,None,1,478.7100594248011,None,,,,,,,,,,,,,,,,,,,,,,,,,,,,,,,,,,,,,,,,,,,,,,,,,,,,,,,,,,,,,benitoR,001,b,2019_Oct_14_2032,Experimento,3.2.3,60.053426773653385,
8,14,14,999,0.5,0:10,3,White,None,0,0,1,28:50,./completed_changuitos/montage_qkfth_75.99_66.35.jpg,left,0,0,0,0,,,,,0,10,10,10,,,,,,,,,0,0,0,0,0,17,17,17,,,,,,,,,,,,,,,,,,478.7100594248011,None,None,1,478.7100594248011,None,,,,,,,,,,,,,,,,,,,,,,,,,,,,,,,,,,,,,,,,,,,,,,,,,,,,,,,,,,,,,benitoR,001,b,2019_Oct_14_2032,Experimento,3.2.3,60.053426773653385,
8,14,14,999,0.5,0:10,3,Green,['space'],0,0,1,28:50,./completed_changuitos/montage_qkfth_75.99_66.35.jpg,left,0,0,0,0,,,,,0,10,10,10,,,,,,,,,0,0,0,0,0,18,18,18,,,,,,,,,,,,,,,,,,478.7100594248011,None,None,0,478.7100594248011,None,,,,,,,,,,,,,,,,,,,,,,,,,,,,,,,,,,,,,,,,,,,,,,,,,,,,,,,,,,,,,benitoR,001,b,2019_Oct_14_2032,Experimento,3.2.3,60.053426773653385,
8,14,14,999,0.5,0:10,3,Red,None,0,0,1,28:50,./completed_changuitos/montage_qkfth_75.99_66.35.jpg,left,0,0,0,0,,,,,0,10,10,10,,,,,,,,,0,0,0,0,0,19,19,19,,,,,,,,,,,,,,,,,,478.7100594248011,None,None,1,478.7100594248011,None,,,,,,,,,,,,,,,,,,,,,,,,,,,,,,,,,,,,,,,,,,,,,,,,,,,,,,,,,,,,,benitoR,001,b,2019_Oct_14_2032,Experimento,3.2.3,60.053426773653385,
8,14,14,999,0.5,0:10,3,Blue,None,0,0,1,28:50,./completed_changuitos/montage_qkfth_75.99_66.35.jpg,left,0,0,0,0,,,,,0,10,10,10,,,,,,,,,0,0,0,0,0,20,20,20,,,,,,,,,,,,,,,,,,478.7100594248011,None,None,1,478.7100594248011,None,,,,,,,,,,,,,,,,,,,,,,,,,,,,,,,,,,,,,,,,,,,,,,,,,,,,,,,,,,,,,benitoR,001,b,2019_Oct_14_2032,Experimento,3.2.3,60.053426773653385,
8,14,14,999,0.5,0:10,3,Green,None,0,0,1,28:50,./completed_changuitos/montage_qkfth_75.99_66.35.jpg,left,0,0,0,0,,,,,0,10,10,10,,,,,,,,,0,0,0,0,0,21,21,21,,,,,,,,,,,,,,,,,,478.7100594248011,None,None,1,478.7100594248011,None,,,,,,,,,,,,,,,,,,,,,,,,,,,,,,,,,,,,,,,,,,,,,,,,,,,,,,,,,,,,,benitoR,001,b,2019_Oct_14_2032,Experimento,3.2.3,60.053426773653385,
8,14,14,999,0.5,0:10,3,,,0,0,1,28:50,./completed_changuitos/montage_qkfth_75.99_66.35.jpg,left,0,0,0,0,,,,,0,10,10,10,,,,,,,,,0,0,0,0,,,,,,,,,,,,,,,,,,,,,,,,,,,,,478.81100049600354,None,left,1,1.45211996800208,478.81100049600354,None,478.81100049600354,None,,,,,,,,,,,,,,,,,,,,,,,,,,,,,,,,,,,,,,,,,,,,,,,,,,,benitoR,001,b,2019_Oct_14_2032,Experimento,3.2.3,60.053426773653385,
8,14,14,999,0.5,0:10,3,,,0,0,1,28:50,,,0,0,0,0,,,,,0,10,10,10,,,,,,,,,,,,,,,,,,,,,,,,,,,,,,,,,,,,,,,,,,,,,,,,,,,,,,,,,,,,,,,,,,,,,,,,,,,,,,,,,,,,,,,,,,,,,,,,,,,,benitoR,001,b,2019_Oct_14_2032,Experimento,3.2.3,60.053426773653385,
8,14,14,999,0.5,0:10,3,,,0,1,0,10:50,./completed_changuitos/montage_tnjtg_125.19_108.99.jpg,left,0,0,0,0,,,,,0,11,11,11,,,,,0,0,0,0,,,,,,,,,,,,,,,,,,,,,,,,,,,,,,,,,,,,,,,,,,480.56212144100573,482.2975309189933,482.2975309189933,490.30962911399547,490.30962911399547,504.30940885799646,left,1,0.9547451380058192,504.30940885799646,None,504.30940885799646,None,504.30940885799646,None,,,,,,,,,,,,,,,,,,,,,,,,,,,,,,,,,,,,benitoR,001,b,2019_Oct_14_2032,Experimento,3.2.3,60.053426773653385,
8,14,14,999,0.5,0:10,3,,,0,1,0,10:50,,,0,0,0,0,,,,,0,11,11,11,,,,,,,,,,,,,,,,,,,,,,,,,,,,,,,,,,,,,,,,,,,,,,,,,,,,,,,,,,,,,,,,,,,,,,,,,,,,,,,,,,,,,,,,,,,,,,,,,,,,benitoR,001,b,2019_Oct_14_2032,Experimento,3.2.3,60.053426773653385,
8,14,14,999,0.5,0:10,3,,,1,0,0,30:50,./completed_changuitos/montage_gdkkk_81.35_71.45.jpg,left,0,0,0,0,,,,,0,12,12,12,0,0,0,0,,,,,,,,,,,,,,,,,,,,,,,,,,,,,,,,,,,,,,,,,,,,,,,,,,,,,,,,,,,,,506.0775072020042,508.96278949599946,508.96278949599946,516.976783000995,right,0,1.997812232002616,516.976783000995,None,516.976783000995,None,516.976783000995,None,,,,,,,,,,,,,,,,,,,,,,,benitoR,001,b,2019_Oct_14_2032,Experimento,3.2.3,60.053426773653385,
8,14,14,999,0.5,0:10,3,,,1,0,0,30:50,,,0,0,0,0,,,,,0,12,12,12,,,,,,,,,,,,,,,,,,,,,,,,,,,,,,,,,,,,,,,,,,,,,,,,,,,,,,,,,,,,,,,,,,,,,,,,,,,,,,,,,,,,,,,,,,,,,,,,,,,,benitoR,001,b,2019_Oct_14_2032,Experimento,3.2.3,60.053426773653385,
8,14,14,999,0.5,0:10,3,,,1,0,0,32:50,./completed_changuitos/montage_wrdaf_92.99_108.09.jpg,right,0,0,0,0,,,,,0,13,13,13,0,0,0,0,,,,,,,,,,,,,,,,,,,,,,,,,,,,,,,,,,,,,,,,,,,,,,,,,,,,,,,,,,,,,519.7603874040069,524.0471696470049,524.0471696470049,532.0590397189953,right,1,2.1371841890068026,532.0590397189953,None,532.0590397189953,None,532.0590397189953,None,,,,,,,,,,,,,,,,,,,,,,,benitoR,001,b,2019_Oct_14_2032,Experimento,3.2.3,60.053426773653385,
8,14,14,999,0.5,0:10,3,,,1,0,0,32:50,,,0,0,0,0,,,,,0,13,13,13,,,,,,,,,,,,,,,,,,,,,,,,,,,,,,,,,,,,,,,,,,,,,,,,,,,,,,,,,,,,,,,,,,,,,,,,,,,,,,,,,,,,,,,,,,,,,,,,,,,,benitoR,001,b,2019_Oct_14_2032,Experimento,3.2.3,60.053426773653385,
8,14,14,999,0.5,0:10,3,,,1,0,0,34:50,./completed_changuitos/montage_ykojr_139.59_119.85.jpg,left,0,0,0,0,,,,,0,14,14,14,0,0,0,0,,,,,,,,,,,,,,,,,,,,,,,,,,,,,,,,,,,,,,,,,,,,,,,,,,,,,,,,,,,,,535.0099725850014,536.3608772839943,536.3608772839943,544.3757127139979,left,1,0.7771310829994036,544.3757127139979,None,544.3757127139979,None,544.3757127139979,None,,,,,,,,,,,,,,,,,,,,,,,benitoR,001,b,2019_Oct_14_2032,Experimento,3.2.3,60.053426773653385,
8,14,14,999,0.5,0:10,3,,,1,0,0,34:50,,,0,0,0,0,,,,,0,14,14,14,,,,,,,,,,,,,,,,,,,,,,,,,,,,,,,,,,,,,,,,,,,,,,,,,,,,,,,,,,,,,,,,,,,,,,,,,,,,,,,,,,,,,,,,,,,,,,,,,,,,benitoR,001,b,2019_Oct_14_2032,Experimento,3.2.3,60.053426773653385,
8,14,14,999,0.5,0:10,3,,,1,0,0,30:50,./completed_changuitos/montage_sfryn_99.0_84.55.jpg,left,0,0,0,0,,,,,0,15,15,15,0,0,0,0,,,,,,,,,,,,,,,,,,,,,,,,,,,,,,,,,,,,,,,,,,,,,,,,,,,,,,,,,,,,,545.9430764179997,547.2612282920018,547.2612282920018,555.2753945059958,right,0,0.9231322179985,555.2753945059958,None,555.2753945059958,None,555.2753945059958,None,,,,,,,,,,,,,,,,,,,,,,,benitoR,001,b,2019_Oct_14_2032,Experimento,3.2.3,60.053426773653385,
8,14,14,999,0.5,0:10,3,,,1,0,0,30:50,,,0,0,0,0,,,,,0,15,15,15,,,,,,,,,,,,,,,,,,,,,,,,,,,,,,,,,,,,,,,,,,,,,,,,,,,,,,,,,,,,,,,,,,,,,,,,,,,,,,,,,,,,,,,,,,,,,,,,,,,,benitoR,001,b,2019_Oct_14_2032,Experimento,3.2.3,60.053426773653385,
8,14,14,999,0.5,0:10,3,,,1,0,0,32:50,./completed_changuitos/montage_ljxlq_334.9_293.19.jpg,left,0,0,0,0,,,,,0,16,16,16,0,0,0,0,,,,,,,,,,,,,,,,,,,,,,,,,,,,,,,,,,,,,,,,,,,,,,,,,,,,,,,,,,,,,556.9936056709994,558.1800162699947,558.1800162699947,566.1919360559987,right,0,1.1602731099992525,566.1919360559987,None,566.1919360559987,None,566.1919360559987,None,,,,,,,,,,,,,,,,,,,,,,,benitoR,001,b,2019_Oct_14_2032,Experimento,3.2.3,60.053426773653385,
8,14,14,999,0.5,0:10,3,,,1,0,0,32:50,,,0,0,0,0,,,,,0,16,16,16,,,,,,,,,,,,,,,,,,,,,,,,,,,,,,,,,,,,,,,,,,,,,,,,,,,,,,,,,,,,,,,,,,,,,,,,,,,,,,,,,,,,,,,,,,,,,,,,,,,,benitoR,001,b,2019_Oct_14_2032,Experimento,3.2.3,60.053426773653385,
8,14,14,999,0.5,0:10,3,,,1,0,0,34:50,./completed_changuitos/montage_jnhms_37.45_33.5.jpg,left,0,0,0,0,,,,,0,17,17,17,0,0,0,0,,,,,,,,,,,,,,,,,,,,,,,,,,,,,,,,,,,,,,,,,,,,,,,,,,,,,,,,,,,,,568.1594881979981,569.7950026659964,569.7950026659964,577.8084521970013,right,0,0.8695409609936178,577.8084521970013,None,577.8084521970013,None,577.8084521970013,None,,,,,,,,,,,,,,,,,,,,,,,benitoR,001,b,2019_Oct_14_2032,Experimento,3.2.3,60.053426773653385,
8,14,14,999,0.5,0:10,3,,,1,0,0,34:50,,,0,0,0,0,,,,,0,17,17,17,,,,,,,,,,,,,,,,,,,,,,,,,,,,,,,,,,,,,,,,,,,,,,,,,,,,,,,,,,,,,,,,,,,,,,,,,,,,,,,,,,,,,,,,,,,,,,,,,,,,benitoR,001,b,2019_Oct_14_2032,Experimento,3.2.3,60.053426773653385,
8,14,14,999,0.5,0:10,3,,,,,,,,,0,0,0,0,,,,,,,,,,,,,,,,,,,,,,,,,,,,,,,,,,,,,,,,,,,,,,,,,,,,,,,,,,,,,,,,,,,,,,,,,,,,,,,,,,,,,,578.7753178099956,583.8423363659967,0,8.683761966007296,583.8423363659967,None,583.8423363659967,None,c,11.731645355001092,592.5587188969948,None,592.5587188969948,None,592.5587188969948,None,604.3096742659982,None,3,8.052176651995978,604.3096742659982,None,benitoR,001,b,2019_Oct_14_2032,Experimento,3.2.3,60.053426773653385,
