changuito_time_to_show,time_to_think,time_to_play,total_items,nback_stimulus_time,nback_training,time_to_show_tiny_stimulus,colourtest,corresp,inmediato,consciente,inconsciente,nback_slice,imagen,correcta,trials_5.thisRepN,trials_5.thisTrialN,trials_5.thisN,trials_5.thisIndex,nback_train.thisRepN,nback_train.thisTrialN,nback_train.thisN,nback_train.thisIndex,treatment_order.thisRepN,treatment_order.thisTrialN,treatment_order.thisN,treatment_order.thisIndex,trials.thisRepN,trials.thisTrialN,trials.thisN,trials.thisIndex,trials_2.thisRepN,trials_2.thisTrialN,trials_2.thisN,trials_2.thisIndex,trials_3.thisRepN,trials_3.thisTrialN,trials_3.thisN,trials_3.thisIndex,trials_4.thisRepN,trials_4.thisTrialN,trials_4.thisN,trials_4.thisIndex,Presentacion.started,Presentacion.stopped,Juego.started,Juego.stopped,image_6.started,image_6.stopped,polygon.started,polygon.stopped,nback_train_resp.keys,nback_train_resp.corr,nback_train_resp.started,nback_train_resp.stopped,nback_train_resp.rt,hola.started,hola.stopped,image_2.started,image_2.stopped,tiempo_para_pensar.started,tiempo_para_pensar.stopped,respuesta_consciente.keys,respuesta_consciente.corr,respuesta_consciente.rt,respuesta_consciente.started,respuesta_consciente.stopped,cual_es_la_mas_barata.started,cual_es_la_mas_barata.stopped,image_4.started,image_4.stopped,holi.started,holi.stopped,image_3.started,image_3.stopped,polygon_2.started,polygon_2.stopped,nback_train_resp_2.keys,nback_train_resp_2.corr,nback_train_resp_2.started,nback_train_resp_2.stopped,nback_train_resp_2.rt,text_2.started,text_2.stopped,key_resp.keys,key_resp.corr,key_resp.rt,key_resp.started,key_resp.stopped,image_5.started,image_5.stopped,text.started,text.stopped,image.started,image.stopped,respuesta_inmediato.keys,respuesta_inmediato.corr,respuesta_inmediato.rt,respuesta_inmediato.started,respuesta_inmediato.stopped,pregunta_cual_es_el_mas_barato.started,pregunta_cual_es_el_mas_barato.stopped,short_stim1.started,short_stim1.stopped,gracias.started,gracias.stopped,respuesta1.keys,respuesta1.rt,respuesta1.started,respuesta1.stopped,pregunta1.started,pregunta1.stopped,respuesta3bis_3.keys,respuesta3bis_3.rt,respuesta3bis_3.started,respuesta3bis_3.stopped,pregunta3_3.started,pregunta3_3.stopped,productoCon3RANGOSabc_3.started,productoCon3RANGOSabc_3.stopped,text_3.started,text_3.stopped,key_resp_2.keys,key_resp_2.rt,key_resp_2.started,key_resp_2.stopped,participant,session,group,date,expName,psychopyVersion,frameRate,
8,14,14,999,0.5,0:10,3,White,None,,,,,,,0,0,0,0,0,0,0,0,,,,,,,,,,,,,,,,,,,,,22.804153250996023,None,34.241307361997315,None,34.241307361997315,None,105.89180188500904,106.35865416500019,None,1,105.89180188500904,None,,,,,,,,,,,,,,,,,,,,,,,,,,,,,,,,,,,,,,,,,,,,,,,,,,,,,,,,,,,,,,,,,,,,,,,,Gabi_G,001,a,2019_Nov_23_0044,Experimento,3.1.5,59.993615239135735,
8,14,14,999,0.5,0:10,3,Red,None,,,,,,,0,0,0,0,0,1,1,1,,,,,,,,,,,,,,,,,,,,,,,,,,,107.87603905099968,108.359874709,None,1,107.87603905099968,None,,,,,,,,,,,,,,,,,,,,,,,,,,,,,,,,,,,,,,,,,,,,,,,,,,,,,,,,,,,,,,,,,,,,,,,,Gabi_G,001,a,2019_Nov_23_0044,Experimento,3.1.5,59.993615239135735,
8,14,14,999,0.5,0:10,3,Magenta,None,,,,,,,0,0,0,0,0,2,2,2,,,,,,,,,,,,,,,,,,,,,,,,,,,109.87725838299957,110.3606453340035,None,1,109.87725838299957,None,,,,,,,,,,,,,,,,,,,,,,,,,,,,,,,,,,,,,,,,,,,,,,,,,,,,,,,,,,,,,,,,,,,,,,,,Gabi_G,001,a,2019_Nov_23_0044,Experimento,3.1.5,59.993615239135735,
8,14,14,999,0.5,0:10,3,Cyan,None,,,,,,,0,0,0,0,0,3,3,3,,,,,,,,,,,,,,,,,,,,,,,,,,,111.87793150299694,112.36177504800435,None,1,111.87793150299694,None,,,,,,,,,,,,,,,,,,,,,,,,,,,,,,,,,,,,,,,,,,,,,,,,,,,,,,,,,,,,,,,,,,,,,,,,Gabi_G,001,a,2019_Nov_23_0044,Experimento,3.1.5,59.993615239135735,
8,14,14,999,0.5,0:10,3,Magenta,['space'],,,,,,,0,0,0,0,0,4,4,4,,,,,,,,,,,,,,,,,,,,,,,,,,,113.87923173200397,114.36247125700174,['return'],0,113.87923173200397,None,[0.8037389689998236],,,,,,,,,,,,,,,,,,,,,,,,,,,,,,,,,,,,,,,,,,,,,,,,,,,,,,,,,,,,,,,,,,,,,,,Gabi_G,001,a,2019_Nov_23_0044,Experimento,3.1.5,59.993615239135735,
8,14,14,999,0.5,0:10,3,Green,None,,,,,,,0,0,0,0,0,5,5,5,,,,,,,,,,,,,,,,,,,,,,,,,,,115.87983368200366,116.36367104999954,None,1,115.87983368200366,None,,,,,,,,,,,,,,,,,,,,,,,,,,,,,,,,,,,,,,,,,,,,,,,,,,,,,,,,,,,,,,,,,,,,,,,,Gabi_G,001,a,2019_Nov_23_0044,Experimento,3.1.5,59.993615239135735,
8,14,14,999,0.5,0:10,3,White,None,,,,,,,0,0,0,0,0,6,6,6,,,,,,,,,,,,,,,,,,,,,,,,,,,117.88107236700307,118.36434391399962,None,1,117.88107236700307,None,,,,,,,,,,,,,,,,,,,,,,,,,,,,,,,,,,,,,,,,,,,,,,,,,,,,,,,,,,,,,,,,,,,,,,,,Gabi_G,001,a,2019_Nov_23_0044,Experimento,3.1.5,59.993615239135735,
8,14,14,999,0.5,0:10,3,Green,['space'],,,,,,,0,0,0,0,0,7,7,7,,,,,,,,,,,,,,,,,,,,,,,,,,,119.8817287080019,120.36559810700419,None,0,119.8817287080019,None,,,,,,,,,,,,,,,,,,,,,,,,,,,,,,,,,,,,,,,,,,,,,,,,,,,,,,,,,,,,,,,,,,,,,,,,Gabi_G,001,a,2019_Nov_23_0044,Experimento,3.1.5,59.993615239135735,
8,14,14,999,0.5,0:10,3,Blue,None,,,,,,,0,0,0,0,0,8,8,8,,,,,,,,,,,,,,,,,,,,,,,,,,,121.88296064399765,122.36625067400746,None,1,121.88296064399765,None,,,,,,,,,,,,,,,,,,,,,,,,,,,,,,,,,,,,,,,,,,,,,,,,,,,,,,,,,,,,,,,,,,,,,,,,Gabi_G,001,a,2019_Nov_23_0044,Experimento,3.1.5,59.993615239135735,
8,14,14,999,0.5,0:10,3,Green,['space'],,,,,,,0,0,0,0,0,9,9,9,,,,,,,,,,,,,,,,,,,,,,,,,,,123.88365236400568,124.36747594999906,['return'],0,123.88365236400568,None,[0.4292197709874017],,,,,,,,,,,,,,,,,,,,,,,,,,,,,,,,,,,,,,,,,,,,,,,,,,,,,,,,,,,,,,,,,,,,,,,Gabi_G,001,a,2019_Nov_23_0044,Experimento,3.1.5,59.993615239135735,
8,14,14,999,0.5,0:10,3,,,0,1,0,10:50,./completed_changuitos/montage_jvmkb_53.49_46.0.jpg,left,0,0,0,0,,,,,0,0,0,0,,,,,0,0,0,0,,,,,,,,,,,,,,,,,,,,,,126.21995256800437,162.2853242830024,162.2853242830024,170.28895694900712,170.28895694900712,184.2956915149989,left,1,3.408635822997894,184.2956915149989,None,184.2956915149989,None,184.2956915149989,187.29703496700677,,,,,,,,,,,,,,,,,,,,,,,,,,,,,,,,,,,,,,,,,,,,,,,,,,,,,,,,Gabi_G,001,a,2019_Nov_23_0044,Experimento,3.1.5,59.993615239135735,
8,14,14,999,0.5,0:10,3,,,0,1,0,10:50,,,0,0,0,0,,,,,0,0,0,0,,,,,,,,,,,,,,,,,,,,,,,,,,,,,,,,,,,,,,,,,,,,,,,,,,,,,,,,,,,,,,,,,,,,,,,,,,,,,,,,,,,,,,,,,,,,,,,,,,,,Gabi_G,001,a,2019_Nov_23_0044,Experimento,3.1.5,59.993615239135735,
8,14,14,999,0.5,0:10,3,Yellow,None,0,0,1,15:50,./completed_changuitos/montage_wipay_53.49_62.05.jpg,right,0,0,0,0,,,,,0,1,1,1,,,,,,,,,0,0,0,0,0,0,0,0,,,,,,,,,,,,,,,,,,,,,,,,,,,,,187.99829187699652,192.68320042699634,192.68320042699634,None,200.7203367970069,201.20362587900308,None,1,200.7203367970069,None,,,,,,,,,,,,,,,,,,,,,,,,,,,,,,,,,,,,,,,,,,,,,,Gabi_G,001,a,2019_Nov_23_0044,Experimento,3.1.5,59.993615239135735,
8,14,14,999,0.5,0:10,3,White,['space'],0,0,1,15:50,./completed_changuitos/montage_wipay_53.49_62.05.jpg,right,0,0,0,0,,,,,0,1,1,1,,,,,,,,,0,0,0,0,0,1,1,1,,,,,,,,,,,,,,,,,,,,,,,,,,,,,,,,,202.72101390700846,203.2048443859967,None,0,202.72101390700846,None,,,,,,,,,,,,,,,,,,,,,,,,,,,,,,,,,,,,,,,,,,,,,,Gabi_G,001,a,2019_Nov_23_0044,Experimento,3.1.5,59.993615239135735,
8,14,14,999,0.5,0:10,3,Magenta,None,0,0,1,15:50,./completed_changuitos/montage_wipay_53.49_62.05.jpg,right,0,0,0,0,,,,,0,1,1,1,,,,,,,,,0,0,0,0,0,2,2,2,,,,,,,,,,,,,,,,,,,,,,,,,,,,,,,,,204.72223139299604,205.20551500200236,None,1,204.72223139299604,None,,,,,,,,,,,,,,,,,,,,,,,,,,,,,,,,,,,,,,,,,,,,,,Gabi_G,001,a,2019_Nov_23_0044,Experimento,3.1.5,59.993615239135735,
8,14,14,999,0.5,0:10,3,Cyan,None,0,0,1,15:50,./completed_changuitos/montage_wipay_53.49_62.05.jpg,right,0,0,0,0,,,,,0,1,1,1,,,,,,,,,0,0,0,0,0,3,3,3,,,,,,,,,,,,,,,,,,,,,,,,,,,,,,,,,206.72290769399842,207.20674144200166,None,1,206.72290769399842,None,,,,,,,,,,,,,,,,,,,,,,,,,,,,,,,,,,,,,,,,,,,,,,Gabi_G,001,a,2019_Nov_23_0044,Experimento,3.1.5,59.993615239135735,
8,14,14,999,0.5,0:10,3,Blue,None,0,0,1,15:50,./completed_changuitos/montage_wipay_53.49_62.05.jpg,right,0,0,0,0,,,,,0,1,1,1,,,,,,,,,0,0,0,0,0,4,4,4,,,,,,,,,,,,,,,,,,,,,,,,,,,,,,,,,208.72412311300286,209.2074325739959,None,1,208.72412311300286,None,,,,,,,,,,,,,,,,,,,,,,,,,,,,,,,,,,,,,,,,,,,,,,Gabi_G,001,a,2019_Nov_23_0044,Experimento,3.1.5,59.993615239135735,
8,14,14,999,0.5,0:10,3,Magenta,None,0,0,1,15:50,./completed_changuitos/montage_wipay_53.49_62.05.jpg,right,0,0,0,0,,,,,0,1,1,1,,,,,,,,,0,0,0,0,0,5,5,5,,,,,,,,,,,,,,,,,,,,,,,,,,,,,,,,,210.72479537600884,211.20868968800642,None,1,210.72479537600884,None,,,,,,,,,,,,,,,,,,,,,,,,,,,,,,,,,,,,,,,,,,,,,,Gabi_G,001,a,2019_Nov_23_0044,Experimento,3.1.5,59.993615239135735,
8,14,14,999,0.5,0:10,3,Blue,['space'],0,0,1,15:50,./completed_changuitos/montage_wipay_53.49_62.05.jpg,right,0,0,0,0,,,,,0,1,1,1,,,,,,,,,0,0,0,0,0,6,6,6,,,,,,,,,,,,,,,,,,,,,,,,,,,,,,,,,212.72608742601005,213.20930215500994,['return'],0,212.72608742601005,None,[0.3445368920074543],,,,,,,,,,,,,,,,,,,,,,,,,,,,,,,,,,,,,,,,,,,,,Gabi_G,001,a,2019_Nov_23_0044,Experimento,3.1.5,59.993615239135735,
8,14,14,999,0.5,0:10,3,Cyan,None,0,0,1,15:50,./completed_changuitos/montage_wipay_53.49_62.05.jpg,right,0,0,0,0,,,,,0,1,1,1,,,,,,,,,0,0,0,0,0,7,7,7,,,,,,,,,,,,,,,,,,,,,,,,,,,,,,,,,None,None,None,1,None,None,,,,,,,,,,,,,,,,,,,,,,,,,,,,,,,,,,,,,,,,,,,,,,Gabi_G,001,a,2019_Nov_23_0044,Experimento,3.1.5,59.993615239135735,
8,14,14,999,0.5,0:10,3,Yellow,None,0,0,1,15:50,./completed_changuitos/montage_wipay_53.49_62.05.jpg,right,0,0,0,0,,,,,0,1,1,1,,,,,,,,,0,0,0,0,0,8,8,8,,,,,,,,,,,,,,,,,,,,,,,,,,,,,,,,,None,None,None,1,None,None,,,,,,,,,,,,,,,,,,,,,,,,,,,,,,,,,,,,,,,,,,,,,,Gabi_G,001,a,2019_Nov_23_0044,Experimento,3.1.5,59.993615239135735,
8,14,14,999,0.5,0:10,3,Cyan,None,0,0,1,15:50,./completed_changuitos/montage_wipay_53.49_62.05.jpg,right,0,0,0,0,,,,,0,1,1,1,,,,,,,,,0,0,0,0,0,9,9,9,,,,,,,,,,,,,,,,,,,,,,,,,,,,,,,,,None,None,None,1,None,None,,,,,,,,,,,,,,,,,,,,,,,,,,,,,,,,,,,,,,,,,,,,,,Gabi_G,001,a,2019_Nov_23_0044,Experimento,3.1.5,59.993615239135735,
8,14,14,999,0.5,0:10,3,Blue,None,0,0,1,15:50,./completed_changuitos/montage_wipay_53.49_62.05.jpg,right,0,0,0,0,,,,,0,1,1,1,,,,,,,,,0,0,0,0,0,10,10,10,,,,,,,,,,,,,,,,,,,,,,,,,,,,,,,,,None,None,None,1,None,None,,,,,,,,,,,,,,,,,,,,,,,,,,,,,,,,,,,,,,,,,,,,,,Gabi_G,001,a,2019_Nov_23_0044,Experimento,3.1.5,59.993615239135735,
8,14,14,999,0.5,0:10,3,Cyan,['space'],0,0,1,15:50,./completed_changuitos/montage_wipay_53.49_62.05.jpg,right,0,0,0,0,,,,,0,1,1,1,,,,,,,,,0,0,0,0,0,11,11,11,,,,,,,,,,,,,,,,,,,,,,,,,,,,,,,,,None,None,None,0,None,None,,,,,,,,,,,,,,,,,,,,,,,,,,,,,,,,,,,,,,,,,,,,,,Gabi_G,001,a,2019_Nov_23_0044,Experimento,3.1.5,59.993615239135735,
8,14,14,999,0.5,0:10,3,Magenta,None,0,0,1,15:50,./completed_changuitos/montage_wipay_53.49_62.05.jpg,right,0,0,0,0,,,,,0,1,1,1,,,,,,,,,0,0,0,0,0,12,12,12,,,,,,,,,,,,,,,,,,,,,,,,,,,,,,,,,None,None,None,1,None,None,,,,,,,,,,,,,,,,,,,,,,,,,,,,,,,,,,,,,,,,,,,,,,Gabi_G,001,a,2019_Nov_23_0044,Experimento,3.1.5,59.993615239135735,
8,14,14,999,0.5,0:10,3,Red,None,0,0,1,15:50,./completed_changuitos/montage_wipay_53.49_62.05.jpg,right,0,0,0,0,,,,,0,1,1,1,,,,,,,,,0,0,0,0,0,13,13,13,,,,,,,,,,,,,,,,,,,,,,,,,,,,,,,,,None,None,None,1,None,None,,,,,,,,,,,,,,,,,,,,,,,,,,,,,,,,,,,,,,,,,,,,,,Gabi_G,001,a,2019_Nov_23_0044,Experimento,3.1.5,59.993615239135735,
8,14,14,999,0.5,0:10,3,Magenta,['space'],0,0,1,15:50,./completed_changuitos/montage_wipay_53.49_62.05.jpg,right,0,0,0,0,,,,,0,1,1,1,,,,,,,,,0,0,0,0,0,14,14,14,,,,,,,,,,,,,,,,,,,,,,,,,,,,,,,,,None,None,None,0,None,None,,,,,,,,,,,,,,,,,,,,,,,,,,,,,,,,,,,,,,,,,,,,,,Gabi_G,001,a,2019_Nov_23_0044,Experimento,3.1.5,59.993615239135735,
8,14,14,999,0.5,0:10,3,Green,None,0,0,1,15:50,./completed_changuitos/montage_wipay_53.49_62.05.jpg,right,0,0,0,0,,,,,0,1,1,1,,,,,,,,,0,0,0,0,0,15,15,15,,,,,,,,,,,,,,,,,,,,,,,,,,,,,,,,,None,None,None,1,None,None,,,,,,,,,,,,,,,,,,,,,,,,,,,,,,,,,,,,,,,,,,,,,,Gabi_G,001,a,2019_Nov_23_0044,Experimento,3.1.5,59.993615239135735,
8,14,14,999,0.5,0:10,3,Yellow,['space'],0,0,1,15:50,./completed_changuitos/montage_wipay_53.49_62.05.jpg,right,0,0,0,0,,,,,0,1,1,1,,,,,,,,,0,0,0,0,0,16,16,16,,,,,,,,,,,,,,,,,,,,,,,,,,,,,,,,,None,None,None,0,None,None,,,,,,,,,,,,,,,,,,,,,,,,,,,,,,,,,,,,,,,,,,,,,,Gabi_G,001,a,2019_Nov_23_0044,Experimento,3.1.5,59.993615239135735,
8,14,14,999,0.5,0:10,3,Blue,None,0,0,1,15:50,./completed_changuitos/montage_wipay_53.49_62.05.jpg,right,0,0,0,0,,,,,0,1,1,1,,,,,,,,,0,0,0,0,0,17,17,17,,,,,,,,,,,,,,,,,,,,,,,,,,,,,,,,,None,None,None,1,None,None,,,,,,,,,,,,,,,,,,,,,,,,,,,,,,,,,,,,,,,,,,,,,,Gabi_G,001,a,2019_Nov_23_0044,Experimento,3.1.5,59.993615239135735,
8,14,14,999,0.5,0:10,3,Cyan,None,0,0,1,15:50,./completed_changuitos/montage_wipay_53.49_62.05.jpg,right,0,0,0,0,,,,,0,1,1,1,,,,,,,,,0,0,0,0,0,18,18,18,,,,,,,,,,,,,,,,,,,,,,,,,,,,,,,,,None,None,None,1,None,None,,,,,,,,,,,,,,,,,,,,,,,,,,,,,,,,,,,,,,,,,,,,,,Gabi_G,001,a,2019_Nov_23_0044,Experimento,3.1.5,59.993615239135735,
8,14,14,999,0.5,0:10,3,Blue,['space'],0,0,1,15:50,./completed_changuitos/montage_wipay_53.49_62.05.jpg,right,0,0,0,0,,,,,0,1,1,1,,,,,,,,,0,0,0,0,0,19,19,19,,,,,,,,,,,,,,,,,,,,,,,,,,,,,,,,,None,None,None,0,None,None,,,,,,,,,,,,,,,,,,,,,,,,,,,,,,,,,,,,,,,,,,,,,,Gabi_G,001,a,2019_Nov_23_0044,Experimento,3.1.5,59.993615239135735,
8,14,14,999,0.5,0:10,3,Yellow,None,0,0,1,15:50,./completed_changuitos/montage_wipay_53.49_62.05.jpg,right,0,0,0,0,,,,,0,1,1,1,,,,,,,,,0,0,0,0,0,20,20,20,,,,,,,,,,,,,,,,,,,,,,,,,,,,,,,,,None,None,None,1,None,None,,,,,,,,,,,,,,,,,,,,,,,,,,,,,,,,,,,,,,,,,,,,,,Gabi_G,001,a,2019_Nov_23_0044,Experimento,3.1.5,59.993615239135735,
8,14,14,999,0.5,0:10,3,Cyan,None,0,0,1,15:50,./completed_changuitos/montage_wipay_53.49_62.05.jpg,right,0,0,0,0,,,,,0,1,1,1,,,,,,,,,0,0,0,0,0,21,21,21,,,,,,,,,,,,,,,,,,,,,,,,,,,,,,,,,None,None,None,1,None,None,,,,,,,,,,,,,,,,,,,,,,,,,,,,,,,,,,,,,,,,,,,,,,Gabi_G,001,a,2019_Nov_23_0044,Experimento,3.1.5,59.993615239135735,
8,14,14,999,0.5,0:10,3,Yellow,['space'],0,0,1,15:50,./completed_changuitos/montage_wipay_53.49_62.05.jpg,right,0,0,0,0,,,,,0,1,1,1,,,,,,,,,0,0,0,0,0,22,22,22,,,,,,,,,,,,,,,,,,,,,,,,,,,,,,,,,None,None,None,0,None,None,,,,,,,,,,,,,,,,,,,,,,,,,,,,,,,,,,,,,,,,,,,,,,Gabi_G,001,a,2019_Nov_23_0044,Experimento,3.1.5,59.993615239135735,
8,14,14,999,0.5,0:10,3,Magenta,None,0,0,1,15:50,./completed_changuitos/montage_wipay_53.49_62.05.jpg,right,0,0,0,0,,,,,0,1,1,1,,,,,,,,,0,0,0,0,0,23,23,23,,,,,,,,,,,,,,,,,,,,,,,,,,,,,,,,,None,None,None,1,None,None,,,,,,,,,,,,,,,,,,,,,,,,,,,,,,,,,,,,,,,,,,,,,,Gabi_G,001,a,2019_Nov_23_0044,Experimento,3.1.5,59.993615239135735,
8,14,14,999,0.5,0:10,3,Red,None,0,0,1,15:50,./completed_changuitos/montage_wipay_53.49_62.05.jpg,right,0,0,0,0,,,,,0,1,1,1,,,,,,,,,0,0,0,0,0,24,24,24,,,,,,,,,,,,,,,,,,,,,,,,,,,,,,,,,None,None,None,1,None,None,,,,,,,,,,,,,,,,,,,,,,,,,,,,,,,,,,,,,,,,,,,,,,Gabi_G,001,a,2019_Nov_23_0044,Experimento,3.1.5,59.993615239135735,
8,14,14,999,0.5,0:10,3,Magenta,['space'],0,0,1,15:50,./completed_changuitos/montage_wipay_53.49_62.05.jpg,right,0,0,0,0,,,,,0,1,1,1,,,,,,,,,0,0,0,0,0,25,25,25,,,,,,,,,,,,,,,,,,,,,,,,,,,,,,,,,None,None,None,0,None,None,,,,,,,,,,,,,,,,,,,,,,,,,,,,,,,,,,,,,,,,,,,,,,Gabi_G,001,a,2019_Nov_23_0044,Experimento,3.1.5,59.993615239135735,
8,14,14,999,0.5,0:10,3,Red,['space'],0,0,1,15:50,./completed_changuitos/montage_wipay_53.49_62.05.jpg,right,0,0,0,0,,,,,0,1,1,1,,,,,,,,,0,0,0,0,0,26,26,26,,,,,,,,,,,,,,,,,,,,,,,,,,,,,,,,,None,None,None,0,None,None,,,,,,,,,,,,,,,,,,,,,,,,,,,,,,,,,,,,,,,,,,,,,,Gabi_G,001,a,2019_Nov_23_0044,Experimento,3.1.5,59.993615239135735,
8,14,14,999,0.5,0:10,3,Yellow,None,0,0,1,15:50,./completed_changuitos/montage_wipay_53.49_62.05.jpg,right,0,0,0,0,,,,,0,1,1,1,,,,,,,,,0,0,0,0,0,27,27,27,,,,,,,,,,,,,,,,,,,,,,,,,,,,,,,,,None,None,None,1,None,None,,,,,,,,,,,,,,,,,,,,,,,,,,,,,,,,,,,,,,,,,,,,,,Gabi_G,001,a,2019_Nov_23_0044,Experimento,3.1.5,59.993615239135735,
8,14,14,999,0.5,0:10,3,Cyan,None,0,0,1,15:50,./completed_changuitos/montage_wipay_53.49_62.05.jpg,right,0,0,0,0,,,,,0,1,1,1,,,,,,,,,0,0,0,0,0,28,28,28,,,,,,,,,,,,,,,,,,,,,,,,,,,,,,,,,None,None,None,1,None,None,,,,,,,,,,,,,,,,,,,,,,,,,,,,,,,,,,,,,,,,,,,,,,Gabi_G,001,a,2019_Nov_23_0044,Experimento,3.1.5,59.993615239135735,
8,14,14,999,0.5,0:10,3,Green,None,0,0,1,15:50,./completed_changuitos/montage_wipay_53.49_62.05.jpg,right,0,0,0,0,,,,,0,1,1,1,,,,,,,,,0,0,0,0,0,29,29,29,,,,,,,,,,,,,,,,,,,,,,,,,,,,,,,,,None,None,None,1,None,None,,,,,,,,,,,,,,,,,,,,,,,,,,,,,,,,,,,,,,,,,,,,,,Gabi_G,001,a,2019_Nov_23_0044,Experimento,3.1.5,59.993615239135735,
8,14,14,999,0.5,0:10,3,White,None,0,0,1,15:50,./completed_changuitos/montage_wipay_53.49_62.05.jpg,right,0,0,0,0,,,,,0,1,1,1,,,,,,,,,0,0,0,0,0,30,30,30,,,,,,,,,,,,,,,,,,,,,,,,,,,,,,,,,None,None,None,1,None,None,,,,,,,,,,,,,,,,,,,,,,,,,,,,,,,,,,,,,,,,,,,,,,Gabi_G,001,a,2019_Nov_23_0044,Experimento,3.1.5,59.993615239135735,
8,14,14,999,0.5,0:10,3,Green,['space'],0,0,1,15:50,./completed_changuitos/montage_wipay_53.49_62.05.jpg,right,0,0,0,0,,,,,0,1,1,1,,,,,,,,,0,0,0,0,0,31,31,31,,,,,,,,,,,,,,,,,,,,,,,,,,,,,,,,,None,None,None,0,None,None,,,,,,,,,,,,,,,,,,,,,,,,,,,,,,,,,,,,,,,,,,,,,,Gabi_G,001,a,2019_Nov_23_0044,Experimento,3.1.5,59.993615239135735,
8,14,14,999,0.5,0:10,3,Red,None,0,0,1,15:50,./completed_changuitos/montage_wipay_53.49_62.05.jpg,right,0,0,0,0,,,,,0,1,1,1,,,,,,,,,0,0,0,0,0,32,32,32,,,,,,,,,,,,,,,,,,,,,,,,,,,,,,,,,None,None,None,1,None,None,,,,,,,,,,,,,,,,,,,,,,,,,,,,,,,,,,,,,,,,,,,,,,Gabi_G,001,a,2019_Nov_23_0044,Experimento,3.1.5,59.993615239135735,
8,14,14,999,0.5,0:10,3,Blue,None,0,0,1,15:50,./completed_changuitos/montage_wipay_53.49_62.05.jpg,right,0,0,0,0,,,,,0,1,1,1,,,,,,,,,0,0,0,0,0,33,33,33,,,,,,,,,,,,,,,,,,,,,,,,,,,,,,,,,None,None,None,1,None,None,,,,,,,,,,,,,,,,,,,,,,,,,,,,,,,,,,,,,,,,,,,,,,Gabi_G,001,a,2019_Nov_23_0044,Experimento,3.1.5,59.993615239135735,
8,14,14,999,0.5,0:10,3,Green,None,0,0,1,15:50,./completed_changuitos/montage_wipay_53.49_62.05.jpg,right,0,0,0,0,,,,,0,1,1,1,,,,,,,,,0,0,0,0,0,34,34,34,,,,,,,,,,,,,,,,,,,,,,,,,,,,,,,,,None,None,None,1,None,None,,,,,,,,,,,,,,,,,,,,,,,,,,,,,,,,,,,,,,,,,,,,,,Gabi_G,001,a,2019_Nov_23_0044,Experimento,3.1.5,59.993615239135735,
8,14,14,999,0.5,0:10,3,,,0,0,1,15:50,./completed_changuitos/montage_wipay_53.49_62.05.jpg,right,0,0,0,0,,,,,0,1,1,1,,,,,,,,,0,0,0,0,,,,,,,,,,,,,,,,,,,,,,,,,,,,,,,,,,,,,,,,,,,,215.37770518100297,None,left,0,2.5164640769944526,215.37770518100297,None,215.37770518100297,None,,,,,,,,,,,,,,,,,,,,,,,,,,,,,,,,,,,,Gabi_G,001,a,2019_Nov_23_0044,Experimento,3.1.5,59.993615239135735,
8,14,14,999,0.5,0:10,3,,,0,0,1,15:50,,,0,0,0,0,,,,,0,1,1,1,,,,,,,,,,,,,,,,,,,,,,,,,,,,,,,,,,,,,,,,,,,,,,,,,,,,,,,,,,,,,,,,,,,,,,,,,,,,,,,,,,,,,,,,,,,,,,,,,,,,Gabi_G,001,a,2019_Nov_23_0044,Experimento,3.1.5,59.993615239135735,
8,14,14,999,0.5,0:10,3,,,0,1,0,19:50,./completed_changuitos/montage_gvywe_210.79_240.75.jpg,right,0,0,0,0,,,,,0,2,2,2,,,,,0,0,0,0,,,,,,,,,,,,,,,,,,,,,,218.19649172500067,219.39587002700137,219.39587002700137,227.39965344000666,227.39965344000666,241.40636640699813,left,0,1.1631854869920062,241.40636640699813,None,241.40636640699813,None,241.40636640699813,None,,,,,,,,,,,,,,,,,,,,,,,,,,,,,,,,,,,,,,,,,,,,,,,,,,,,,,,,Gabi_G,001,a,2019_Nov_23_0044,Experimento,3.1.5,59.993615239135735,
8,14,14,999,0.5,0:10,3,,,0,1,0,19:50,,,0,0,0,0,,,,,0,2,2,2,,,,,,,,,,,,,,,,,,,,,,,,,,,,,,,,,,,,,,,,,,,,,,,,,,,,,,,,,,,,,,,,,,,,,,,,,,,,,,,,,,,,,,,,,,,,,,,,,,,,Gabi_G,001,a,2019_Nov_23_0044,Experimento,3.1.5,59.993615239135735,
8,14,14,999,0.5,0:10,3,Magenta,None,0,0,1,20:50,./completed_changuitos/montage_rmgky_725.89_619.0.jpg,left,0,0,0,0,,,,,0,3,3,3,,,,,,,,,0,0,0,0,0,0,0,0,,,,,,,,,,,,,,,,,,,,,,,,,,,,,242.84078761500132,250.4769243710034,250.4769243710034,None,258.5141185810062,258.9979617200006,None,1,258.5141185810062,None,,,,,,,,,,,,,,,,,,,,,,,,,,,,,,,,,,,,,,,,,,,,,,Gabi_G,001,a,2019_Nov_23_0044,Experimento,3.1.5,59.993615239135735,
8,14,14,999,0.5,0:10,3,Blue,['space'],0,0,1,20:50,./completed_changuitos/montage_rmgky_725.89_619.0.jpg,left,0,0,0,0,,,,,0,3,3,3,,,,,,,,,0,0,0,0,0,1,1,1,,,,,,,,,,,,,,,,,,,,,,,,,,,,,,,,,260.5153499750013,260.99866261400166,None,0,260.5153499750013,None,,,,,,,,,,,,,,,,,,,,,,,,,,,,,,,,,,,,,,,,,,,,,,Gabi_G,001,a,2019_Nov_23_0044,Experimento,3.1.5,59.993615239135735,
8,14,14,999,0.5,0:10,3,Cyan,None,0,0,1,20:50,./completed_changuitos/montage_rmgky_725.89_619.0.jpg,left,0,0,0,0,,,,,0,3,3,3,,,,,,,,,0,0,0,0,0,2,2,2,,,,,,,,,,,,,,,,,,,,,,,,,,,,,,,,,262.5160175350029,262.99986669899954,None,1,262.5160175350029,None,,,,,,,,,,,,,,,,,,,,,,,,,,,,,,,,,,,,,,,,,,,,,,Gabi_G,001,a,2019_Nov_23_0044,Experimento,3.1.5,59.993615239135735,
8,14,14,999,0.5,0:10,3,Yellow,None,0,0,1,20:50,./completed_changuitos/montage_rmgky_725.89_619.0.jpg,left,0,0,0,0,,,,,0,3,3,3,,,,,,,,,0,0,0,0,0,3,3,3,,,,,,,,,,,,,,,,,,,,,,,,,,,,,,,,,264.51724386800197,265.0005251620023,None,1,264.51724386800197,None,,,,,,,,,,,,,,,,,,,,,,,,,,,,,,,,,,,,,,,,,,,,,,Gabi_G,001,a,2019_Nov_23_0044,Experimento,3.1.5,59.993615239135735,
8,14,14,999,0.5,0:10,3,Cyan,None,0,0,1,20:50,./completed_changuitos/montage_rmgky_725.89_619.0.jpg,left,0,0,0,0,,,,,0,3,3,3,,,,,,,,,0,0,0,0,0,4,4,4,,,,,,,,,,,,,,,,,,,,,,,,,,,,,,,,,266.5179472910095,267.00175830999797,['return'],0,266.5179472910095,None,[0.7284923779952805],,,,,,,,,,,,,,,,,,,,,,,,,,,,,,,,,,,,,,,,,,,,,Gabi_G,001,a,2019_Nov_23_0044,Experimento,3.1.5,59.993615239135735,
8,14,14,999,0.5,0:10,3,Blue,None,0,0,1,20:50,./completed_changuitos/montage_rmgky_725.89_619.0.jpg,left,0,0,0,0,,,,,0,3,3,3,,,,,,,,,0,0,0,0,0,5,5,5,,,,,,,,,,,,,,,,,,,,,,,,,,,,,,,,,268.51914931600913,269.0024218670005,None,1,268.51914931600913,None,,,,,,,,,,,,,,,,,,,,,,,,,,,,,,,,,,,,,,,,,,,,,,Gabi_G,001,a,2019_Nov_23_0044,Experimento,3.1.5,59.993615239135735,
8,14,14,999,0.5,0:10,3,Cyan,['space'],0,0,1,20:50,./completed_changuitos/montage_rmgky_725.89_619.0.jpg,left,0,0,0,0,,,,,0,3,3,3,,,,,,,,,0,0,0,0,0,6,6,6,,,,,,,,,,,,,,,,,,,,,,,,,,,,,,,,,270.51982747799775,271.00367310900765,['return'],0,270.51982747799775,None,[0.49535770701186266],,,,,,,,,,,,,,,,,,,,,,,,,,,,,,,,,,,,,,,,,,,,,Gabi_G,001,a,2019_Nov_23_0044,Experimento,3.1.5,59.993615239135735,
8,14,14,999,0.5,0:10,3,Magenta,None,0,0,1,20:50,./completed_changuitos/montage_rmgky_725.89_619.0.jpg,left,0,0,0,0,,,,,0,3,3,3,,,,,,,,,0,0,0,0,0,7,7,7,,,,,,,,,,,,,,,,,,,,,,,,,,,,,,,,,None,None,None,1,None,None,,,,,,,,,,,,,,,,,,,,,,,,,,,,,,,,,,,,,,,,,,,,,,Gabi_G,001,a,2019_Nov_23_0044,Experimento,3.1.5,59.993615239135735,
8,14,14,999,0.5,0:10,3,Red,None,0,0,1,20:50,./completed_changuitos/montage_rmgky_725.89_619.0.jpg,left,0,0,0,0,,,,,0,3,3,3,,,,,,,,,0,0,0,0,0,8,8,8,,,,,,,,,,,,,,,,,,,,,,,,,,,,,,,,,None,None,None,1,None,None,,,,,,,,,,,,,,,,,,,,,,,,,,,,,,,,,,,,,,,,,,,,,,Gabi_G,001,a,2019_Nov_23_0044,Experimento,3.1.5,59.993615239135735,
8,14,14,999,0.5,0:10,3,Magenta,['space'],0,0,1,20:50,./completed_changuitos/montage_rmgky_725.89_619.0.jpg,left,0,0,0,0,,,,,0,3,3,3,,,,,,,,,0,0,0,0,0,9,9,9,,,,,,,,,,,,,,,,,,,,,,,,,,,,,,,,,None,None,None,0,None,None,,,,,,,,,,,,,,,,,,,,,,,,,,,,,,,,,,,,,,,,,,,,,,Gabi_G,001,a,2019_Nov_23_0044,Experimento,3.1.5,59.993615239135735,
8,14,14,999,0.5,0:10,3,Green,None,0,0,1,20:50,./completed_changuitos/montage_rmgky_725.89_619.0.jpg,left,0,0,0,0,,,,,0,3,3,3,,,,,,,,,0,0,0,0,0,10,10,10,,,,,,,,,,,,,,,,,,,,,,,,,,,,,,,,,None,None,None,1,None,None,,,,,,,,,,,,,,,,,,,,,,,,,,,,,,,,,,,,,,,,,,,,,,Gabi_G,001,a,2019_Nov_23_0044,Experimento,3.1.5,59.993615239135735,
8,14,14,999,0.5,0:10,3,Yellow,['space'],0,0,1,20:50,./completed_changuitos/montage_rmgky_725.89_619.0.jpg,left,0,0,0,0,,,,,0,3,3,3,,,,,,,,,0,0,0,0,0,11,11,11,,,,,,,,,,,,,,,,,,,,,,,,,,,,,,,,,None,None,None,0,None,None,,,,,,,,,,,,,,,,,,,,,,,,,,,,,,,,,,,,,,,,,,,,,,Gabi_G,001,a,2019_Nov_23_0044,Experimento,3.1.5,59.993615239135735,
8,14,14,999,0.5,0:10,3,Blue,None,0,0,1,20:50,./completed_changuitos/montage_rmgky_725.89_619.0.jpg,left,0,0,0,0,,,,,0,3,3,3,,,,,,,,,0,0,0,0,0,12,12,12,,,,,,,,,,,,,,,,,,,,,,,,,,,,,,,,,None,None,None,1,None,None,,,,,,,,,,,,,,,,,,,,,,,,,,,,,,,,,,,,,,,,,,,,,,Gabi_G,001,a,2019_Nov_23_0044,Experimento,3.1.5,59.993615239135735,
8,14,14,999,0.5,0:10,3,Cyan,None,0,0,1,20:50,./completed_changuitos/montage_rmgky_725.89_619.0.jpg,left,0,0,0,0,,,,,0,3,3,3,,,,,,,,,0,0,0,0,0,13,13,13,,,,,,,,,,,,,,,,,,,,,,,,,,,,,,,,,None,None,None,1,None,None,,,,,,,,,,,,,,,,,,,,,,,,,,,,,,,,,,,,,,,,,,,,,,Gabi_G,001,a,2019_Nov_23_0044,Experimento,3.1.5,59.993615239135735,
8,14,14,999,0.5,0:10,3,Blue,['space'],0,0,1,20:50,./completed_changuitos/montage_rmgky_725.89_619.0.jpg,left,0,0,0,0,,,,,0,3,3,3,,,,,,,,,0,0,0,0,0,14,14,14,,,,,,,,,,,,,,,,,,,,,,,,,,,,,,,,,None,None,None,0,None,None,,,,,,,,,,,,,,,,,,,,,,,,,,,,,,,,,,,,,,,,,,,,,,Gabi_G,001,a,2019_Nov_23_0044,Experimento,3.1.5,59.993615239135735,
8,14,14,999,0.5,0:10,3,Yellow,None,0,0,1,20:50,./completed_changuitos/montage_rmgky_725.89_619.0.jpg,left,0,0,0,0,,,,,0,3,3,3,,,,,,,,,0,0,0,0,0,15,15,15,,,,,,,,,,,,,,,,,,,,,,,,,,,,,,,,,None,None,None,1,None,None,,,,,,,,,,,,,,,,,,,,,,,,,,,,,,,,,,,,,,,,,,,,,,Gabi_G,001,a,2019_Nov_23_0044,Experimento,3.1.5,59.993615239135735,
8,14,14,999,0.5,0:10,3,Cyan,None,0,0,1,20:50,./completed_changuitos/montage_rmgky_725.89_619.0.jpg,left,0,0,0,0,,,,,0,3,3,3,,,,,,,,,0,0,0,0,0,16,16,16,,,,,,,,,,,,,,,,,,,,,,,,,,,,,,,,,None,None,None,1,None,None,,,,,,,,,,,,,,,,,,,,,,,,,,,,,,,,,,,,,,,,,,,,,,Gabi_G,001,a,2019_Nov_23_0044,Experimento,3.1.5,59.993615239135735,
8,14,14,999,0.5,0:10,3,Yellow,['space'],0,0,1,20:50,./completed_changuitos/montage_rmgky_725.89_619.0.jpg,left,0,0,0,0,,,,,0,3,3,3,,,,,,,,,0,0,0,0,0,17,17,17,,,,,,,,,,,,,,,,,,,,,,,,,,,,,,,,,None,None,None,0,None,None,,,,,,,,,,,,,,,,,,,,,,,,,,,,,,,,,,,,,,,,,,,,,,Gabi_G,001,a,2019_Nov_23_0044,Experimento,3.1.5,59.993615239135735,
8,14,14,999,0.5,0:10,3,Magenta,None,0,0,1,20:50,./completed_changuitos/montage_rmgky_725.89_619.0.jpg,left,0,0,0,0,,,,,0,3,3,3,,,,,,,,,0,0,0,0,0,18,18,18,,,,,,,,,,,,,,,,,,,,,,,,,,,,,,,,,None,None,None,1,None,None,,,,,,,,,,,,,,,,,,,,,,,,,,,,,,,,,,,,,,,,,,,,,,Gabi_G,001,a,2019_Nov_23_0044,Experimento,3.1.5,59.993615239135735,
8,14,14,999,0.5,0:10,3,Red,None,0,0,1,20:50,./completed_changuitos/montage_rmgky_725.89_619.0.jpg,left,0,0,0,0,,,,,0,3,3,3,,,,,,,,,0,0,0,0,0,19,19,19,,,,,,,,,,,,,,,,,,,,,,,,,,,,,,,,,None,None,None,1,None,None,,,,,,,,,,,,,,,,,,,,,,,,,,,,,,,,,,,,,,,,,,,,,,Gabi_G,001,a,2019_Nov_23_0044,Experimento,3.1.5,59.993615239135735,
8,14,14,999,0.5,0:10,3,Magenta,['space'],0,0,1,20:50,./completed_changuitos/montage_rmgky_725.89_619.0.jpg,left,0,0,0,0,,,,,0,3,3,3,,,,,,,,,0,0,0,0,0,20,20,20,,,,,,,,,,,,,,,,,,,,,,,,,,,,,,,,,None,None,None,0,None,None,,,,,,,,,,,,,,,,,,,,,,,,,,,,,,,,,,,,,,,,,,,,,,Gabi_G,001,a,2019_Nov_23_0044,Experimento,3.1.5,59.993615239135735,
8,14,14,999,0.5,0:10,3,Red,['space'],0,0,1,20:50,./completed_changuitos/montage_rmgky_725.89_619.0.jpg,left,0,0,0,0,,,,,0,3,3,3,,,,,,,,,0,0,0,0,0,21,21,21,,,,,,,,,,,,,,,,,,,,,,,,,,,,,,,,,None,None,None,0,None,None,,,,,,,,,,,,,,,,,,,,,,,,,,,,,,,,,,,,,,,,,,,,,,Gabi_G,001,a,2019_Nov_23_0044,Experimento,3.1.5,59.993615239135735,
8,14,14,999,0.5,0:10,3,Yellow,None,0,0,1,20:50,./completed_changuitos/montage_rmgky_725.89_619.0.jpg,left,0,0,0,0,,,,,0,3,3,3,,,,,,,,,0,0,0,0,0,22,22,22,,,,,,,,,,,,,,,,,,,,,,,,,,,,,,,,,None,None,None,1,None,None,,,,,,,,,,,,,,,,,,,,,,,,,,,,,,,,,,,,,,,,,,,,,,Gabi_G,001,a,2019_Nov_23_0044,Experimento,3.1.5,59.993615239135735,
8,14,14,999,0.5,0:10,3,Cyan,None,0,0,1,20:50,./completed_changuitos/montage_rmgky_725.89_619.0.jpg,left,0,0,0,0,,,,,0,3,3,3,,,,,,,,,0,0,0,0,0,23,23,23,,,,,,,,,,,,,,,,,,,,,,,,,,,,,,,,,None,None,None,1,None,None,,,,,,,,,,,,,,,,,,,,,,,,,,,,,,,,,,,,,,,,,,,,,,Gabi_G,001,a,2019_Nov_23_0044,Experimento,3.1.5,59.993615239135735,
8,14,14,999,0.5,0:10,3,Green,None,0,0,1,20:50,./completed_changuitos/montage_rmgky_725.89_619.0.jpg,left,0,0,0,0,,,,,0,3,3,3,,,,,,,,,0,0,0,0,0,24,24,24,,,,,,,,,,,,,,,,,,,,,,,,,,,,,,,,,None,None,None,1,None,None,,,,,,,,,,,,,,,,,,,,,,,,,,,,,,,,,,,,,,,,,,,,,,Gabi_G,001,a,2019_Nov_23_0044,Experimento,3.1.5,59.993615239135735,
8,14,14,999,0.5,0:10,3,White,None,0,0,1,20:50,./completed_changuitos/montage_rmgky_725.89_619.0.jpg,left,0,0,0,0,,,,,0,3,3,3,,,,,,,,,0,0,0,0,0,25,25,25,,,,,,,,,,,,,,,,,,,,,,,,,,,,,,,,,None,None,None,1,None,None,,,,,,,,,,,,,,,,,,,,,,,,,,,,,,,,,,,,,,,,,,,,,,Gabi_G,001,a,2019_Nov_23_0044,Experimento,3.1.5,59.993615239135735,
8,14,14,999,0.5,0:10,3,Green,['space'],0,0,1,20:50,./completed_changuitos/montage_rmgky_725.89_619.0.jpg,left,0,0,0,0,,,,,0,3,3,3,,,,,,,,,0,0,0,0,0,26,26,26,,,,,,,,,,,,,,,,,,,,,,,,,,,,,,,,,None,None,None,0,None,None,,,,,,,,,,,,,,,,,,,,,,,,,,,,,,,,,,,,,,,,,,,,,,Gabi_G,001,a,2019_Nov_23_0044,Experimento,3.1.5,59.993615239135735,
8,14,14,999,0.5,0:10,3,Red,None,0,0,1,20:50,./completed_changuitos/montage_rmgky_725.89_619.0.jpg,left,0,0,0,0,,,,,0,3,3,3,,,,,,,,,0,0,0,0,0,27,27,27,,,,,,,,,,,,,,,,,,,,,,,,,,,,,,,,,None,None,None,1,None,None,,,,,,,,,,,,,,,,,,,,,,,,,,,,,,,,,,,,,,,,,,,,,,Gabi_G,001,a,2019_Nov_23_0044,Experimento,3.1.5,59.993615239135735,
8,14,14,999,0.5,0:10,3,Blue,None,0,0,1,20:50,./completed_changuitos/montage_rmgky_725.89_619.0.jpg,left,0,0,0,0,,,,,0,3,3,3,,,,,,,,,0,0,0,0,0,28,28,28,,,,,,,,,,,,,,,,,,,,,,,,,,,,,,,,,None,None,None,1,None,None,,,,,,,,,,,,,,,,,,,,,,,,,,,,,,,,,,,,,,,,,,,,,,Gabi_G,001,a,2019_Nov_23_0044,Experimento,3.1.5,59.993615239135735,
8,14,14,999,0.5,0:10,3,Green,None,0,0,1,20:50,./completed_changuitos/montage_rmgky_725.89_619.0.jpg,left,0,0,0,0,,,,,0,3,3,3,,,,,,,,,0,0,0,0,0,29,29,29,,,,,,,,,,,,,,,,,,,,,,,,,,,,,,,,,None,None,None,1,None,None,,,,,,,,,,,,,,,,,,,,,,,,,,,,,,,,,,,,,,,,,,,,,,Gabi_G,001,a,2019_Nov_23_0044,Experimento,3.1.5,59.993615239135735,
8,14,14,999,0.5,0:10,3,,,0,0,1,20:50,./completed_changuitos/montage_rmgky_725.89_619.0.jpg,left,0,0,0,0,,,,,0,3,3,3,,,,,,,,,0,0,0,0,,,,,,,,,,,,,,,,,,,,,,,,,,,,,,,,,,,,,,,,,,,,273.05508967500646,None,right,0,3.204842307997751,273.05508967500646,None,273.05508967500646,275.9394267410098,,,,,,,,,,,,,,,,,,,,,,,,,,,,,,,,,,,,Gabi_G,001,a,2019_Nov_23_0044,Experimento,3.1.5,59.993615239135735,
8,14,14,999,0.5,0:10,3,,,0,0,1,20:50,,,0,0,0,0,,,,,0,3,3,3,,,,,,,,,,,,,,,,,,,,,,,,,,,,,,,,,,,,,,,,,,,,,,,,,,,,,,,,,,,,,,,,,,,,,,,,,,,,,,,,,,,,,,,,,,,,,,,,,,,,Gabi_G,001,a,2019_Nov_23_0044,Experimento,3.1.5,59.993615239135735,
8,14,14,999,0.5,0:10,3,,,0,1,0,25:50,./completed_changuitos/montage_aewfl_59.7_52.45.jpg,left,0,0,0,0,,,,,0,4,4,4,,,,,0,0,0,0,,,,,,,,,,,,,,,,,,,,,,276.55702813199605,277.4563984670094,277.4563984670094,285.46024014800787,285.46024014800787,299.4671486540028,left,1,0.4011666340084048,299.4671486540028,None,299.4671486540028,None,299.4671486540028,None,,,,,,,,,,,,,,,,,,,,,,,,,,,,,,,,,,,,,,,,,,,,,,,,,,,,,,,,Gabi_G,001,a,2019_Nov_23_0044,Experimento,3.1.5,59.993615239135735,
8,14,14,999,0.5,0:10,3,,,0,1,0,25:50,,,0,0,0,0,,,,,0,4,4,4,,,,,,,,,,,,,,,,,,,,,,,,,,,,,,,,,,,,,,,,,,,,,,,,,,,,,,,,,,,,,,,,,,,,,,,,,,,,,,,,,,,,,,,,,,,,,,,,,,,,Gabi_G,001,a,2019_Nov_23_0044,Experimento,3.1.5,59.993615239135735,
8,14,14,999,0.5,0:10,3,Red,None,0,0,1,28:50,./completed_changuitos/montage_obisb_127.9_149.79.jpg,right,0,0,0,0,,,,,0,5,5,5,,,,,,,,,0,0,0,0,0,0,0,0,,,,,,,,,,,,,,,,,,,,,,,,,,,,,300.1350128900085,300.86786584999936,300.86786584999936,None,308.90502867700707,309.38824174900947,None,1,308.90502867700707,None,,,,,,,,,,,,,,,,,,,,,,,,,,,,,,,,,,,,,,,,,,,,,,Gabi_G,001,a,2019_Nov_23_0044,Experimento,3.1.5,59.993615239135735,
8,14,14,999,0.5,0:10,3,Magenta,['space'],0,0,1,28:50,./completed_changuitos/montage_obisb_127.9_149.79.jpg,right,0,0,0,0,,,,,0,5,5,5,,,,,,,,,0,0,0,0,0,1,1,1,,,,,,,,,,,,,,,,,,,,,,,,,,,,,,,,,310.90564338299737,311.3894597979961,None,0,310.90564338299737,None,,,,,,,,,,,,,,,,,,,,,,,,,,,,,,,,,,,,,,,,,,,,,,Gabi_G,001,a,2019_Nov_23_0044,Experimento,3.1.5,59.993615239135735,
8,14,14,999,0.5,0:10,3,Green,None,0,0,1,28:50,./completed_changuitos/montage_obisb_127.9_149.79.jpg,right,0,0,0,0,,,,,0,5,5,5,,,,,,,,,0,0,0,0,0,2,2,2,,,,,,,,,,,,,,,,,,,,,,,,,,,,,,,,,312.9069576490001,313.390125143007,None,1,312.9069576490001,None,,,,,,,,,,,,,,,,,,,,,,,,,,,,,,,,,,,,,,,,,,,,,,Gabi_G,001,a,2019_Nov_23_0044,Experimento,3.1.5,59.993615239135735,
8,14,14,999,0.5,0:10,3,Yellow,['space'],0,0,1,28:50,./completed_changuitos/montage_obisb_127.9_149.79.jpg,right,0,0,0,0,,,,,0,5,5,5,,,,,,,,,0,0,0,0,0,3,3,3,,,,,,,,,,,,,,,,,,,,,,,,,,,,,,,,,314.9075405390031,315.39136329600296,None,0,314.9075405390031,None,,,,,,,,,,,,,,,,,,,,,,,,,,,,,,,,,,,,,,,,,,,,,,Gabi_G,001,a,2019_Nov_23_0044,Experimento,3.1.5,59.993615239135735,
8,14,14,999,0.5,0:10,3,Blue,None,0,0,1,28:50,./completed_changuitos/montage_obisb_127.9_149.79.jpg,right,0,0,0,0,,,,,0,5,5,5,,,,,,,,,0,0,0,0,0,4,4,4,,,,,,,,,,,,,,,,,,,,,,,,,,,,,,,,,316.9088272939989,317.39202842600935,None,1,316.9088272939989,None,,,,,,,,,,,,,,,,,,,,,,,,,,,,,,,,,,,,,,,,,,,,,,Gabi_G,001,a,2019_Nov_23_0044,Experimento,3.1.5,59.993615239135735,
8,14,14,999,0.5,0:10,3,Cyan,None,0,0,1,28:50,./completed_changuitos/montage_obisb_127.9_149.79.jpg,right,0,0,0,0,,,,,0,5,5,5,,,,,,,,,0,0,0,0,0,5,5,5,,,,,,,,,,,,,,,,,,,,,,,,,,,,,,,,,318.90942943999835,319.3932618340041,None,1,318.90942943999835,None,,,,,,,,,,,,,,,,,,,,,,,,,,,,,,,,,,,,,,,,,,,,,,Gabi_G,001,a,2019_Nov_23_0044,Experimento,3.1.5,59.993615239135735,
8,14,14,999,0.5,0:10,3,Blue,['space'],0,0,1,28:50,./completed_changuitos/montage_obisb_127.9_149.79.jpg,right,0,0,0,0,,,,,0,5,5,5,,,,,,,,,0,0,0,0,0,6,6,6,,,,,,,,,,,,,,,,,,,,,,,,,,,,,,,,,320.91071380799985,321.394293076999,['return'],0,320.91071380799985,None,[0.482585496007232],,,,,,,,,,,,,,,,,,,,,,,,,,,,,,,,,,,,,,,,,,,,,Gabi_G,001,a,2019_Nov_23_0044,Experimento,3.1.5,59.993615239135735,
8,14,14,999,0.5,0:10,3,Yellow,None,0,0,1,28:50,./completed_changuitos/montage_obisb_127.9_149.79.jpg,right,0,0,0,0,,,,,0,5,5,5,,,,,,,,,0,0,0,0,0,7,7,7,,,,,,,,,,,,,,,,,,,,,,,,,,,,,,,,,None,None,None,1,None,None,,,,,,,,,,,,,,,,,,,,,,,,,,,,,,,,,,,,,,,,,,,,,,Gabi_G,001,a,2019_Nov_23_0044,Experimento,3.1.5,59.993615239135735,
8,14,14,999,0.5,0:10,3,Cyan,None,0,0,1,28:50,./completed_changuitos/montage_obisb_127.9_149.79.jpg,right,0,0,0,0,,,,,0,5,5,5,,,,,,,,,0,0,0,0,0,8,8,8,,,,,,,,,,,,,,,,,,,,,,,,,,,,,,,,,None,None,None,1,None,None,,,,,,,,,,,,,,,,,,,,,,,,,,,,,,,,,,,,,,,,,,,,,,Gabi_G,001,a,2019_Nov_23_0044,Experimento,3.1.5,59.993615239135735,
8,14,14,999,0.5,0:10,3,Yellow,['space'],0,0,1,28:50,./completed_changuitos/montage_obisb_127.9_149.79.jpg,right,0,0,0,0,,,,,0,5,5,5,,,,,,,,,0,0,0,0,0,9,9,9,,,,,,,,,,,,,,,,,,,,,,,,,,,,,,,,,None,None,None,0,None,None,,,,,,,,,,,,,,,,,,,,,,,,,,,,,,,,,,,,,,,,,,,,,,Gabi_G,001,a,2019_Nov_23_0044,Experimento,3.1.5,59.993615239135735,
8,14,14,999,0.5,0:10,3,Magenta,None,0,0,1,28:50,./completed_changuitos/montage_obisb_127.9_149.79.jpg,right,0,0,0,0,,,,,0,5,5,5,,,,,,,,,0,0,0,0,0,10,10,10,,,,,,,,,,,,,,,,,,,,,,,,,,,,,,,,,None,None,None,1,None,None,,,,,,,,,,,,,,,,,,,,,,,,,,,,,,,,,,,,,,,,,,,,,,Gabi_G,001,a,2019_Nov_23_0044,Experimento,3.1.5,59.993615239135735,
8,14,14,999,0.5,0:10,3,Red,None,0,0,1,28:50,./completed_changuitos/montage_obisb_127.9_149.79.jpg,right,0,0,0,0,,,,,0,5,5,5,,,,,,,,,0,0,0,0,0,11,11,11,,,,,,,,,,,,,,,,,,,,,,,,,,,,,,,,,None,None,None,1,None,None,,,,,,,,,,,,,,,,,,,,,,,,,,,,,,,,,,,,,,,,,,,,,,Gabi_G,001,a,2019_Nov_23_0044,Experimento,3.1.5,59.993615239135735,
8,14,14,999,0.5,0:10,3,Magenta,['space'],0,0,1,28:50,./completed_changuitos/montage_obisb_127.9_149.79.jpg,right,0,0,0,0,,,,,0,5,5,5,,,,,,,,,0,0,0,0,0,12,12,12,,,,,,,,,,,,,,,,,,,,,,,,,,,,,,,,,None,None,None,0,None,None,,,,,,,,,,,,,,,,,,,,,,,,,,,,,,,,,,,,,,,,,,,,,,Gabi_G,001,a,2019_Nov_23_0044,Experimento,3.1.5,59.993615239135735,
8,14,14,999,0.5,0:10,3,Red,['space'],0,0,1,28:50,./completed_changuitos/montage_obisb_127.9_149.79.jpg,right,0,0,0,0,,,,,0,5,5,5,,,,,,,,,0,0,0,0,0,13,13,13,,,,,,,,,,,,,,,,,,,,,,,,,,,,,,,,,None,None,None,0,None,None,,,,,,,,,,,,,,,,,,,,,,,,,,,,,,,,,,,,,,,,,,,,,,Gabi_G,001,a,2019_Nov_23_0044,Experimento,3.1.5,59.993615239135735,
8,14,14,999,0.5,0:10,3,Yellow,None,0,0,1,28:50,./completed_changuitos/montage_obisb_127.9_149.79.jpg,right,0,0,0,0,,,,,0,5,5,5,,,,,,,,,0,0,0,0,0,14,14,14,,,,,,,,,,,,,,,,,,,,,,,,,,,,,,,,,None,None,None,1,None,None,,,,,,,,,,,,,,,,,,,,,,,,,,,,,,,,,,,,,,,,,,,,,,Gabi_G,001,a,2019_Nov_23_0044,Experimento,3.1.5,59.993615239135735,
8,14,14,999,0.5,0:10,3,Cyan,None,0,0,1,28:50,./completed_changuitos/montage_obisb_127.9_149.79.jpg,right,0,0,0,0,,,,,0,5,5,5,,,,,,,,,0,0,0,0,0,15,15,15,,,,,,,,,,,,,,,,,,,,,,,,,,,,,,,,,None,None,None,1,None,None,,,,,,,,,,,,,,,,,,,,,,,,,,,,,,,,,,,,,,,,,,,,,,Gabi_G,001,a,2019_Nov_23_0044,Experimento,3.1.5,59.993615239135735,
8,14,14,999,0.5,0:10,3,Green,None,0,0,1,28:50,./completed_changuitos/montage_obisb_127.9_149.79.jpg,right,0,0,0,0,,,,,0,5,5,5,,,,,,,,,0,0,0,0,0,16,16,16,,,,,,,,,,,,,,,,,,,,,,,,,,,,,,,,,None,None,None,1,None,None,,,,,,,,,,,,,,,,,,,,,,,,,,,,,,,,,,,,,,,,,,,,,,Gabi_G,001,a,2019_Nov_23_0044,Experimento,3.1.5,59.993615239135735,
8,14,14,999,0.5,0:10,3,White,None,0,0,1,28:50,./completed_changuitos/montage_obisb_127.9_149.79.jpg,right,0,0,0,0,,,,,0,5,5,5,,,,,,,,,0,0,0,0,0,17,17,17,,,,,,,,,,,,,,,,,,,,,,,,,,,,,,,,,None,None,None,1,None,None,,,,,,,,,,,,,,,,,,,,,,,,,,,,,,,,,,,,,,,,,,,,,,Gabi_G,001,a,2019_Nov_23_0044,Experimento,3.1.5,59.993615239135735,
8,14,14,999,0.5,0:10,3,Green,['space'],0,0,1,28:50,./completed_changuitos/montage_obisb_127.9_149.79.jpg,right,0,0,0,0,,,,,0,5,5,5,,,,,,,,,0,0,0,0,0,18,18,18,,,,,,,,,,,,,,,,,,,,,,,,,,,,,,,,,None,None,None,0,None,None,,,,,,,,,,,,,,,,,,,,,,,,,,,,,,,,,,,,,,,,,,,,,,Gabi_G,001,a,2019_Nov_23_0044,Experimento,3.1.5,59.993615239135735,
8,14,14,999,0.5,0:10,3,Red,None,0,0,1,28:50,./completed_changuitos/montage_obisb_127.9_149.79.jpg,right,0,0,0,0,,,,,0,5,5,5,,,,,,,,,0,0,0,0,0,19,19,19,,,,,,,,,,,,,,,,,,,,,,,,,,,,,,,,,None,None,None,1,None,None,,,,,,,,,,,,,,,,,,,,,,,,,,,,,,,,,,,,,,,,,,,,,,Gabi_G,001,a,2019_Nov_23_0044,Experimento,3.1.5,59.993615239135735,
8,14,14,999,0.5,0:10,3,Blue,None,0,0,1,28:50,./completed_changuitos/montage_obisb_127.9_149.79.jpg,right,0,0,0,0,,,,,0,5,5,5,,,,,,,,,0,0,0,0,0,20,20,20,,,,,,,,,,,,,,,,,,,,,,,,,,,,,,,,,None,None,None,1,None,None,,,,,,,,,,,,,,,,,,,,,,,,,,,,,,,,,,,,,,,,,,,,,,Gabi_G,001,a,2019_Nov_23_0044,Experimento,3.1.5,59.993615239135735,
8,14,14,999,0.5,0:10,3,Green,None,0,0,1,28:50,./completed_changuitos/montage_obisb_127.9_149.79.jpg,right,0,0,0,0,,,,,0,5,5,5,,,,,,,,,0,0,0,0,0,21,21,21,,,,,,,,,,,,,,,,,,,,,,,,,,,,,,,,,None,None,None,1,None,None,,,,,,,,,,,,,,,,,,,,,,,,,,,,,,,,,,,,,,,,,,,,,,Gabi_G,001,a,2019_Nov_23_0044,Experimento,3.1.5,59.993615239135735,
8,14,14,999,0.5,0:10,3,,,0,0,1,28:50,./completed_changuitos/montage_obisb_127.9_149.79.jpg,right,0,0,0,0,,,,,0,5,5,5,,,,,,,,,0,0,0,0,,,,,,,,,,,,,,,,,,,,,,,,,,,,,,,,,,,,,,,,,,,,323.2624059719965,None,left,0,0.7376389670098433,323.2624059719965,None,323.2624059719965,None,,,,,,,,,,,,,,,,,,,,,,,,,,,,,,,,,,,,Gabi_G,001,a,2019_Nov_23_0044,Experimento,3.1.5,59.993615239135735,
8,14,14,999,0.5,0:10,3,,,0,0,1,28:50,,,0,0,0,0,,,,,0,5,5,5,,,,,,,,,,,,,,,,,,,,,,,,,,,,,,,,,,,,,,,,,,,,,,,,,,,,,,,,,,,,,,,,,,,,,,,,,,,,,,,,,,,,,,,,,,,,,,,,,,,,Gabi_G,001,a,2019_Nov_23_0044,Experimento,3.1.5,59.993615239135735,
8,14,14,999,0.5,0:10,3,,,0,1,0,10:50,./completed_changuitos/montage_dczrf_52.45_46.99.jpg,left,0,0,0,0,,,,,0,6,6,6,,,,,0,0,0,0,,,,,,,,,,,,,,,,,,,,,,324.29602015001,324.9788874680089,324.9788874680089,332.98276824800996,332.98276824800996,346.98941524401016,right,0,0.5779580159869511,346.98941524401016,None,346.98941524401016,None,346.98941524401016,None,,,,,,,,,,,,,,,,,,,,,,,,,,,,,,,,,,,,,,,,,,,,,,,,,,,,,,,,Gabi_G,001,a,2019_Nov_23_0044,Experimento,3.1.5,59.993615239135735,
8,14,14,999,0.5,0:10,3,,,0,1,0,10:50,,,0,0,0,0,,,,,0,6,6,6,,,,,,,,,,,,,,,,,,,,,,,,,,,,,,,,,,,,,,,,,,,,,,,,,,,,,,,,,,,,,,,,,,,,,,,,,,,,,,,,,,,,,,,,,,,,,,,,,,,,Gabi_G,001,a,2019_Nov_23_0044,Experimento,3.1.5,59.993615239135735,
8,14,14,999,0.5,0:10,3,Yellow,None,0,0,1,15:50,./completed_changuitos/montage_docgw_85.09_75.89.jpg,left,0,0,0,0,,,,,0,7,7,7,,,,,,,,,0,0,0,0,0,0,0,0,,,,,,,,,,,,,,,,,,,,,,,,,,,,,347.79066687200975,348.79027317000146,348.79027317000146,None,356.82750251599646,357.31123160300194,None,1,356.82750251599646,None,,,,,,,,,,,,,,,,,,,,,,,,,,,,,,,,,,,,,,,,,,,,,,Gabi_G,001,a,2019_Nov_23_0044,Experimento,3.1.5,59.993615239135735,
8,14,14,999,0.5,0:10,3,White,['space'],0,0,1,15:50,./completed_changuitos/montage_docgw_85.09_75.89.jpg,left,0,0,0,0,,,,,0,7,7,7,,,,,,,,,0,0,0,0,0,1,1,1,,,,,,,,,,,,,,,,,,,,,,,,,,,,,,,,,358.8286322290078,359.31191060900164,None,0,358.8286322290078,None,,,,,,,,,,,,,,,,,,,,,,,,,,,,,,,,,,,,,,,,,,,,,,Gabi_G,001,a,2019_Nov_23_0044,Experimento,3.1.5,59.993615239135735,
8,14,14,999,0.5,0:10,3,Magenta,None,0,0,1,15:50,./completed_changuitos/montage_docgw_85.09_75.89.jpg,left,0,0,0,0,,,,,0,7,7,7,,,,,,,,,0,0,0,0,0,2,2,2,,,,,,,,,,,,,,,,,,,,,,,,,,,,,,,,,360.8294033330021,361.31313172500813,None,1,360.8294033330021,None,,,,,,,,,,,,,,,,,,,,,,,,,,,,,,,,,,,,,,,,,,,,,,Gabi_G,001,a,2019_Nov_23_0044,Experimento,3.1.5,59.993615239135735,
8,14,14,999,0.5,0:10,3,Cyan,None,0,0,1,15:50,./completed_changuitos/montage_docgw_85.09_75.89.jpg,left,0,0,0,0,,,,,0,7,7,7,,,,,,,,,0,0,0,0,0,3,3,3,,,,,,,,,,,,,,,,,,,,,,,,,,,,,,,,,362.8305263820075,363.313866616998,None,1,362.8305263820075,None,,,,,,,,,,,,,,,,,,,,,,,,,,,,,,,,,,,,,,,,,,,,,,Gabi_G,001,a,2019_Nov_23_0044,Experimento,3.1.5,59.993615239135735,
8,14,14,999,0.5,0:10,3,Blue,None,0,0,1,15:50,./completed_changuitos/montage_docgw_85.09_75.89.jpg,left,0,0,0,0,,,,,0,7,7,7,,,,,,,,,0,0,0,0,0,4,4,4,,,,,,,,,,,,,,,,,,,,,,,,,,,,,,,,,364.8312012690003,365.3150476610026,None,1,364.8312012690003,None,,,,,,,,,,,,,,,,,,,,,,,,,,,,,,,,,,,,,,,,,,,,,,Gabi_G,001,a,2019_Nov_23_0044,Experimento,3.1.5,59.993615239135735,
8,14,14,999,0.5,0:10,3,Magenta,None,0,0,1,15:50,./completed_changuitos/montage_docgw_85.09_75.89.jpg,left,0,0,0,0,,,,,0,7,7,7,,,,,,,,,0,0,0,0,0,5,5,5,,,,,,,,,,,,,,,,,,,,,,,,,,,,,,,,,366.83242482400965,367.3157135710062,None,1,366.83242482400965,None,,,,,,,,,,,,,,,,,,,,,,,,,,,,,,,,,,,,,,,,,,,,,,Gabi_G,001,a,2019_Nov_23_0044,Experimento,3.1.5,59.993615239135735,
8,14,14,999,0.5,0:10,3,Blue,['space'],0,0,1,15:50,./completed_changuitos/montage_docgw_85.09_75.89.jpg,left,0,0,0,0,,,,,0,7,7,7,,,,,,,,,0,0,0,0,0,6,6,6,,,,,,,,,,,,,,,,,,,,,,,,,,,,,,,,,368.83308909100015,369.316981142998,['return'],0,368.83308909100015,None,[0.37678430500091054],,,,,,,,,,,,,,,,,,,,,,,,,,,,,,,,,,,,,,,,,,,,,Gabi_G,001,a,2019_Nov_23_0044,Experimento,3.1.5,59.993615239135735,
8,14,14,999,0.5,0:10,3,Cyan,None,0,0,1,15:50,./completed_changuitos/montage_docgw_85.09_75.89.jpg,left,0,0,0,0,,,,,0,7,7,7,,,,,,,,,0,0,0,0,0,7,7,7,,,,,,,,,,,,,,,,,,,,,,,,,,,,,,,,,None,None,None,1,None,None,,,,,,,,,,,,,,,,,,,,,,,,,,,,,,,,,,,,,,,,,,,,,,Gabi_G,001,a,2019_Nov_23_0044,Experimento,3.1.5,59.993615239135735,
8,14,14,999,0.5,0:10,3,Yellow,None,0,0,1,15:50,./completed_changuitos/montage_docgw_85.09_75.89.jpg,left,0,0,0,0,,,,,0,7,7,7,,,,,,,,,0,0,0,0,0,8,8,8,,,,,,,,,,,,,,,,,,,,,,,,,,,,,,,,,None,None,None,1,None,None,,,,,,,,,,,,,,,,,,,,,,,,,,,,,,,,,,,,,,,,,,,,,,Gabi_G,001,a,2019_Nov_23_0044,Experimento,3.1.5,59.993615239135735,
8,14,14,999,0.5,0:10,3,Cyan,None,0,0,1,15:50,./completed_changuitos/montage_docgw_85.09_75.89.jpg,left,0,0,0,0,,,,,0,7,7,7,,,,,,,,,0,0,0,0,0,9,9,9,,,,,,,,,,,,,,,,,,,,,,,,,,,,,,,,,None,None,None,1,None,None,,,,,,,,,,,,,,,,,,,,,,,,,,,,,,,,,,,,,,,,,,,,,,Gabi_G,001,a,2019_Nov_23_0044,Experimento,3.1.5,59.993615239135735,
8,14,14,999,0.5,0:10,3,Blue,None,0,0,1,15:50,./completed_changuitos/montage_docgw_85.09_75.89.jpg,left,0,0,0,0,,,,,0,7,7,7,,,,,,,,,0,0,0,0,0,10,10,10,,,,,,,,,,,,,,,,,,,,,,,,,,,,,,,,,None,None,None,1,None,None,,,,,,,,,,,,,,,,,,,,,,,,,,,,,,,,,,,,,,,,,,,,,,Gabi_G,001,a,2019_Nov_23_0044,Experimento,3.1.5,59.993615239135735,
8,14,14,999,0.5,0:10,3,Cyan,['space'],0,0,1,15:50,./completed_changuitos/montage_docgw_85.09_75.89.jpg,left,0,0,0,0,,,,,0,7,7,7,,,,,,,,,0,0,0,0,0,11,11,11,,,,,,,,,,,,,,,,,,,,,,,,,,,,,,,,,None,None,None,0,None,None,,,,,,,,,,,,,,,,,,,,,,,,,,,,,,,,,,,,,,,,,,,,,,Gabi_G,001,a,2019_Nov_23_0044,Experimento,3.1.5,59.993615239135735,
8,14,14,999,0.5,0:10,3,Magenta,None,0,0,1,15:50,./completed_changuitos/montage_docgw_85.09_75.89.jpg,left,0,0,0,0,,,,,0,7,7,7,,,,,,,,,0,0,0,0,0,12,12,12,,,,,,,,,,,,,,,,,,,,,,,,,,,,,,,,,None,None,None,1,None,None,,,,,,,,,,,,,,,,,,,,,,,,,,,,,,,,,,,,,,,,,,,,,,Gabi_G,001,a,2019_Nov_23_0044,Experimento,3.1.5,59.993615239135735,
8,14,14,999,0.5,0:10,3,Red,None,0,0,1,15:50,./completed_changuitos/montage_docgw_85.09_75.89.jpg,left,0,0,0,0,,,,,0,7,7,7,,,,,,,,,0,0,0,0,0,13,13,13,,,,,,,,,,,,,,,,,,,,,,,,,,,,,,,,,None,None,None,1,None,None,,,,,,,,,,,,,,,,,,,,,,,,,,,,,,,,,,,,,,,,,,,,,,Gabi_G,001,a,2019_Nov_23_0044,Experimento,3.1.5,59.993615239135735,
8,14,14,999,0.5,0:10,3,Magenta,['space'],0,0,1,15:50,./completed_changuitos/montage_docgw_85.09_75.89.jpg,left,0,0,0,0,,,,,0,7,7,7,,,,,,,,,0,0,0,0,0,14,14,14,,,,,,,,,,,,,,,,,,,,,,,,,,,,,,,,,None,None,None,0,None,None,,,,,,,,,,,,,,,,,,,,,,,,,,,,,,,,,,,,,,,,,,,,,,Gabi_G,001,a,2019_Nov_23_0044,Experimento,3.1.5,59.993615239135735,
8,14,14,999,0.5,0:10,3,Green,None,0,0,1,15:50,./completed_changuitos/montage_docgw_85.09_75.89.jpg,left,0,0,0,0,,,,,0,7,7,7,,,,,,,,,0,0,0,0,0,15,15,15,,,,,,,,,,,,,,,,,,,,,,,,,,,,,,,,,None,None,None,1,None,None,,,,,,,,,,,,,,,,,,,,,,,,,,,,,,,,,,,,,,,,,,,,,,Gabi_G,001,a,2019_Nov_23_0044,Experimento,3.1.5,59.993615239135735,
8,14,14,999,0.5,0:10,3,Yellow,['space'],0,0,1,15:50,./completed_changuitos/montage_docgw_85.09_75.89.jpg,left,0,0,0,0,,,,,0,7,7,7,,,,,,,,,0,0,0,0,0,16,16,16,,,,,,,,,,,,,,,,,,,,,,,,,,,,,,,,,None,None,None,0,None,None,,,,,,,,,,,,,,,,,,,,,,,,,,,,,,,,,,,,,,,,,,,,,,Gabi_G,001,a,2019_Nov_23_0044,Experimento,3.1.5,59.993615239135735,
8,14,14,999,0.5,0:10,3,Blue,None,0,0,1,15:50,./completed_changuitos/montage_docgw_85.09_75.89.jpg,left,0,0,0,0,,,,,0,7,7,7,,,,,,,,,0,0,0,0,0,17,17,17,,,,,,,,,,,,,,,,,,,,,,,,,,,,,,,,,None,None,None,1,None,None,,,,,,,,,,,,,,,,,,,,,,,,,,,,,,,,,,,,,,,,,,,,,,Gabi_G,001,a,2019_Nov_23_0044,Experimento,3.1.5,59.993615239135735,
8,14,14,999,0.5,0:10,3,Cyan,None,0,0,1,15:50,./completed_changuitos/montage_docgw_85.09_75.89.jpg,left,0,0,0,0,,,,,0,7,7,7,,,,,,,,,0,0,0,0,0,18,18,18,,,,,,,,,,,,,,,,,,,,,,,,,,,,,,,,,None,None,None,1,None,None,,,,,,,,,,,,,,,,,,,,,,,,,,,,,,,,,,,,,,,,,,,,,,Gabi_G,001,a,2019_Nov_23_0044,Experimento,3.1.5,59.993615239135735,
8,14,14,999,0.5,0:10,3,Blue,['space'],0,0,1,15:50,./completed_changuitos/montage_docgw_85.09_75.89.jpg,left,0,0,0,0,,,,,0,7,7,7,,,,,,,,,0,0,0,0,0,19,19,19,,,,,,,,,,,,,,,,,,,,,,,,,,,,,,,,,None,None,None,0,None,None,,,,,,,,,,,,,,,,,,,,,,,,,,,,,,,,,,,,,,,,,,,,,,Gabi_G,001,a,2019_Nov_23_0044,Experimento,3.1.5,59.993615239135735,
8,14,14,999,0.5,0:10,3,Yellow,None,0,0,1,15:50,./completed_changuitos/montage_docgw_85.09_75.89.jpg,left,0,0,0,0,,,,,0,7,7,7,,,,,,,,,0,0,0,0,0,20,20,20,,,,,,,,,,,,,,,,,,,,,,,,,,,,,,,,,None,None,None,1,None,None,,,,,,,,,,,,,,,,,,,,,,,,,,,,,,,,,,,,,,,,,,,,,,Gabi_G,001,a,2019_Nov_23_0044,Experimento,3.1.5,59.993615239135735,
8,14,14,999,0.5,0:10,3,Cyan,None,0,0,1,15:50,./completed_changuitos/montage_docgw_85.09_75.89.jpg,left,0,0,0,0,,,,,0,7,7,7,,,,,,,,,0,0,0,0,0,21,21,21,,,,,,,,,,,,,,,,,,,,,,,,,,,,,,,,,None,None,None,1,None,None,,,,,,,,,,,,,,,,,,,,,,,,,,,,,,,,,,,,,,,,,,,,,,Gabi_G,001,a,2019_Nov_23_0044,Experimento,3.1.5,59.993615239135735,
8,14,14,999,0.5,0:10,3,Yellow,['space'],0,0,1,15:50,./completed_changuitos/montage_docgw_85.09_75.89.jpg,left,0,0,0,0,,,,,0,7,7,7,,,,,,,,,0,0,0,0,0,22,22,22,,,,,,,,,,,,,,,,,,,,,,,,,,,,,,,,,None,None,None,0,None,None,,,,,,,,,,,,,,,,,,,,,,,,,,,,,,,,,,,,,,,,,,,,,,Gabi_G,001,a,2019_Nov_23_0044,Experimento,3.1.5,59.993615239135735,
8,14,14,999,0.5,0:10,3,Magenta,None,0,0,1,15:50,./completed_changuitos/montage_docgw_85.09_75.89.jpg,left,0,0,0,0,,,,,0,7,7,7,,,,,,,,,0,0,0,0,0,23,23,23,,,,,,,,,,,,,,,,,,,,,,,,,,,,,,,,,None,None,None,1,None,None,,,,,,,,,,,,,,,,,,,,,,,,,,,,,,,,,,,,,,,,,,,,,,Gabi_G,001,a,2019_Nov_23_0044,Experimento,3.1.5,59.993615239135735,
8,14,14,999,0.5,0:10,3,Red,None,0,0,1,15:50,./completed_changuitos/montage_docgw_85.09_75.89.jpg,left,0,0,0,0,,,,,0,7,7,7,,,,,,,,,0,0,0,0,0,24,24,24,,,,,,,,,,,,,,,,,,,,,,,,,,,,,,,,,None,None,None,1,None,None,,,,,,,,,,,,,,,,,,,,,,,,,,,,,,,,,,,,,,,,,,,,,,Gabi_G,001,a,2019_Nov_23_0044,Experimento,3.1.5,59.993615239135735,
8,14,14,999,0.5,0:10,3,Magenta,['space'],0,0,1,15:50,./completed_changuitos/montage_docgw_85.09_75.89.jpg,left,0,0,0,0,,,,,0,7,7,7,,,,,,,,,0,0,0,0,0,25,25,25,,,,,,,,,,,,,,,,,,,,,,,,,,,,,,,,,None,None,None,0,None,None,,,,,,,,,,,,,,,,,,,,,,,,,,,,,,,,,,,,,,,,,,,,,,Gabi_G,001,a,2019_Nov_23_0044,Experimento,3.1.5,59.993615239135735,
8,14,14,999,0.5,0:10,3,Red,['space'],0,0,1,15:50,./completed_changuitos/montage_docgw_85.09_75.89.jpg,left,0,0,0,0,,,,,0,7,7,7,,,,,,,,,0,0,0,0,0,26,26,26,,,,,,,,,,,,,,,,,,,,,,,,,,,,,,,,,None,None,None,0,None,None,,,,,,,,,,,,,,,,,,,,,,,,,,,,,,,,,,,,,,,,,,,,,,Gabi_G,001,a,2019_Nov_23_0044,Experimento,3.1.5,59.993615239135735,
8,14,14,999,0.5,0:10,3,Yellow,None,0,0,1,15:50,./completed_changuitos/montage_docgw_85.09_75.89.jpg,left,0,0,0,0,,,,,0,7,7,7,,,,,,,,,0,0,0,0,0,27,27,27,,,,,,,,,,,,,,,,,,,,,,,,,,,,,,,,,None,None,None,1,None,None,,,,,,,,,,,,,,,,,,,,,,,,,,,,,,,,,,,,,,,,,,,,,,Gabi_G,001,a,2019_Nov_23_0044,Experimento,3.1.5,59.993615239135735,
8,14,14,999,0.5,0:10,3,Cyan,None,0,0,1,15:50,./completed_changuitos/montage_docgw_85.09_75.89.jpg,left,0,0,0,0,,,,,0,7,7,7,,,,,,,,,0,0,0,0,0,28,28,28,,,,,,,,,,,,,,,,,,,,,,,,,,,,,,,,,None,None,None,1,None,None,,,,,,,,,,,,,,,,,,,,,,,,,,,,,,,,,,,,,,,,,,,,,,Gabi_G,001,a,2019_Nov_23_0044,Experimento,3.1.5,59.993615239135735,
8,14,14,999,0.5,0:10,3,Green,None,0,0,1,15:50,./completed_changuitos/montage_docgw_85.09_75.89.jpg,left,0,0,0,0,,,,,0,7,7,7,,,,,,,,,0,0,0,0,0,29,29,29,,,,,,,,,,,,,,,,,,,,,,,,,,,,,,,,,None,None,None,1,None,None,,,,,,,,,,,,,,,,,,,,,,,,,,,,,,,,,,,,,,,,,,,,,,Gabi_G,001,a,2019_Nov_23_0044,Experimento,3.1.5,59.993615239135735,
8,14,14,999,0.5,0:10,3,White,None,0,0,1,15:50,./completed_changuitos/montage_docgw_85.09_75.89.jpg,left,0,0,0,0,,,,,0,7,7,7,,,,,,,,,0,0,0,0,0,30,30,30,,,,,,,,,,,,,,,,,,,,,,,,,,,,,,,,,None,None,None,1,None,None,,,,,,,,,,,,,,,,,,,,,,,,,,,,,,,,,,,,,,,,,,,,,,Gabi_G,001,a,2019_Nov_23_0044,Experimento,3.1.5,59.993615239135735,
8,14,14,999,0.5,0:10,3,Green,['space'],0,0,1,15:50,./completed_changuitos/montage_docgw_85.09_75.89.jpg,left,0,0,0,0,,,,,0,7,7,7,,,,,,,,,0,0,0,0,0,31,31,31,,,,,,,,,,,,,,,,,,,,,,,,,,,,,,,,,None,None,None,0,None,None,,,,,,,,,,,,,,,,,,,,,,,,,,,,,,,,,,,,,,,,,,,,,,Gabi_G,001,a,2019_Nov_23_0044,Experimento,3.1.5,59.993615239135735,
8,14,14,999,0.5,0:10,3,Red,None,0,0,1,15:50,./completed_changuitos/montage_docgw_85.09_75.89.jpg,left,0,0,0,0,,,,,0,7,7,7,,,,,,,,,0,0,0,0,0,32,32,32,,,,,,,,,,,,,,,,,,,,,,,,,,,,,,,,,None,None,None,1,None,None,,,,,,,,,,,,,,,,,,,,,,,,,,,,,,,,,,,,,,,,,,,,,,Gabi_G,001,a,2019_Nov_23_0044,Experimento,3.1.5,59.993615239135735,
8,14,14,999,0.5,0:10,3,Blue,None,0,0,1,15:50,./completed_changuitos/montage_docgw_85.09_75.89.jpg,left,0,0,0,0,,,,,0,7,7,7,,,,,,,,,0,0,0,0,0,33,33,33,,,,,,,,,,,,,,,,,,,,,,,,,,,,,,,,,None,None,None,1,None,None,,,,,,,,,,,,,,,,,,,,,,,,,,,,,,,,,,,,,,,,,,,,,,Gabi_G,001,a,2019_Nov_23_0044,Experimento,3.1.5,59.993615239135735,
8,14,14,999,0.5,0:10,3,Green,None,0,0,1,15:50,./completed_changuitos/montage_docgw_85.09_75.89.jpg,left,0,0,0,0,,,,,0,7,7,7,,,,,,,,,0,0,0,0,0,34,34,34,,,,,,,,,,,,,,,,,,,,,,,,,,,,,,,,,None,None,None,1,None,None,,,,,,,,,,,,,,,,,,,,,,,,,,,,,,,,,,,,,,,,,,,,,,Gabi_G,001,a,2019_Nov_23_0044,Experimento,3.1.5,59.993615239135735,
8,14,14,999,0.5,0:10,3,,,0,0,1,15:50,./completed_changuitos/montage_docgw_85.09_75.89.jpg,left,0,0,0,0,,,,,0,7,7,7,,,,,,,,,0,0,0,0,,,,,,,,,,,,,,,,,,,,,,,,,,,,,,,,,,,,,,,,,,,,371.41844732400205,None,left,1,1.0409564250003314,371.41844732400205,None,371.41844732400205,None,,,,,,,,,,,,,,,,,,,,,,,,,,,,,,,,,,,,Gabi_G,001,a,2019_Nov_23_0044,Experimento,3.1.5,59.993615239135735,
8,14,14,999,0.5,0:10,3,,,0,0,1,15:50,,,0,0,0,0,,,,,0,7,7,7,,,,,,,,,,,,,,,,,,,,,,,,,,,,,,,,,,,,,,,,,,,,,,,,,,,,,,,,,,,,,,,,,,,,,,,,,,,,,,,,,,,,,,,,,,,,,,,,,,,,Gabi_G,001,a,2019_Nov_23_0044,Experimento,3.1.5,59.993615239135735,
8,14,14,999,0.5,0:10,3,,,0,1,0,19:50,./completed_changuitos/montage_jjuck_61.55_52.95.jpg,left,0,0,0,0,,,,,0,8,8,8,,,,,0,0,0,0,,,,,,,,,,,,,,,,,,,,,,372.7519226370059,373.6690238559968,373.6690238559968,381.6728578500042,381.6728578500042,395.679433420999,right,0,0.4060214659984922,395.679433420999,None,395.679433420999,None,395.679433420999,None,,,,,,,,,,,,,,,,,,,,,,,,,,,,,,,,,,,,,,,,,,,,,,,,,,,,,,,,Gabi_G,001,a,2019_Nov_23_0044,Experimento,3.1.5,59.993615239135735,
8,14,14,999,0.5,0:10,3,,,0,1,0,19:50,,,0,0,0,0,,,,,0,8,8,8,,,,,,,,,,,,,,,,,,,,,,,,,,,,,,,,,,,,,,,,,,,,,,,,,,,,,,,,,,,,,,,,,,,,,,,,,,,,,,,,,,,,,,,,,,,,,,,,,,,,Gabi_G,001,a,2019_Nov_23_0044,Experimento,3.1.5,59.993615239135735,
8,14,14,999,0.5,0:10,3,Magenta,None,0,0,1,20:50,./completed_changuitos/montage_xkfku_23.55_27.39.jpg,right,0,0,0,0,,,,,0,9,9,9,,,,,,,,,0,0,0,0,0,0,0,0,,,,,,,,,,,,,,,,,,,,,,,,,,,,,396.31393689700053,397.0297881709994,397.0297881709994,None,405.06696297500457,405.55077329800406,None,1,405.06696297500457,None,,,,,,,,,,,,,,,,,,,,,,,,,,,,,,,,,,,,,,,,,,,,,,Gabi_G,001,a,2019_Nov_23_0044,Experimento,3.1.5,59.993615239135735,
8,14,14,999,0.5,0:10,3,Blue,['space'],0,0,1,20:50,./completed_changuitos/montage_xkfku_23.55_27.39.jpg,right,0,0,0,0,,,,,0,9,9,9,,,,,,,,,0,0,0,0,0,1,1,1,,,,,,,,,,,,,,,,,,,,,,,,,,,,,,,,,407.0681791829993,407.5514432140044,None,0,407.0681791829993,None,,,,,,,,,,,,,,,,,,,,,,,,,,,,,,,,,,,,,,,,,,,,,,Gabi_G,001,a,2019_Nov_23_0044,Experimento,3.1.5,59.993615239135735,
8,14,14,999,0.5,0:10,3,Cyan,None,0,0,1,20:50,./completed_changuitos/montage_xkfku_23.55_27.39.jpg,right,0,0,0,0,,,,,0,9,9,9,,,,,,,,,0,0,0,0,0,2,2,2,,,,,,,,,,,,,,,,,,,,,,,,,,,,,,,,,409.06882563000545,409.55267611199815,None,1,409.06882563000545,None,,,,,,,,,,,,,,,,,,,,,,,,,,,,,,,,,,,,,,,,,,,,,,Gabi_G,001,a,2019_Nov_23_0044,Experimento,3.1.5,59.993615239135735,
8,14,14,999,0.5,0:10,3,Yellow,None,0,0,1,20:50,./completed_changuitos/montage_xkfku_23.55_27.39.jpg,right,0,0,0,0,,,,,0,9,9,9,,,,,,,,,0,0,0,0,0,3,3,3,,,,,,,,,,,,,,,,,,,,,,,,,,,,,,,,,411.07005266600754,411.5533418870036,None,1,411.07005266600754,None,,,,,,,,,,,,,,,,,,,,,,,,,,,,,,,,,,,,,,,,,,,,,,Gabi_G,001,a,2019_Nov_23_0044,Experimento,3.1.5,59.993615239135735,
8,14,14,999,0.5,0:10,3,Cyan,None,0,0,1,20:50,./completed_changuitos/montage_xkfku_23.55_27.39.jpg,right,0,0,0,0,,,,,0,9,9,9,,,,,,,,,0,0,0,0,0,4,4,4,,,,,,,,,,,,,,,,,,,,,,,,,,,,,,,,,413.0707393089979,413.55457334000675,['return'],0,413.0707393089979,None,[0.5115428060089471],,,,,,,,,,,,,,,,,,,,,,,,,,,,,,,,,,,,,,,,,,,,,Gabi_G,001,a,2019_Nov_23_0044,Experimento,3.1.5,59.993615239135735,
8,14,14,999,0.5,0:10,3,Blue,None,0,0,1,20:50,./completed_changuitos/montage_xkfku_23.55_27.39.jpg,right,0,0,0,0,,,,,0,9,9,9,,,,,,,,,0,0,0,0,0,5,5,5,,,,,,,,,,,,,,,,,,,,,,,,,,,,,,,,,415.0720103900094,415.55523177700525,None,1,415.0720103900094,None,,,,,,,,,,,,,,,,,,,,,,,,,,,,,,,,,,,,,,,,,,,,,,Gabi_G,001,a,2019_Nov_23_0044,Experimento,3.1.5,59.993615239135735,
8,14,14,999,0.5,0:10,3,Cyan,['space'],0,0,1,20:50,./completed_changuitos/montage_xkfku_23.55_27.39.jpg,right,0,0,0,0,,,,,0,9,9,9,,,,,,,,,0,0,0,0,0,6,6,6,,,,,,,,,,,,,,,,,,,,,,,,,,,,,,,,,417.0726160990016,417.5564816959959,['return'],0,417.0726160990016,None,[0.7735155170084909],,,,,,,,,,,,,,,,,,,,,,,,,,,,,,,,,,,,,,,,,,,,,Gabi_G,001,a,2019_Nov_23_0044,Experimento,3.1.5,59.993615239135735,
8,14,14,999,0.5,0:10,3,Magenta,None,0,0,1,20:50,./completed_changuitos/montage_xkfku_23.55_27.39.jpg,right,0,0,0,0,,,,,0,9,9,9,,,,,,,,,0,0,0,0,0,7,7,7,,,,,,,,,,,,,,,,,,,,,,,,,,,,,,,,,None,None,None,1,None,None,,,,,,,,,,,,,,,,,,,,,,,,,,,,,,,,,,,,,,,,,,,,,,Gabi_G,001,a,2019_Nov_23_0044,Experimento,3.1.5,59.993615239135735,
8,14,14,999,0.5,0:10,3,Red,None,0,0,1,20:50,./completed_changuitos/montage_xkfku_23.55_27.39.jpg,right,0,0,0,0,,,,,0,9,9,9,,,,,,,,,0,0,0,0,0,8,8,8,,,,,,,,,,,,,,,,,,,,,,,,,,,,,,,,,None,None,None,1,None,None,,,,,,,,,,,,,,,,,,,,,,,,,,,,,,,,,,,,,,,,,,,,,,Gabi_G,001,a,2019_Nov_23_0044,Experimento,3.1.5,59.993615239135735,
8,14,14,999,0.5,0:10,3,Magenta,['space'],0,0,1,20:50,./completed_changuitos/montage_xkfku_23.55_27.39.jpg,right,0,0,0,0,,,,,0,9,9,9,,,,,,,,,0,0,0,0,0,9,9,9,,,,,,,,,,,,,,,,,,,,,,,,,,,,,,,,,None,None,None,0,None,None,,,,,,,,,,,,,,,,,,,,,,,,,,,,,,,,,,,,,,,,,,,,,,Gabi_G,001,a,2019_Nov_23_0044,Experimento,3.1.5,59.993615239135735,
8,14,14,999,0.5,0:10,3,Green,None,0,0,1,20:50,./completed_changuitos/montage_xkfku_23.55_27.39.jpg,right,0,0,0,0,,,,,0,9,9,9,,,,,,,,,0,0,0,0,0,10,10,10,,,,,,,,,,,,,,,,,,,,,,,,,,,,,,,,,None,None,None,1,None,None,,,,,,,,,,,,,,,,,,,,,,,,,,,,,,,,,,,,,,,,,,,,,,Gabi_G,001,a,2019_Nov_23_0044,Experimento,3.1.5,59.993615239135735,
8,14,14,999,0.5,0:10,3,Yellow,['space'],0,0,1,20:50,./completed_changuitos/montage_xkfku_23.55_27.39.jpg,right,0,0,0,0,,,,,0,9,9,9,,,,,,,,,0,0,0,0,0,11,11,11,,,,,,,,,,,,,,,,,,,,,,,,,,,,,,,,,None,None,None,0,None,None,,,,,,,,,,,,,,,,,,,,,,,,,,,,,,,,,,,,,,,,,,,,,,Gabi_G,001,a,2019_Nov_23_0044,Experimento,3.1.5,59.993615239135735,
8,14,14,999,0.5,0:10,3,Blue,None,0,0,1,20:50,./completed_changuitos/montage_xkfku_23.55_27.39.jpg,right,0,0,0,0,,,,,0,9,9,9,,,,,,,,,0,0,0,0,0,12,12,12,,,,,,,,,,,,,,,,,,,,,,,,,,,,,,,,,None,None,None,1,None,None,,,,,,,,,,,,,,,,,,,,,,,,,,,,,,,,,,,,,,,,,,,,,,Gabi_G,001,a,2019_Nov_23_0044,Experimento,3.1.5,59.993615239135735,
8,14,14,999,0.5,0:10,3,Cyan,None,0,0,1,20:50,./completed_changuitos/montage_xkfku_23.55_27.39.jpg,right,0,0,0,0,,,,,0,9,9,9,,,,,,,,,0,0,0,0,0,13,13,13,,,,,,,,,,,,,,,,,,,,,,,,,,,,,,,,,None,None,None,1,None,None,,,,,,,,,,,,,,,,,,,,,,,,,,,,,,,,,,,,,,,,,,,,,,Gabi_G,001,a,2019_Nov_23_0044,Experimento,3.1.5,59.993615239135735,
8,14,14,999,0.5,0:10,3,Blue,['space'],0,0,1,20:50,./completed_changuitos/montage_xkfku_23.55_27.39.jpg,right,0,0,0,0,,,,,0,9,9,9,,,,,,,,,0,0,0,0,0,14,14,14,,,,,,,,,,,,,,,,,,,,,,,,,,,,,,,,,None,None,None,0,None,None,,,,,,,,,,,,,,,,,,,,,,,,,,,,,,,,,,,,,,,,,,,,,,Gabi_G,001,a,2019_Nov_23_0044,Experimento,3.1.5,59.993615239135735,
8,14,14,999,0.5,0:10,3,Yellow,None,0,0,1,20:50,./completed_changuitos/montage_xkfku_23.55_27.39.jpg,right,0,0,0,0,,,,,0,9,9,9,,,,,,,,,0,0,0,0,0,15,15,15,,,,,,,,,,,,,,,,,,,,,,,,,,,,,,,,,None,None,None,1,None,None,,,,,,,,,,,,,,,,,,,,,,,,,,,,,,,,,,,,,,,,,,,,,,Gabi_G,001,a,2019_Nov_23_0044,Experimento,3.1.5,59.993615239135735,
8,14,14,999,0.5,0:10,3,Cyan,None,0,0,1,20:50,./completed_changuitos/montage_xkfku_23.55_27.39.jpg,right,0,0,0,0,,,,,0,9,9,9,,,,,,,,,0,0,0,0,0,16,16,16,,,,,,,,,,,,,,,,,,,,,,,,,,,,,,,,,None,None,None,1,None,None,,,,,,,,,,,,,,,,,,,,,,,,,,,,,,,,,,,,,,,,,,,,,,Gabi_G,001,a,2019_Nov_23_0044,Experimento,3.1.5,59.993615239135735,
8,14,14,999,0.5,0:10,3,Yellow,['space'],0,0,1,20:50,./completed_changuitos/montage_xkfku_23.55_27.39.jpg,right,0,0,0,0,,,,,0,9,9,9,,,,,,,,,0,0,0,0,0,17,17,17,,,,,,,,,,,,,,,,,,,,,,,,,,,,,,,,,None,None,None,0,None,None,,,,,,,,,,,,,,,,,,,,,,,,,,,,,,,,,,,,,,,,,,,,,,Gabi_G,001,a,2019_Nov_23_0044,Experimento,3.1.5,59.993615239135735,
8,14,14,999,0.5,0:10,3,Magenta,None,0,0,1,20:50,./completed_changuitos/montage_xkfku_23.55_27.39.jpg,right,0,0,0,0,,,,,0,9,9,9,,,,,,,,,0,0,0,0,0,18,18,18,,,,,,,,,,,,,,,,,,,,,,,,,,,,,,,,,None,None,None,1,None,None,,,,,,,,,,,,,,,,,,,,,,,,,,,,,,,,,,,,,,,,,,,,,,Gabi_G,001,a,2019_Nov_23_0044,Experimento,3.1.5,59.993615239135735,
8,14,14,999,0.5,0:10,3,Red,None,0,0,1,20:50,./completed_changuitos/montage_xkfku_23.55_27.39.jpg,right,0,0,0,0,,,,,0,9,9,9,,,,,,,,,0,0,0,0,0,19,19,19,,,,,,,,,,,,,,,,,,,,,,,,,,,,,,,,,None,None,None,1,None,None,,,,,,,,,,,,,,,,,,,,,,,,,,,,,,,,,,,,,,,,,,,,,,Gabi_G,001,a,2019_Nov_23_0044,Experimento,3.1.5,59.993615239135735,
8,14,14,999,0.5,0:10,3,Magenta,['space'],0,0,1,20:50,./completed_changuitos/montage_xkfku_23.55_27.39.jpg,right,0,0,0,0,,,,,0,9,9,9,,,,,,,,,0,0,0,0,0,20,20,20,,,,,,,,,,,,,,,,,,,,,,,,,,,,,,,,,None,None,None,0,None,None,,,,,,,,,,,,,,,,,,,,,,,,,,,,,,,,,,,,,,,,,,,,,,Gabi_G,001,a,2019_Nov_23_0044,Experimento,3.1.5,59.993615239135735,
8,14,14,999,0.5,0:10,3,Red,['space'],0,0,1,20:50,./completed_changuitos/montage_xkfku_23.55_27.39.jpg,right,0,0,0,0,,,,,0,9,9,9,,,,,,,,,0,0,0,0,0,21,21,21,,,,,,,,,,,,,,,,,,,,,,,,,,,,,,,,,None,None,None,0,None,None,,,,,,,,,,,,,,,,,,,,,,,,,,,,,,,,,,,,,,,,,,,,,,Gabi_G,001,a,2019_Nov_23_0044,Experimento,3.1.5,59.993615239135735,
8,14,14,999,0.5,0:10,3,Yellow,None,0,0,1,20:50,./completed_changuitos/montage_xkfku_23.55_27.39.jpg,right,0,0,0,0,,,,,0,9,9,9,,,,,,,,,0,0,0,0,0,22,22,22,,,,,,,,,,,,,,,,,,,,,,,,,,,,,,,,,None,None,None,1,None,None,,,,,,,,,,,,,,,,,,,,,,,,,,,,,,,,,,,,,,,,,,,,,,Gabi_G,001,a,2019_Nov_23_0044,Experimento,3.1.5,59.993615239135735,
8,14,14,999,0.5,0:10,3,Cyan,None,0,0,1,20:50,./completed_changuitos/montage_xkfku_23.55_27.39.jpg,right,0,0,0,0,,,,,0,9,9,9,,,,,,,,,0,0,0,0,0,23,23,23,,,,,,,,,,,,,,,,,,,,,,,,,,,,,,,,,None,None,None,1,None,None,,,,,,,,,,,,,,,,,,,,,,,,,,,,,,,,,,,,,,,,,,,,,,Gabi_G,001,a,2019_Nov_23_0044,Experimento,3.1.5,59.993615239135735,
8,14,14,999,0.5,0:10,3,Green,None,0,0,1,20:50,./completed_changuitos/montage_xkfku_23.55_27.39.jpg,right,0,0,0,0,,,,,0,9,9,9,,,,,,,,,0,0,0,0,0,24,24,24,,,,,,,,,,,,,,,,,,,,,,,,,,,,,,,,,None,None,None,1,None,None,,,,,,,,,,,,,,,,,,,,,,,,,,,,,,,,,,,,,,,,,,,,,,Gabi_G,001,a,2019_Nov_23_0044,Experimento,3.1.5,59.993615239135735,
8,14,14,999,0.5,0:10,3,White,None,0,0,1,20:50,./completed_changuitos/montage_xkfku_23.55_27.39.jpg,right,0,0,0,0,,,,,0,9,9,9,,,,,,,,,0,0,0,0,0,25,25,25,,,,,,,,,,,,,,,,,,,,,,,,,,,,,,,,,None,None,None,1,None,None,,,,,,,,,,,,,,,,,,,,,,,,,,,,,,,,,,,,,,,,,,,,,,Gabi_G,001,a,2019_Nov_23_0044,Experimento,3.1.5,59.993615239135735,
8,14,14,999,0.5,0:10,3,Green,['space'],0,0,1,20:50,./completed_changuitos/montage_xkfku_23.55_27.39.jpg,right,0,0,0,0,,,,,0,9,9,9,,,,,,,,,0,0,0,0,0,26,26,26,,,,,,,,,,,,,,,,,,,,,,,,,,,,,,,,,None,None,None,0,None,None,,,,,,,,,,,,,,,,,,,,,,,,,,,,,,,,,,,,,,,,,,,,,,Gabi_G,001,a,2019_Nov_23_0044,Experimento,3.1.5,59.993615239135735,
8,14,14,999,0.5,0:10,3,Red,None,0,0,1,20:50,./completed_changuitos/montage_xkfku_23.55_27.39.jpg,right,0,0,0,0,,,,,0,9,9,9,,,,,,,,,0,0,0,0,0,27,27,27,,,,,,,,,,,,,,,,,,,,,,,,,,,,,,,,,None,None,None,1,None,None,,,,,,,,,,,,,,,,,,,,,,,,,,,,,,,,,,,,,,,,,,,,,,Gabi_G,001,a,2019_Nov_23_0044,Experimento,3.1.5,59.993615239135735,
8,14,14,999,0.5,0:10,3,Blue,None,0,0,1,20:50,./completed_changuitos/montage_xkfku_23.55_27.39.jpg,right,0,0,0,0,,,,,0,9,9,9,,,,,,,,,0,0,0,0,0,28,28,28,,,,,,,,,,,,,,,,,,,,,,,,,,,,,,,,,None,None,None,1,None,None,,,,,,,,,,,,,,,,,,,,,,,,,,,,,,,,,,,,,,,,,,,,,,Gabi_G,001,a,2019_Nov_23_0044,Experimento,3.1.5,59.993615239135735,
8,14,14,999,0.5,0:10,3,Green,None,0,0,1,20:50,./completed_changuitos/montage_xkfku_23.55_27.39.jpg,right,0,0,0,0,,,,,0,9,9,9,,,,,,,,,0,0,0,0,0,29,29,29,,,,,,,,,,,,,,,,,,,,,,,,,,,,,,,,,None,None,None,1,None,None,,,,,,,,,,,,,,,,,,,,,,,,,,,,,,,,,,,,,,,,,,,,,,Gabi_G,001,a,2019_Nov_23_0044,Experimento,3.1.5,59.993615239135735,
8,14,14,999,0.5,0:10,3,,,0,0,1,20:50,./completed_changuitos/montage_xkfku_23.55_27.39.jpg,right,0,0,0,0,,,,,0,9,9,9,,,,,,,,,0,0,0,0,,,,,,,,,,,,,,,,,,,,,,,,,,,,,,,,,,,,,,,,,,,,419.57465829000284,None,right,1,0.7852123449993087,419.57465829000284,None,419.57465829000284,None,,,,,,,,,,,,,,,,,,,,,,,,,,,,,,,,,,,,Gabi_G,001,a,2019_Nov_23_0044,Experimento,3.1.5,59.993615239135735,
8,14,14,999,0.5,0:10,3,,,0,0,1,20:50,,,0,0,0,0,,,,,0,9,9,9,,,,,,,,,,,,,,,,,,,,,,,,,,,,,,,,,,,,,,,,,,,,,,,,,,,,,,,,,,,,,,,,,,,,,,,,,,,,,,,,,,,,,,,,,,,,,,,,,,,,Gabi_G,001,a,2019_Nov_23_0044,Experimento,3.1.5,59.993615239135735,
8,14,14,999,0.5,0:10,3,,,0,1,0,25:50,./completed_changuitos/montage_iofbu_110.2_95.59.jpg,left,0,0,0,0,,,,,0,10,10,10,,,,,0,0,0,0,,,,,,,,,,,,,,,,,,,,,,420.65822303900495,421.1581372290093,421.1581372290093,429.1620283000084,429.1620283000084,443.1686343970068,left,1,0.41440625899122097,443.1686343970068,None,443.1686343970068,None,443.1686343970068,None,,,,,,,,,,,,,,,,,,,,,,,,,,,,,,,,,,,,,,,,,,,,,,,,,,,,,,,,Gabi_G,001,a,2019_Nov_23_0044,Experimento,3.1.5,59.993615239135735,
8,14,14,999,0.5,0:10,3,,,0,1,0,25:50,,,0,0,0,0,,,,,0,10,10,10,,,,,,,,,,,,,,,,,,,,,,,,,,,,,,,,,,,,,,,,,,,,,,,,,,,,,,,,,,,,,,,,,,,,,,,,,,,,,,,,,,,,,,,,,,,,,,,,,,,,Gabi_G,001,a,2019_Nov_23_0044,Experimento,3.1.5,59.993615239135735,
8,14,14,999,0.5,0:10,3,Red,None,0,0,1,28:50,./completed_changuitos/montage_odfqk_165.85_189.6.jpg,right,0,0,0,0,,,,,0,11,11,11,,,,,,,,,0,0,0,0,0,0,0,0,,,,,,,,,,,,,,,,,,,,,,,,,,,,,443.8032699050091,444.83601333000115,444.83601333000115,None,452.8732149330026,453.35649202400236,None,1,452.8732149330026,None,,,,,,,,,,,,,,,,,,,,,,,,,,,,,,,,,,,,,,,,,,,,,,Gabi_G,001,a,2019_Nov_23_0044,Experimento,3.1.5,59.993615239135735,
8,14,14,999,0.5,0:10,3,Magenta,['space'],0,0,1,28:50,./completed_changuitos/montage_odfqk_165.85_189.6.jpg,right,0,0,0,0,,,,,0,11,11,11,,,,,,,,,0,0,0,0,0,1,1,1,,,,,,,,,,,,,,,,,,,,,,,,,,,,,,,,,454.8738845050102,455.35772727400763,None,0,454.8738845050102,None,,,,,,,,,,,,,,,,,,,,,,,,,,,,,,,,,,,,,,,,,,,,,,Gabi_G,001,a,2019_Nov_23_0044,Experimento,3.1.5,59.993615239135735,
8,14,14,999,0.5,0:10,3,Green,None,0,0,1,28:50,./completed_changuitos/montage_odfqk_165.85_189.6.jpg,right,0,0,0,0,,,,,0,11,11,11,,,,,,,,,0,0,0,0,0,2,2,2,,,,,,,,,,,,,,,,,,,,,,,,,,,,,,,,,456.8751368719968,457.35839387899614,None,1,456.8751368719968,None,,,,,,,,,,,,,,,,,,,,,,,,,,,,,,,,,,,,,,,,,,,,,,Gabi_G,001,a,2019_Nov_23_0044,Experimento,3.1.5,59.993615239135735,
8,14,14,999,0.5,0:10,3,Yellow,['space'],0,0,1,28:50,./completed_changuitos/montage_odfqk_165.85_189.6.jpg,right,0,0,0,0,,,,,0,11,11,11,,,,,,,,,0,0,0,0,0,3,3,3,,,,,,,,,,,,,,,,,,,,,,,,,,,,,,,,,458.8757790640084,459.35960636200616,None,0,458.8757790640084,None,,,,,,,,,,,,,,,,,,,,,,,,,,,,,,,,,,,,,,,,,,,,,,Gabi_G,001,a,2019_Nov_23_0044,Experimento,3.1.5,59.993615239135735,
8,14,14,999,0.5,0:10,3,Blue,None,0,0,1,28:50,./completed_changuitos/montage_odfqk_165.85_189.6.jpg,right,0,0,0,0,,,,,0,11,11,11,,,,,,,,,0,0,0,0,0,4,4,4,,,,,,,,,,,,,,,,,,,,,,,,,,,,,,,,,460.87706099300703,461.3602841249958,None,1,460.87706099300703,None,,,,,,,,,,,,,,,,,,,,,,,,,,,,,,,,,,,,,,,,,,,,,,Gabi_G,001,a,2019_Nov_23_0044,Experimento,3.1.5,59.993615239135735,
8,14,14,999,0.5,0:10,3,Cyan,None,0,0,1,28:50,./completed_changuitos/montage_odfqk_165.85_189.6.jpg,right,0,0,0,0,,,,,0,11,11,11,,,,,,,,,0,0,0,0,0,5,5,5,,,,,,,,,,,,,,,,,,,,,,,,,,,,,,,,,462.8776726460055,463.3617603129969,None,1,462.8776726460055,None,,,,,,,,,,,,,,,,,,,,,,,,,,,,,,,,,,,,,,,,,,,,,,Gabi_G,001,a,2019_Nov_23_0044,Experimento,3.1.5,59.993615239135735,
8,14,14,999,0.5,0:10,3,Blue,['space'],0,0,1,28:50,./completed_changuitos/montage_odfqk_165.85_189.6.jpg,right,0,0,0,0,,,,,0,11,11,11,,,,,,,,,0,0,0,0,0,6,6,6,,,,,,,,,,,,,,,,,,,,,,,,,,,,,,,,,464.87889245500264,465.36218224201,['return'],0,464.87889245500264,None,[0.3934443800098961],,,,,,,,,,,,,,,,,,,,,,,,,,,,,,,,,,,,,,,,,,,,,Gabi_G,001,a,2019_Nov_23_0044,Experimento,3.1.5,59.993615239135735,
8,14,14,999,0.5,0:10,3,Yellow,None,0,0,1,28:50,./completed_changuitos/montage_odfqk_165.85_189.6.jpg,right,0,0,0,0,,,,,0,11,11,11,,,,,,,,,0,0,0,0,0,7,7,7,,,,,,,,,,,,,,,,,,,,,,,,,,,,,,,,,None,None,None,1,None,None,,,,,,,,,,,,,,,,,,,,,,,,,,,,,,,,,,,,,,,,,,,,,,Gabi_G,001,a,2019_Nov_23_0044,Experimento,3.1.5,59.993615239135735,
8,14,14,999,0.5,0:10,3,Cyan,None,0,0,1,28:50,./completed_changuitos/montage_odfqk_165.85_189.6.jpg,right,0,0,0,0,,,,,0,11,11,11,,,,,,,,,0,0,0,0,0,8,8,8,,,,,,,,,,,,,,,,,,,,,,,,,,,,,,,,,None,None,None,1,None,None,,,,,,,,,,,,,,,,,,,,,,,,,,,,,,,,,,,,,,,,,,,,,,Gabi_G,001,a,2019_Nov_23_0044,Experimento,3.1.5,59.993615239135735,
8,14,14,999,0.5,0:10,3,Yellow,['space'],0,0,1,28:50,./completed_changuitos/montage_odfqk_165.85_189.6.jpg,right,0,0,0,0,,,,,0,11,11,11,,,,,,,,,0,0,0,0,0,9,9,9,,,,,,,,,,,,,,,,,,,,,,,,,,,,,,,,,None,None,None,0,None,None,,,,,,,,,,,,,,,,,,,,,,,,,,,,,,,,,,,,,,,,,,,,,,Gabi_G,001,a,2019_Nov_23_0044,Experimento,3.1.5,59.993615239135735,
8,14,14,999,0.5,0:10,3,Magenta,None,0,0,1,28:50,./completed_changuitos/montage_odfqk_165.85_189.6.jpg,right,0,0,0,0,,,,,0,11,11,11,,,,,,,,,0,0,0,0,0,10,10,10,,,,,,,,,,,,,,,,,,,,,,,,,,,,,,,,,None,None,None,1,None,None,,,,,,,,,,,,,,,,,,,,,,,,,,,,,,,,,,,,,,,,,,,,,,Gabi_G,001,a,2019_Nov_23_0044,Experimento,3.1.5,59.993615239135735,
8,14,14,999,0.5,0:10,3,Red,None,0,0,1,28:50,./completed_changuitos/montage_odfqk_165.85_189.6.jpg,right,0,0,0,0,,,,,0,11,11,11,,,,,,,,,0,0,0,0,0,11,11,11,,,,,,,,,,,,,,,,,,,,,,,,,,,,,,,,,None,None,None,1,None,None,,,,,,,,,,,,,,,,,,,,,,,,,,,,,,,,,,,,,,,,,,,,,,Gabi_G,001,a,2019_Nov_23_0044,Experimento,3.1.5,59.993615239135735,
8,14,14,999,0.5,0:10,3,Magenta,['space'],0,0,1,28:50,./completed_changuitos/montage_odfqk_165.85_189.6.jpg,right,0,0,0,0,,,,,0,11,11,11,,,,,,,,,0,0,0,0,0,12,12,12,,,,,,,,,,,,,,,,,,,,,,,,,,,,,,,,,None,None,None,0,None,None,,,,,,,,,,,,,,,,,,,,,,,,,,,,,,,,,,,,,,,,,,,,,,Gabi_G,001,a,2019_Nov_23_0044,Experimento,3.1.5,59.993615239135735,
8,14,14,999,0.5,0:10,3,Red,['space'],0,0,1,28:50,./completed_changuitos/montage_odfqk_165.85_189.6.jpg,right,0,0,0,0,,,,,0,11,11,11,,,,,,,,,0,0,0,0,0,13,13,13,,,,,,,,,,,,,,,,,,,,,,,,,,,,,,,,,None,None,None,0,None,None,,,,,,,,,,,,,,,,,,,,,,,,,,,,,,,,,,,,,,,,,,,,,,Gabi_G,001,a,2019_Nov_23_0044,Experimento,3.1.5,59.993615239135735,
8,14,14,999,0.5,0:10,3,Yellow,None,0,0,1,28:50,./completed_changuitos/montage_odfqk_165.85_189.6.jpg,right,0,0,0,0,,,,,0,11,11,11,,,,,,,,,0,0,0,0,0,14,14,14,,,,,,,,,,,,,,,,,,,,,,,,,,,,,,,,,None,None,None,1,None,None,,,,,,,,,,,,,,,,,,,,,,,,,,,,,,,,,,,,,,,,,,,,,,Gabi_G,001,a,2019_Nov_23_0044,Experimento,3.1.5,59.993615239135735,
8,14,14,999,0.5,0:10,3,Cyan,None,0,0,1,28:50,./completed_changuitos/montage_odfqk_165.85_189.6.jpg,right,0,0,0,0,,,,,0,11,11,11,,,,,,,,,0,0,0,0,0,15,15,15,,,,,,,,,,,,,,,,,,,,,,,,,,,,,,,,,None,None,None,1,None,None,,,,,,,,,,,,,,,,,,,,,,,,,,,,,,,,,,,,,,,,,,,,,,Gabi_G,001,a,2019_Nov_23_0044,Experimento,3.1.5,59.993615239135735,
8,14,14,999,0.5,0:10,3,Green,None,0,0,1,28:50,./completed_changuitos/montage_odfqk_165.85_189.6.jpg,right,0,0,0,0,,,,,0,11,11,11,,,,,,,,,0,0,0,0,0,16,16,16,,,,,,,,,,,,,,,,,,,,,,,,,,,,,,,,,None,None,None,1,None,None,,,,,,,,,,,,,,,,,,,,,,,,,,,,,,,,,,,,,,,,,,,,,,Gabi_G,001,a,2019_Nov_23_0044,Experimento,3.1.5,59.993615239135735,
8,14,14,999,0.5,0:10,3,White,None,0,0,1,28:50,./completed_changuitos/montage_odfqk_165.85_189.6.jpg,right,0,0,0,0,,,,,0,11,11,11,,,,,,,,,0,0,0,0,0,17,17,17,,,,,,,,,,,,,,,,,,,,,,,,,,,,,,,,,None,None,None,1,None,None,,,,,,,,,,,,,,,,,,,,,,,,,,,,,,,,,,,,,,,,,,,,,,Gabi_G,001,a,2019_Nov_23_0044,Experimento,3.1.5,59.993615239135735,
8,14,14,999,0.5,0:10,3,Green,['space'],0,0,1,28:50,./completed_changuitos/montage_odfqk_165.85_189.6.jpg,right,0,0,0,0,,,,,0,11,11,11,,,,,,,,,0,0,0,0,0,18,18,18,,,,,,,,,,,,,,,,,,,,,,,,,,,,,,,,,None,None,None,0,None,None,,,,,,,,,,,,,,,,,,,,,,,,,,,,,,,,,,,,,,,,,,,,,,Gabi_G,001,a,2019_Nov_23_0044,Experimento,3.1.5,59.993615239135735,
8,14,14,999,0.5,0:10,3,Red,None,0,0,1,28:50,./completed_changuitos/montage_odfqk_165.85_189.6.jpg,right,0,0,0,0,,,,,0,11,11,11,,,,,,,,,0,0,0,0,0,19,19,19,,,,,,,,,,,,,,,,,,,,,,,,,,,,,,,,,None,None,None,1,None,None,,,,,,,,,,,,,,,,,,,,,,,,,,,,,,,,,,,,,,,,,,,,,,Gabi_G,001,a,2019_Nov_23_0044,Experimento,3.1.5,59.993615239135735,
8,14,14,999,0.5,0:10,3,Blue,None,0,0,1,28:50,./completed_changuitos/montage_odfqk_165.85_189.6.jpg,right,0,0,0,0,,,,,0,11,11,11,,,,,,,,,0,0,0,0,0,20,20,20,,,,,,,,,,,,,,,,,,,,,,,,,,,,,,,,,None,None,None,1,None,None,,,,,,,,,,,,,,,,,,,,,,,,,,,,,,,,,,,,,,,,,,,,,,Gabi_G,001,a,2019_Nov_23_0044,Experimento,3.1.5,59.993615239135735,
8,14,14,999,0.5,0:10,3,Green,None,0,0,1,28:50,./completed_changuitos/montage_odfqk_165.85_189.6.jpg,right,0,0,0,0,,,,,0,11,11,11,,,,,,,,,0,0,0,0,0,21,21,21,,,,,,,,,,,,,,,,,,,,,,,,,,,,,,,,,None,None,None,1,None,None,,,,,,,,,,,,,,,,,,,,,,,,,,,,,,,,,,,,,,,,,,,,,,Gabi_G,001,a,2019_Nov_23_0044,Experimento,3.1.5,59.993615239135735,
8,14,14,999,0.5,0:10,3,,,0,0,1,28:50,./completed_changuitos/montage_odfqk_165.85_189.6.jpg,right,0,0,0,0,,,,,0,11,11,11,,,,,,,,,0,0,0,0,,,,,,,,,,,,,,,,,,,,,,,,,,,,,,,,,,,,,,,,,,,,467.2307473910041,None,left,0,2.4287811660033185,467.2307473910041,None,467.2307473910041,None,,,,,,,,,,,,,,,,,,,,,,,,,,,,,,,,,,,,Gabi_G,001,a,2019_Nov_23_0044,Experimento,3.1.5,59.993615239135735,
8,14,14,999,0.5,0:10,3,,,0,0,1,28:50,,,0,0,0,0,,,,,0,11,11,11,,,,,,,,,,,,,,,,,,,,,,,,,,,,,,,,,,,,,,,,,,,,,,,,,,,,,,,,,,,,,,,,,,,,,,,,,,,,,,,,,,,,,,,,,,,,,,,,,,,,Gabi_G,001,a,2019_Nov_23_0044,Experimento,3.1.5,59.993615239135735,
8,14,14,999,0.5,0:10,3,,,1,0,0,30:50,./completed_changuitos/montage_grfzp_57.69_66.25.jpg,right,0,0,0,0,,,,,0,12,12,12,0,0,0,0,,,,,,,,,,,,,,,,,,,,,,,,,,,,,,,,,,,,,,,,,,,,,,,,,,,,,,,,,,,,,470.2148375270044,470.9482891610096,470.9482891610096,478.9522340340045,left,0,1.2769128219952108,478.9522340340045,None,478.9522340340045,None,478.9522340340045,None,,,,,,,,,,,,,,,,,,,,,,,Gabi_G,001,a,2019_Nov_23_0044,Experimento,3.1.5,59.993615239135735,
8,14,14,999,0.5,0:10,3,,,1,0,0,30:50,,,0,0,0,0,,,,,0,12,12,12,,,,,,,,,,,,,,,,,,,,,,,,,,,,,,,,,,,,,,,,,,,,,,,,,,,,,,,,,,,,,,,,,,,,,,,,,,,,,,,,,,,,,,,,,,,,,,,,,,,,Gabi_G,001,a,2019_Nov_23_0044,Experimento,3.1.5,59.993615239135735,
8,14,14,999,0.5,0:10,3,,,1,0,0,32:50,./completed_changuitos/montage_ztfxp_75.99_64.19.jpg,left,0,0,0,0,,,,,0,13,13,13,0,0,0,0,,,,,,,,,,,,,,,,,,,,,,,,,,,,,,,,,,,,,,,,,,,,,,,,,,,,,,,,,,,,,480.8362022479996,481.4363787659968,481.4363787659968,489.4403730490012,left,1,0.9442641040077433,489.4403730490012,None,489.4403730490012,None,489.4403730490012,None,,,,,,,,,,,,,,,,,,,,,,,Gabi_G,001,a,2019_Nov_23_0044,Experimento,3.1.5,59.993615239135735,
8,14,14,999,0.5,0:10,3,,,1,0,0,32:50,,,0,0,0,0,,,,,0,13,13,13,,,,,,,,,,,,,,,,,,,,,,,,,,,,,,,,,,,,,,,,,,,,,,,,,,,,,,,,,,,,,,,,,,,,,,,,,,,,,,,,,,,,,,,,,,,,,,,,,,,,Gabi_G,001,a,2019_Nov_23_0044,Experimento,3.1.5,59.993615239135735,
8,14,14,999,0.5,0:10,3,,,1,0,0,34:50,./completed_changuitos/montage_wiplj_62.39_71.19.jpg,right,0,0,0,0,,,,,0,14,14,14,0,0,0,0,,,,,,,,,,,,,,,,,,,,,,,,,,,,,,,,,,,,,,,,,,,,,,,,,,,,,,,,,,,,,490.9910094299994,491.4579438369983,491.4579438369983,499.46167721800157,right,1,1.1646454949950567,499.46167721800157,None,499.46167721800157,None,499.46167721800157,None,,,,,,,,,,,,,,,,,,,,,,,Gabi_G,001,a,2019_Nov_23_0044,Experimento,3.1.5,59.993615239135735,
8,14,14,999,0.5,0:10,3,,,1,0,0,34:50,,,0,0,0,0,,,,,0,14,14,14,,,,,,,,,,,,,,,,,,,,,,,,,,,,,,,,,,,,,,,,,,,,,,,,,,,,,,,,,,,,,,,,,,,,,,,,,,,,,,,,,,,,,,,,,,,,,,,,,,,,Gabi_G,001,a,2019_Nov_23_0044,Experimento,3.1.5,59.993615239135735,
8,14,14,999,0.5,0:10,3,,,1,0,0,30:50,./completed_changuitos/montage_oqpdt_99.5_86.69.jpg,left,0,0,0,0,,,,,0,15,15,15,0,0,0,0,,,,,,,,,,,,,,,,,,,,,,,,,,,,,,,,,,,,,,,,,,,,,,,,,,,,,,,,,,,,,501.22947016100807,501.7630276120035,501.7630276120035,509.7668439400004,left,1,0.3737143859907519,509.7668439400004,None,509.7668439400004,None,509.7668439400004,None,,,,,,,,,,,,,,,,,,,,,,,Gabi_G,001,a,2019_Nov_23_0044,Experimento,3.1.5,59.993615239135735,
8,14,14,999,0.5,0:10,3,,,1,0,0,30:50,,,0,0,0,0,,,,,0,15,15,15,,,,,,,,,,,,,,,,,,,,,,,,,,,,,,,,,,,,,,,,,,,,,,,,,,,,,,,,,,,,,,,,,,,,,,,,,,,,,,,,,,,,,,,,,,,,,,,,,,,,Gabi_G,001,a,2019_Nov_23_0044,Experimento,3.1.5,59.993615239135735,
8,14,14,999,0.5,0:10,3,,,1,0,0,32:50,./completed_changuitos/montage_dhnnx_103.79_117.7.jpg,right,0,0,0,0,,,,,0,16,16,16,0,0,0,0,,,,,,,,,,,,,,,,,,,,,,,,,,,,,,,,,,,,,,,,,,,,,,,,,,,,,,,,,,,,,510.75065401100437,511.41741095700127,511.41741095700127,519.421479098004,left,0,0.4149807759968098,519.421479098004,None,519.421479098004,None,519.421479098004,None,,,,,,,,,,,,,,,,,,,,,,,Gabi_G,001,a,2019_Nov_23_0044,Experimento,3.1.5,59.993615239135735,
8,14,14,999,0.5,0:10,3,,,1,0,0,32:50,,,0,0,0,0,,,,,0,16,16,16,,,,,,,,,,,,,,,,,,,,,,,,,,,,,,,,,,,,,,,,,,,,,,,,,,,,,,,,,,,,,,,,,,,,,,,,,,,,,,,,,,,,,,,,,,,,,,,,,,,,Gabi_G,001,a,2019_Nov_23_0044,Experimento,3.1.5,59.993615239135735,
8,14,14,999,0.5,0:10,3,,,1,0,0,34:50,./completed_changuitos/montage_dxeto_199.9_233.25.jpg,right,0,0,0,0,,,,,0,17,17,17,0,0,0,0,,,,,,,,,,,,,,,,,,,,,,,,,,,,,,,,,,,,,,,,,,,,,,,,,,,,,,,,,,,,,520.4385913389997,521.6222305400006,521.6222305400006,529.6259781450062,right,1,0.5988913939945633,529.6259781450062,None,529.6259781450062,None,529.6259781450062,None,,,,,,,,,,,,,,,,,,,,,,,Gabi_G,001,a,2019_Nov_23_0044,Experimento,3.1.5,59.993615239135735,
8,14,14,999,0.5,0:10,3,,,1,0,0,34:50,,,0,0,0,0,,,,,0,17,17,17,,,,,,,,,,,,,,,,,,,,,,,,,,,,,,,,,,,,,,,,,,,,,,,,,,,,,,,,,,,,,,,,,,,,,,,,,,,,,,,,,,,,,,,,,,,,,,,,,,,,Gabi_G,001,a,2019_Nov_23_0044,Experimento,3.1.5,59.993615239135735,
8,14,14,999,0.5,0:10,3,,,,,,,,,0,0,0,0,,,,,,,,,,,,,,,,,,,,,,,,,,,,,,,,,,,,,,,,,,,,,,,,,,,,,,,,,,,,,,,,,,,,,,,,,,,,,,,,,,,,,,530.3101656409999,537.8801825459959,1,5.512050817997078,537.8801825459959,None,537.8801825459959,None,b,7.556076888009557,543.44956627801,None,543.44956627801,None,543.44956627801,None,551.052907809004,None,8,4.874592613006826,551.052907809004,None,Gabi_G,001,a,2019_Nov_23_0044,Experimento,3.1.5,59.993615239135735,
