changuito_time_to_show,time_to_think,time_to_play,total_items,nback_stimulus_time,nback_training,time_to_show_tiny_stimulus,colourtest,corresp,inmediato,consciente,inconsciente,nback_slice,imagen,correcta,trials_5.thisRepN,trials_5.thisTrialN,trials_5.thisN,trials_5.thisIndex,nback_train.thisRepN,nback_train.thisTrialN,nback_train.thisN,nback_train.thisIndex,treatment_order.thisRepN,treatment_order.thisTrialN,treatment_order.thisN,treatment_order.thisIndex,trials.thisRepN,trials.thisTrialN,trials.thisN,trials.thisIndex,trials_2.thisRepN,trials_2.thisTrialN,trials_2.thisN,trials_2.thisIndex,trials_3.thisRepN,trials_3.thisTrialN,trials_3.thisN,trials_3.thisIndex,trials_4.thisRepN,trials_4.thisTrialN,trials_4.thisN,trials_4.thisIndex,Presentacion.started,Presentacion.stopped,Juego.started,Juego.stopped,image_6.started,image_6.stopped,polygon.started,polygon.stopped,nback_train_resp.keys,nback_train_resp.corr,nback_train_resp.started,nback_train_resp.stopped,nback_train_resp.rt,holi.started,holi.stopped,image_3.started,image_3.stopped,polygon_2.started,polygon_2.stopped,nback_train_resp_2.keys,nback_train_resp_2.corr,nback_train_resp_2.started,nback_train_resp_2.stopped,nback_train_resp_2.rt,text_2.started,text_2.stopped,key_resp.keys,key_resp.corr,key_resp.rt,key_resp.started,key_resp.stopped,image_5.started,image_5.stopped,hola.started,hola.stopped,image_2.started,image_2.stopped,tiempo_para_pensar.started,tiempo_para_pensar.stopped,respuesta_consciente.keys,respuesta_consciente.corr,respuesta_consciente.rt,respuesta_consciente.started,respuesta_consciente.stopped,cual_es_la_mas_barata.started,cual_es_la_mas_barata.stopped,image_4.started,image_4.stopped,text.started,text.stopped,image.started,image.stopped,respuesta_inmediato.keys,respuesta_inmediato.corr,respuesta_inmediato.rt,respuesta_inmediato.started,respuesta_inmediato.stopped,pregunta_cual_es_el_mas_barato.started,pregunta_cual_es_el_mas_barato.stopped,short_stim1.started,short_stim1.stopped,gracias.started,gracias.stopped,respuesta1.keys,respuesta1.rt,respuesta1.started,respuesta1.stopped,pregunta1.started,pregunta1.stopped,respuesta3bis_3.keys,respuesta3bis_3.rt,respuesta3bis_3.started,respuesta3bis_3.stopped,pregunta3_3.started,pregunta3_3.stopped,productoCon3RANGOSabc_3.started,productoCon3RANGOSabc_3.stopped,text_3.started,text_3.stopped,key_resp_2.keys,key_resp_2.rt,key_resp_2.started,key_resp_2.stopped,participant,session,group,date,expName,psychopyVersion,frameRate,
8,14,14,999,0.5,0:10,3,White,None,,,,,,,0,0,0,0,0,0,0,0,,,,,,,,,,,,,,,,,,,,,63.38732431997778,None,105.3562385510013,None,105.3562385510013,None,149.9103507559921,150.37733812999795,None,1,149.9103507559921,None,,,,,,,,,,,,,,,,,,,,,,,,,,,,,,,,,,,,,,,,,,,,,,,,,,,,,,,,,,,,,,,,,,,,,,,,violeS,001,d,2019_Nov_24_1946,Experimento,3.1.5,60.01735797305617,
8,14,14,999,0.5,0:10,3,Red,None,,,,,,,0,0,0,0,0,1,1,1,,,,,,,,,,,,,,,,,,,,,,,,,,,151.8946036209818,152.37851695498102,None,1,151.8946036209818,None,,,,,,,,,,,,,,,,,,,,,,,,,,,,,,,,,,,,,,,,,,,,,,,,,,,,,,,,,,,,,,,,,,,,,,,,violeS,001,d,2019_Nov_24_1946,Experimento,3.1.5,60.01735797305617,
8,14,14,999,0.5,0:10,3,Magenta,None,,,,,,,0,0,0,0,0,2,2,2,,,,,,,,,,,,,,,,,,,,,,,,,,,153.8958606889937,154.37915050398442,None,1,153.8958606889937,None,,,,,,,,,,,,,,,,,,,,,,,,,,,,,,,,,,,,,,,,,,,,,,,,,,,,,,,,,,,,,,,,,,,,,,,,violeS,001,d,2019_Nov_24_1946,Experimento,3.1.5,60.01735797305617,
8,14,14,999,0.5,0:10,3,Cyan,None,,,,,,,0,0,0,0,0,3,3,3,,,,,,,,,,,,,,,,,,,,,,,,,,,155.89658506397973,156.38043756099069,None,1,155.89658506397973,None,,,,,,,,,,,,,,,,,,,,,,,,,,,,,,,,,,,,,,,,,,,,,,,,,,,,,,,,,,,,,,,,,,,,,,,,violeS,001,d,2019_Nov_24_1946,Experimento,3.1.5,60.01735797305617,
8,14,14,999,0.5,0:10,3,Magenta,['space'],,,,,,,0,0,0,0,0,4,4,4,,,,,,,,,,,,,,,,,,,,,,,,,,,157.89782020400162,158.38107677098014,None,0,157.89782020400162,None,,,,,,,,,,,,,,,,,,,,,,,,,,,,,,,,,,,,,,,,,,,,,,,,,,,,,,,,,,,,,,,,,,,,,,,,violeS,001,d,2019_Nov_24_1946,Experimento,3.1.5,60.01735797305617,
8,14,14,999,0.5,0:10,3,Green,None,,,,,,,0,0,0,0,0,5,5,5,,,,,,,,,,,,,,,,,,,,,,,,,,,159.89867196697742,160.38235207897378,None,1,159.89867196697742,None,,,,,,,,,,,,,,,,,,,,,,,,,,,,,,,,,,,,,,,,,,,,,,,,,,,,,,,,,,,,,,,,,,,,,,,,violeS,001,d,2019_Nov_24_1946,Experimento,3.1.5,60.01735797305617,
8,14,14,999,0.5,0:10,3,White,None,,,,,,,0,0,0,0,0,6,6,6,,,,,,,,,,,,,,,,,,,,,,,,,,,161.899651041982,162.38297931899433,None,1,161.899651041982,None,,,,,,,,,,,,,,,,,,,,,,,,,,,,,,,,,,,,,,,,,,,,,,,,,,,,,,,,,,,,,,,,,,,,,,,,violeS,001,d,2019_Nov_24_1946,Experimento,3.1.5,60.01735797305617,
8,14,14,999,0.5,0:10,3,Green,['space'],,,,,,,0,0,0,0,0,7,7,7,,,,,,,,,,,,,,,,,,,,,,,,,,,163.90026527299779,164.38423629797762,['return'],0,163.90026527299779,None,[0.7238122550188564],,,,,,,,,,,,,,,,,,,,,,,,,,,,,,,,,,,,,,,,,,,,,,,,,,,,,,,,,,,,,,,,,,,,,,,violeS,001,d,2019_Nov_24_1946,Experimento,3.1.5,60.01735797305617,
8,14,14,999,0.5,0:10,3,Blue,None,,,,,,,0,0,0,0,0,8,8,8,,,,,,,,,,,,,,,,,,,,,,,,,,,165.90155820798827,166.38481835997663,None,1,165.90155820798827,None,,,,,,,,,,,,,,,,,,,,,,,,,,,,,,,,,,,,,,,,,,,,,,,,,,,,,,,,,,,,,,,,,,,,,,,,violeS,001,d,2019_Nov_24_1946,Experimento,3.1.5,60.01735797305617,
8,14,14,999,0.5,0:10,3,Green,['space'],,,,,,,0,0,0,0,0,9,9,9,,,,,,,,,,,,,,,,,,,,,,,,,,,167.90215682599228,168.38615763100097,None,0,167.90215682599228,None,,,,,,,,,,,,,,,,,,,,,,,,,,,,,,,,,,,,,,,,,,,,,,,,,,,,,,,,,,,,,,,,,,,,,,,,violeS,001,d,2019_Nov_24_1946,Experimento,3.1.5,60.01735797305617,
8,14,14,999,0.5,0:10,3,Magenta,None,0,0,1,20:50,./completed_changuitos/montage_wwvee_284.65_249.3.jpg,left,0,0,0,0,,,,,0,0,0,0,,,,,,,,,0,0,0,0,0,0,0,0,,,,,,,,,,,,,,170.0711387739866,214.7077802629792,214.7077802629792,None,222.7449225129967,223.22894023297704,None,1,222.7449225129967,None,,,,,,,,,,,,,,,,,,,,,,,,,,,,,,,,,,,,,,,,,,,,,,,,,,,,,,,,,,,,,violeS,001,d,2019_Nov_24_1946,Experimento,3.1.5,60.01735797305617,
8,14,14,999,0.5,0:10,3,Blue,['space'],0,0,1,20:50,./completed_changuitos/montage_wwvee_284.65_249.3.jpg,left,0,0,0,0,,,,,0,0,0,0,,,,,,,,,0,0,0,0,0,1,1,1,,,,,,,,,,,,,,,,,,224.74610674698488,225.22942203297862,None,0,224.74610674698488,None,,,,,,,,,,,,,,,,,,,,,,,,,,,,,,,,,,,,,,,,,,,,,,,,,,,,,,,,,,,,,violeS,001,d,2019_Nov_24_1946,Experimento,3.1.5,60.01735797305617,
8,14,14,999,0.5,0:10,3,Cyan,None,0,0,1,20:50,./completed_changuitos/montage_wwvee_284.65_249.3.jpg,left,0,0,0,0,,,,,0,0,0,0,,,,,,,,,0,0,0,0,0,2,2,2,,,,,,,,,,,,,,,,,,226.74672448198544,227.23066672397545,None,1,226.74672448198544,None,,,,,,,,,,,,,,,,,,,,,,,,,,,,,,,,,,,,,,,,,,,,,,,,,,,,,,,,,,,,,violeS,001,d,2019_Nov_24_1946,Experimento,3.1.5,60.01735797305617,
8,14,14,999,0.5,0:10,3,Yellow,None,0,0,1,20:50,./completed_changuitos/montage_wwvee_284.65_249.3.jpg,left,0,0,0,0,,,,,0,0,0,0,,,,,,,,,0,0,0,0,0,3,3,3,,,,,,,,,,,,,,,,,,228.74805865998496,229.23130367699196,None,1,228.74805865998496,None,,,,,,,,,,,,,,,,,,,,,,,,,,,,,,,,,,,,,,,,,,,,,,,,,,,,,,,,,,,,,violeS,001,d,2019_Nov_24_1946,Experimento,3.1.5,60.01735797305617,
8,14,14,999,0.5,0:10,3,Cyan,None,0,0,1,20:50,./completed_changuitos/montage_wwvee_284.65_249.3.jpg,left,0,0,0,0,,,,,0,0,0,0,,,,,,,,,0,0,0,0,0,4,4,4,,,,,,,,,,,,,,,,,,230.7487398639787,231.23266055400018,None,1,230.7487398639787,None,,,,,,,,,,,,,,,,,,,,,,,,,,,,,,,,,,,,,,,,,,,,,,,,,,,,,,,,,,,,,violeS,001,d,2019_Nov_24_1946,Experimento,3.1.5,60.01735797305617,
8,14,14,999,0.5,0:10,3,Blue,None,0,0,1,20:50,./completed_changuitos/montage_wwvee_284.65_249.3.jpg,left,0,0,0,0,,,,,0,0,0,0,,,,,,,,,0,0,0,0,0,5,5,5,,,,,,,,,,,,,,,,,,232.7498973859765,233.23317598499125,None,1,232.7498973859765,None,,,,,,,,,,,,,,,,,,,,,,,,,,,,,,,,,,,,,,,,,,,,,,,,,,,,,,,,,,,,,violeS,001,d,2019_Nov_24_1946,Experimento,3.1.5,60.01735797305617,
8,14,14,999,0.5,0:10,3,Cyan,['space'],0,0,1,20:50,./completed_changuitos/montage_wwvee_284.65_249.3.jpg,left,0,0,0,0,,,,,0,0,0,0,,,,,,,,,0,0,0,0,0,6,6,6,,,,,,,,,,,,,,,,,,234.7505366949772,235.23441527798423,['return'],0,234.7505366949772,None,[0.44257362201460637],,,,,,,,,,,,,,,,,,,,,,,,,,,,,,,,,,,,,,,,,,,,,,,,,,,,,,,,,,,,violeS,001,d,2019_Nov_24_1946,Experimento,3.1.5,60.01735797305617,
8,14,14,999,0.5,0:10,3,Magenta,None,0,0,1,20:50,./completed_changuitos/montage_wwvee_284.65_249.3.jpg,left,0,0,0,0,,,,,0,0,0,0,,,,,,,,,0,0,0,0,0,7,7,7,,,,,,,,,,,,,,,,,,None,None,None,1,None,None,,,,,,,,,,,,,,,,,,,,,,,,,,,,,,,,,,,,,,,,,,,,,,,,,,,,,,,,,,,,,violeS,001,d,2019_Nov_24_1946,Experimento,3.1.5,60.01735797305617,
8,14,14,999,0.5,0:10,3,Red,None,0,0,1,20:50,./completed_changuitos/montage_wwvee_284.65_249.3.jpg,left,0,0,0,0,,,,,0,0,0,0,,,,,,,,,0,0,0,0,0,8,8,8,,,,,,,,,,,,,,,,,,None,None,None,1,None,None,,,,,,,,,,,,,,,,,,,,,,,,,,,,,,,,,,,,,,,,,,,,,,,,,,,,,,,,,,,,,violeS,001,d,2019_Nov_24_1946,Experimento,3.1.5,60.01735797305617,
8,14,14,999,0.5,0:10,3,Magenta,['space'],0,0,1,20:50,./completed_changuitos/montage_wwvee_284.65_249.3.jpg,left,0,0,0,0,,,,,0,0,0,0,,,,,,,,,0,0,0,0,0,9,9,9,,,,,,,,,,,,,,,,,,None,None,None,0,None,None,,,,,,,,,,,,,,,,,,,,,,,,,,,,,,,,,,,,,,,,,,,,,,,,,,,,,,,,,,,,,violeS,001,d,2019_Nov_24_1946,Experimento,3.1.5,60.01735797305617,
8,14,14,999,0.5,0:10,3,Green,None,0,0,1,20:50,./completed_changuitos/montage_wwvee_284.65_249.3.jpg,left,0,0,0,0,,,,,0,0,0,0,,,,,,,,,0,0,0,0,0,10,10,10,,,,,,,,,,,,,,,,,,None,None,None,1,None,None,,,,,,,,,,,,,,,,,,,,,,,,,,,,,,,,,,,,,,,,,,,,,,,,,,,,,,,,,,,,,violeS,001,d,2019_Nov_24_1946,Experimento,3.1.5,60.01735797305617,
8,14,14,999,0.5,0:10,3,Yellow,['space'],0,0,1,20:50,./completed_changuitos/montage_wwvee_284.65_249.3.jpg,left,0,0,0,0,,,,,0,0,0,0,,,,,,,,,0,0,0,0,0,11,11,11,,,,,,,,,,,,,,,,,,None,None,None,0,None,None,,,,,,,,,,,,,,,,,,,,,,,,,,,,,,,,,,,,,,,,,,,,,,,,,,,,,,,,,,,,,violeS,001,d,2019_Nov_24_1946,Experimento,3.1.5,60.01735797305617,
8,14,14,999,0.5,0:10,3,Blue,None,0,0,1,20:50,./completed_changuitos/montage_wwvee_284.65_249.3.jpg,left,0,0,0,0,,,,,0,0,0,0,,,,,,,,,0,0,0,0,0,12,12,12,,,,,,,,,,,,,,,,,,None,None,None,1,None,None,,,,,,,,,,,,,,,,,,,,,,,,,,,,,,,,,,,,,,,,,,,,,,,,,,,,,,,,,,,,,violeS,001,d,2019_Nov_24_1946,Experimento,3.1.5,60.01735797305617,
8,14,14,999,0.5,0:10,3,Cyan,None,0,0,1,20:50,./completed_changuitos/montage_wwvee_284.65_249.3.jpg,left,0,0,0,0,,,,,0,0,0,0,,,,,,,,,0,0,0,0,0,13,13,13,,,,,,,,,,,,,,,,,,None,None,None,1,None,None,,,,,,,,,,,,,,,,,,,,,,,,,,,,,,,,,,,,,,,,,,,,,,,,,,,,,,,,,,,,,violeS,001,d,2019_Nov_24_1946,Experimento,3.1.5,60.01735797305617,
8,14,14,999,0.5,0:10,3,Blue,['space'],0,0,1,20:50,./completed_changuitos/montage_wwvee_284.65_249.3.jpg,left,0,0,0,0,,,,,0,0,0,0,,,,,,,,,0,0,0,0,0,14,14,14,,,,,,,,,,,,,,,,,,None,None,None,0,None,None,,,,,,,,,,,,,,,,,,,,,,,,,,,,,,,,,,,,,,,,,,,,,,,,,,,,,,,,,,,,,violeS,001,d,2019_Nov_24_1946,Experimento,3.1.5,60.01735797305617,
8,14,14,999,0.5,0:10,3,Yellow,None,0,0,1,20:50,./completed_changuitos/montage_wwvee_284.65_249.3.jpg,left,0,0,0,0,,,,,0,0,0,0,,,,,,,,,0,0,0,0,0,15,15,15,,,,,,,,,,,,,,,,,,None,None,None,1,None,None,,,,,,,,,,,,,,,,,,,,,,,,,,,,,,,,,,,,,,,,,,,,,,,,,,,,,,,,,,,,,violeS,001,d,2019_Nov_24_1946,Experimento,3.1.5,60.01735797305617,
8,14,14,999,0.5,0:10,3,Cyan,None,0,0,1,20:50,./completed_changuitos/montage_wwvee_284.65_249.3.jpg,left,0,0,0,0,,,,,0,0,0,0,,,,,,,,,0,0,0,0,0,16,16,16,,,,,,,,,,,,,,,,,,None,None,None,1,None,None,,,,,,,,,,,,,,,,,,,,,,,,,,,,,,,,,,,,,,,,,,,,,,,,,,,,,,,,,,,,,violeS,001,d,2019_Nov_24_1946,Experimento,3.1.5,60.01735797305617,
8,14,14,999,0.5,0:10,3,Yellow,['space'],0,0,1,20:50,./completed_changuitos/montage_wwvee_284.65_249.3.jpg,left,0,0,0,0,,,,,0,0,0,0,,,,,,,,,0,0,0,0,0,17,17,17,,,,,,,,,,,,,,,,,,None,None,None,0,None,None,,,,,,,,,,,,,,,,,,,,,,,,,,,,,,,,,,,,,,,,,,,,,,,,,,,,,,,,,,,,,violeS,001,d,2019_Nov_24_1946,Experimento,3.1.5,60.01735797305617,
8,14,14,999,0.5,0:10,3,Magenta,None,0,0,1,20:50,./completed_changuitos/montage_wwvee_284.65_249.3.jpg,left,0,0,0,0,,,,,0,0,0,0,,,,,,,,,0,0,0,0,0,18,18,18,,,,,,,,,,,,,,,,,,None,None,None,1,None,None,,,,,,,,,,,,,,,,,,,,,,,,,,,,,,,,,,,,,,,,,,,,,,,,,,,,,,,,,,,,,violeS,001,d,2019_Nov_24_1946,Experimento,3.1.5,60.01735797305617,
8,14,14,999,0.5,0:10,3,Red,None,0,0,1,20:50,./completed_changuitos/montage_wwvee_284.65_249.3.jpg,left,0,0,0,0,,,,,0,0,0,0,,,,,,,,,0,0,0,0,0,19,19,19,,,,,,,,,,,,,,,,,,None,None,None,1,None,None,,,,,,,,,,,,,,,,,,,,,,,,,,,,,,,,,,,,,,,,,,,,,,,,,,,,,,,,,,,,,violeS,001,d,2019_Nov_24_1946,Experimento,3.1.5,60.01735797305617,
8,14,14,999,0.5,0:10,3,Magenta,['space'],0,0,1,20:50,./completed_changuitos/montage_wwvee_284.65_249.3.jpg,left,0,0,0,0,,,,,0,0,0,0,,,,,,,,,0,0,0,0,0,20,20,20,,,,,,,,,,,,,,,,,,None,None,None,0,None,None,,,,,,,,,,,,,,,,,,,,,,,,,,,,,,,,,,,,,,,,,,,,,,,,,,,,,,,,,,,,,violeS,001,d,2019_Nov_24_1946,Experimento,3.1.5,60.01735797305617,
8,14,14,999,0.5,0:10,3,Red,['space'],0,0,1,20:50,./completed_changuitos/montage_wwvee_284.65_249.3.jpg,left,0,0,0,0,,,,,0,0,0,0,,,,,,,,,0,0,0,0,0,21,21,21,,,,,,,,,,,,,,,,,,None,None,None,0,None,None,,,,,,,,,,,,,,,,,,,,,,,,,,,,,,,,,,,,,,,,,,,,,,,,,,,,,,,,,,,,,violeS,001,d,2019_Nov_24_1946,Experimento,3.1.5,60.01735797305617,
8,14,14,999,0.5,0:10,3,Yellow,None,0,0,1,20:50,./completed_changuitos/montage_wwvee_284.65_249.3.jpg,left,0,0,0,0,,,,,0,0,0,0,,,,,,,,,0,0,0,0,0,22,22,22,,,,,,,,,,,,,,,,,,None,None,None,1,None,None,,,,,,,,,,,,,,,,,,,,,,,,,,,,,,,,,,,,,,,,,,,,,,,,,,,,,,,,,,,,,violeS,001,d,2019_Nov_24_1946,Experimento,3.1.5,60.01735797305617,
8,14,14,999,0.5,0:10,3,Cyan,None,0,0,1,20:50,./completed_changuitos/montage_wwvee_284.65_249.3.jpg,left,0,0,0,0,,,,,0,0,0,0,,,,,,,,,0,0,0,0,0,23,23,23,,,,,,,,,,,,,,,,,,None,None,None,1,None,None,,,,,,,,,,,,,,,,,,,,,,,,,,,,,,,,,,,,,,,,,,,,,,,,,,,,,,,,,,,,,violeS,001,d,2019_Nov_24_1946,Experimento,3.1.5,60.01735797305617,
8,14,14,999,0.5,0:10,3,Green,None,0,0,1,20:50,./completed_changuitos/montage_wwvee_284.65_249.3.jpg,left,0,0,0,0,,,,,0,0,0,0,,,,,,,,,0,0,0,0,0,24,24,24,,,,,,,,,,,,,,,,,,None,None,None,1,None,None,,,,,,,,,,,,,,,,,,,,,,,,,,,,,,,,,,,,,,,,,,,,,,,,,,,,,,,,,,,,,violeS,001,d,2019_Nov_24_1946,Experimento,3.1.5,60.01735797305617,
8,14,14,999,0.5,0:10,3,White,None,0,0,1,20:50,./completed_changuitos/montage_wwvee_284.65_249.3.jpg,left,0,0,0,0,,,,,0,0,0,0,,,,,,,,,0,0,0,0,0,25,25,25,,,,,,,,,,,,,,,,,,None,None,None,1,None,None,,,,,,,,,,,,,,,,,,,,,,,,,,,,,,,,,,,,,,,,,,,,,,,,,,,,,,,,,,,,,violeS,001,d,2019_Nov_24_1946,Experimento,3.1.5,60.01735797305617,
8,14,14,999,0.5,0:10,3,Green,['space'],0,0,1,20:50,./completed_changuitos/montage_wwvee_284.65_249.3.jpg,left,0,0,0,0,,,,,0,0,0,0,,,,,,,,,0,0,0,0,0,26,26,26,,,,,,,,,,,,,,,,,,None,None,None,0,None,None,,,,,,,,,,,,,,,,,,,,,,,,,,,,,,,,,,,,,,,,,,,,,,,,,,,,,,,,,,,,,violeS,001,d,2019_Nov_24_1946,Experimento,3.1.5,60.01735797305617,
8,14,14,999,0.5,0:10,3,Red,None,0,0,1,20:50,./completed_changuitos/montage_wwvee_284.65_249.3.jpg,left,0,0,0,0,,,,,0,0,0,0,,,,,,,,,0,0,0,0,0,27,27,27,,,,,,,,,,,,,,,,,,None,None,None,1,None,None,,,,,,,,,,,,,,,,,,,,,,,,,,,,,,,,,,,,,,,,,,,,,,,,,,,,,,,,,,,,,violeS,001,d,2019_Nov_24_1946,Experimento,3.1.5,60.01735797305617,
8,14,14,999,0.5,0:10,3,Blue,None,0,0,1,20:50,./completed_changuitos/montage_wwvee_284.65_249.3.jpg,left,0,0,0,0,,,,,0,0,0,0,,,,,,,,,0,0,0,0,0,28,28,28,,,,,,,,,,,,,,,,,,None,None,None,1,None,None,,,,,,,,,,,,,,,,,,,,,,,,,,,,,,,,,,,,,,,,,,,,,,,,,,,,,,,,,,,,,violeS,001,d,2019_Nov_24_1946,Experimento,3.1.5,60.01735797305617,
8,14,14,999,0.5,0:10,3,Green,None,0,0,1,20:50,./completed_changuitos/montage_wwvee_284.65_249.3.jpg,left,0,0,0,0,,,,,0,0,0,0,,,,,,,,,0,0,0,0,0,29,29,29,,,,,,,,,,,,,,,,,,None,None,None,1,None,None,,,,,,,,,,,,,,,,,,,,,,,,,,,,,,,,,,,,,,,,,,,,,,,,,,,,,,,,,,,,,violeS,001,d,2019_Nov_24_1946,Experimento,3.1.5,60.01735797305617,
8,14,14,999,0.5,0:10,3,,,0,0,1,20:50,./completed_changuitos/montage_wwvee_284.65_249.3.jpg,left,0,0,0,0,,,,,0,0,0,0,,,,,,,,,0,0,0,0,,,,,,,,,,,,,,,,,,,,,,,,,,,,,237.28545887497603,None,left,1,2.1154933490033727,237.28545887497603,None,237.28545887497603,None,,,,,,,,,,,,,,,,,,,,,,,,,,,,,,,,,,,,,,,,,,,,,,,,,,,violeS,001,d,2019_Nov_24_1946,Experimento,3.1.5,60.01735797305617,
8,14,14,999,0.5,0:10,3,,,0,0,1,20:50,,,0,0,0,0,,,,,0,0,0,0,,,,,,,,,,,,,,,,,,,,,,,,,,,,,,,,,,,,,,,,,,,,,,,,,,,,,,,,,,,,,,,,,,,,,,,,,,,,,,,,,,,,,,,,,,,,,,,,,,,,violeS,001,d,2019_Nov_24_1946,Experimento,3.1.5,60.01735797305617,
8,14,14,999,0.5,0:10,3,,,0,1,0,10:50,./completed_changuitos/montage_uulje_192.59_167.45.jpg,left,0,0,0,0,,,,,0,1,1,1,,,,,0,0,0,0,,,,,,,,,,,,,,,,,,,,,,,,,,,,,,,,,,,,,,,,,,239.7378011510009,242.18755691999104,242.18755691999104,250.19122566698934,250.19122566698934,264.1978288870014,right,0,2.6068181459850166,264.1978288870014,None,264.1978288870014,None,264.1978288870014,None,,,,,,,,,,,,,,,,,,,,,,,,,,,,,,,,,,,,violeS,001,d,2019_Nov_24_1946,Experimento,3.1.5,60.01735797305617,
8,14,14,999,0.5,0:10,3,,,0,1,0,10:50,,,0,0,0,0,,,,,0,1,1,1,,,,,,,,,,,,,,,,,,,,,,,,,,,,,,,,,,,,,,,,,,,,,,,,,,,,,,,,,,,,,,,,,,,,,,,,,,,,,,,,,,,,,,,,,,,,,,,,,,,,violeS,001,d,2019_Nov_24_1946,Experimento,3.1.5,60.01735797305617,
8,14,14,999,0.5,0:10,3,,,0,1,0,25:50,./completed_changuitos/montage_gjxbk_28.89_33.19.jpg,right,0,0,0,0,,,,,0,2,2,2,,,,,0,0,0,0,,,,,,,,,,,,,,,,,,,,,,,,,,,,,,,,,,,,,,,,,,267.1666158029984,269.2505674189888,269.2505674189888,277.2543665749836,277.2543665749836,291.2610324139823,left,0,3.4352229409851134,291.2610324139823,None,291.2610324139823,None,291.2610324139823,294.26238124098745,,,,,,,,,,,,,,,,,,,,,,,,,,,,,,,,,,,,violeS,001,d,2019_Nov_24_1946,Experimento,3.1.5,60.01735797305617,
8,14,14,999,0.5,0:10,3,,,0,1,0,25:50,,,0,0,0,0,,,,,0,2,2,2,,,,,,,,,,,,,,,,,,,,,,,,,,,,,,,,,,,,,,,,,,,,,,,,,,,,,,,,,,,,,,,,,,,,,,,,,,,,,,,,,,,,,,,,,,,,,,,,,,,,violeS,001,d,2019_Nov_24_1946,Experimento,3.1.5,60.01735797305617,
8,14,14,999,0.5,0:10,3,Yellow,None,0,0,1,15:50,./completed_changuitos/montage_ctlmw_61.95_70.65.jpg,right,0,0,0,0,,,,,0,3,3,3,,,,,,,,,0,0,0,0,0,0,0,0,,,,,,,,,,,,,,294.9633125839755,296.54673268599436,296.54673268599436,None,304.584005555982,305.0672656359966,None,1,304.584005555982,None,,,,,,,,,,,,,,,,,,,,,,,,,,,,,,,,,,,,,,,,,,,,,,,,,,,,,,,,,,,,,violeS,001,d,2019_Nov_24_1946,Experimento,3.1.5,60.01735797305617,
8,14,14,999,0.5,0:10,3,White,['space'],0,0,1,15:50,./completed_changuitos/montage_ctlmw_61.95_70.65.jpg,right,0,0,0,0,,,,,0,3,3,3,,,,,,,,,0,0,0,0,0,1,1,1,,,,,,,,,,,,,,,,,,306.5845662369975,307.06851168497815,None,0,306.5845662369975,None,,,,,,,,,,,,,,,,,,,,,,,,,,,,,,,,,,,,,,,,,,,,,,,,,,,,,,,,,,,,,violeS,001,d,2019_Nov_24_1946,Experimento,3.1.5,60.01735797305617,
8,14,14,999,0.5,0:10,3,Magenta,None,0,0,1,15:50,./completed_changuitos/montage_ctlmw_61.95_70.65.jpg,right,0,0,0,0,,,,,0,3,3,3,,,,,,,,,0,0,0,0,0,2,2,2,,,,,,,,,,,,,,,,,,308.58587984298356,309.06913574397913,None,1,308.58587984298356,None,,,,,,,,,,,,,,,,,,,,,,,,,,,,,,,,,,,,,,,,,,,,,,,,,,,,,,,,,,,,,violeS,001,d,2019_Nov_24_1946,Experimento,3.1.5,60.01735797305617,
8,14,14,999,0.5,0:10,3,Cyan,None,0,0,1,15:50,./completed_changuitos/montage_ctlmw_61.95_70.65.jpg,right,0,0,0,0,,,,,0,3,3,3,,,,,,,,,0,0,0,0,0,3,3,3,,,,,,,,,,,,,,,,,,310.5864625510003,311.0703837449837,None,1,310.5864625510003,None,,,,,,,,,,,,,,,,,,,,,,,,,,,,,,,,,,,,,,,,,,,,,,,,,,,,,,,,,,,,,violeS,001,d,2019_Nov_24_1946,Experimento,3.1.5,60.01735797305617,
8,14,14,999,0.5,0:10,3,Blue,None,0,0,1,15:50,./completed_changuitos/montage_ctlmw_61.95_70.65.jpg,right,0,0,0,0,,,,,0,3,3,3,,,,,,,,,0,0,0,0,0,4,4,4,,,,,,,,,,,,,,,,,,312.5877439350006,313.07107764398097,None,1,312.5877439350006,None,,,,,,,,,,,,,,,,,,,,,,,,,,,,,,,,,,,,,,,,,,,,,,,,,,,,,,,,,,,,,violeS,001,d,2019_Nov_24_1946,Experimento,3.1.5,60.01735797305617,
8,14,14,999,0.5,0:10,3,Magenta,None,0,0,1,15:50,./completed_changuitos/montage_ctlmw_61.95_70.65.jpg,right,0,0,0,0,,,,,0,3,3,3,,,,,,,,,0,0,0,0,0,5,5,5,,,,,,,,,,,,,,,,,,314.58842695798376,315.07232429800206,None,1,314.58842695798376,None,,,,,,,,,,,,,,,,,,,,,,,,,,,,,,,,,,,,,,,,,,,,,,,,,,,,,,,,,,,,,violeS,001,d,2019_Nov_24_1946,Experimento,3.1.5,60.01735797305617,
8,14,14,999,0.5,0:10,3,Blue,['space'],0,0,1,15:50,./completed_changuitos/montage_ctlmw_61.95_70.65.jpg,right,0,0,0,0,,,,,0,3,3,3,,,,,,,,,0,0,0,0,0,6,6,6,,,,,,,,,,,,,,,,,,316.58968210499734,317.0729612610012,None,0,316.58968210499734,None,,,,,,,,,,,,,,,,,,,,,,,,,,,,,,,,,,,,,,,,,,,,,,,,,,,,,,,,,,,,,violeS,001,d,2019_Nov_24_1946,Experimento,3.1.5,60.01735797305617,
8,14,14,999,0.5,0:10,3,Cyan,None,0,0,1,15:50,./completed_changuitos/montage_ctlmw_61.95_70.65.jpg,right,0,0,0,0,,,,,0,3,3,3,,,,,,,,,0,0,0,0,0,7,7,7,,,,,,,,,,,,,,,,,,None,None,None,1,None,None,,,,,,,,,,,,,,,,,,,,,,,,,,,,,,,,,,,,,,,,,,,,,,,,,,,,,,,,,,,,,violeS,001,d,2019_Nov_24_1946,Experimento,3.1.5,60.01735797305617,
8,14,14,999,0.5,0:10,3,Yellow,None,0,0,1,15:50,./completed_changuitos/montage_ctlmw_61.95_70.65.jpg,right,0,0,0,0,,,,,0,3,3,3,,,,,,,,,0,0,0,0,0,8,8,8,,,,,,,,,,,,,,,,,,None,None,None,1,None,None,,,,,,,,,,,,,,,,,,,,,,,,,,,,,,,,,,,,,,,,,,,,,,,,,,,,,,,,,,,,,violeS,001,d,2019_Nov_24_1946,Experimento,3.1.5,60.01735797305617,
8,14,14,999,0.5,0:10,3,Cyan,None,0,0,1,15:50,./completed_changuitos/montage_ctlmw_61.95_70.65.jpg,right,0,0,0,0,,,,,0,3,3,3,,,,,,,,,0,0,0,0,0,9,9,9,,,,,,,,,,,,,,,,,,None,None,None,1,None,None,,,,,,,,,,,,,,,,,,,,,,,,,,,,,,,,,,,,,,,,,,,,,,,,,,,,,,,,,,,,,violeS,001,d,2019_Nov_24_1946,Experimento,3.1.5,60.01735797305617,
8,14,14,999,0.5,0:10,3,Blue,None,0,0,1,15:50,./completed_changuitos/montage_ctlmw_61.95_70.65.jpg,right,0,0,0,0,,,,,0,3,3,3,,,,,,,,,0,0,0,0,0,10,10,10,,,,,,,,,,,,,,,,,,None,None,None,1,None,None,,,,,,,,,,,,,,,,,,,,,,,,,,,,,,,,,,,,,,,,,,,,,,,,,,,,,,,,,,,,,violeS,001,d,2019_Nov_24_1946,Experimento,3.1.5,60.01735797305617,
8,14,14,999,0.5,0:10,3,Cyan,['space'],0,0,1,15:50,./completed_changuitos/montage_ctlmw_61.95_70.65.jpg,right,0,0,0,0,,,,,0,3,3,3,,,,,,,,,0,0,0,0,0,11,11,11,,,,,,,,,,,,,,,,,,None,None,None,0,None,None,,,,,,,,,,,,,,,,,,,,,,,,,,,,,,,,,,,,,,,,,,,,,,,,,,,,,,,,,,,,,violeS,001,d,2019_Nov_24_1946,Experimento,3.1.5,60.01735797305617,
8,14,14,999,0.5,0:10,3,Magenta,None,0,0,1,15:50,./completed_changuitos/montage_ctlmw_61.95_70.65.jpg,right,0,0,0,0,,,,,0,3,3,3,,,,,,,,,0,0,0,0,0,12,12,12,,,,,,,,,,,,,,,,,,None,None,None,1,None,None,,,,,,,,,,,,,,,,,,,,,,,,,,,,,,,,,,,,,,,,,,,,,,,,,,,,,,,,,,,,,violeS,001,d,2019_Nov_24_1946,Experimento,3.1.5,60.01735797305617,
8,14,14,999,0.5,0:10,3,Red,None,0,0,1,15:50,./completed_changuitos/montage_ctlmw_61.95_70.65.jpg,right,0,0,0,0,,,,,0,3,3,3,,,,,,,,,0,0,0,0,0,13,13,13,,,,,,,,,,,,,,,,,,None,None,None,1,None,None,,,,,,,,,,,,,,,,,,,,,,,,,,,,,,,,,,,,,,,,,,,,,,,,,,,,,,,,,,,,,violeS,001,d,2019_Nov_24_1946,Experimento,3.1.5,60.01735797305617,
8,14,14,999,0.5,0:10,3,Magenta,['space'],0,0,1,15:50,./completed_changuitos/montage_ctlmw_61.95_70.65.jpg,right,0,0,0,0,,,,,0,3,3,3,,,,,,,,,0,0,0,0,0,14,14,14,,,,,,,,,,,,,,,,,,None,None,None,0,None,None,,,,,,,,,,,,,,,,,,,,,,,,,,,,,,,,,,,,,,,,,,,,,,,,,,,,,,,,,,,,,violeS,001,d,2019_Nov_24_1946,Experimento,3.1.5,60.01735797305617,
8,14,14,999,0.5,0:10,3,Green,None,0,0,1,15:50,./completed_changuitos/montage_ctlmw_61.95_70.65.jpg,right,0,0,0,0,,,,,0,3,3,3,,,,,,,,,0,0,0,0,0,15,15,15,,,,,,,,,,,,,,,,,,None,None,None,1,None,None,,,,,,,,,,,,,,,,,,,,,,,,,,,,,,,,,,,,,,,,,,,,,,,,,,,,,,,,,,,,,violeS,001,d,2019_Nov_24_1946,Experimento,3.1.5,60.01735797305617,
8,14,14,999,0.5,0:10,3,Yellow,['space'],0,0,1,15:50,./completed_changuitos/montage_ctlmw_61.95_70.65.jpg,right,0,0,0,0,,,,,0,3,3,3,,,,,,,,,0,0,0,0,0,16,16,16,,,,,,,,,,,,,,,,,,None,None,None,0,None,None,,,,,,,,,,,,,,,,,,,,,,,,,,,,,,,,,,,,,,,,,,,,,,,,,,,,,,,,,,,,,violeS,001,d,2019_Nov_24_1946,Experimento,3.1.5,60.01735797305617,
8,14,14,999,0.5,0:10,3,Blue,None,0,0,1,15:50,./completed_changuitos/montage_ctlmw_61.95_70.65.jpg,right,0,0,0,0,,,,,0,3,3,3,,,,,,,,,0,0,0,0,0,17,17,17,,,,,,,,,,,,,,,,,,None,None,None,1,None,None,,,,,,,,,,,,,,,,,,,,,,,,,,,,,,,,,,,,,,,,,,,,,,,,,,,,,,,,,,,,,violeS,001,d,2019_Nov_24_1946,Experimento,3.1.5,60.01735797305617,
8,14,14,999,0.5,0:10,3,Cyan,None,0,0,1,15:50,./completed_changuitos/montage_ctlmw_61.95_70.65.jpg,right,0,0,0,0,,,,,0,3,3,3,,,,,,,,,0,0,0,0,0,18,18,18,,,,,,,,,,,,,,,,,,None,None,None,1,None,None,,,,,,,,,,,,,,,,,,,,,,,,,,,,,,,,,,,,,,,,,,,,,,,,,,,,,,,,,,,,,violeS,001,d,2019_Nov_24_1946,Experimento,3.1.5,60.01735797305617,
8,14,14,999,0.5,0:10,3,Blue,['space'],0,0,1,15:50,./completed_changuitos/montage_ctlmw_61.95_70.65.jpg,right,0,0,0,0,,,,,0,3,3,3,,,,,,,,,0,0,0,0,0,19,19,19,,,,,,,,,,,,,,,,,,None,None,None,0,None,None,,,,,,,,,,,,,,,,,,,,,,,,,,,,,,,,,,,,,,,,,,,,,,,,,,,,,,,,,,,,,violeS,001,d,2019_Nov_24_1946,Experimento,3.1.5,60.01735797305617,
8,14,14,999,0.5,0:10,3,Yellow,None,0,0,1,15:50,./completed_changuitos/montage_ctlmw_61.95_70.65.jpg,right,0,0,0,0,,,,,0,3,3,3,,,,,,,,,0,0,0,0,0,20,20,20,,,,,,,,,,,,,,,,,,None,None,None,1,None,None,,,,,,,,,,,,,,,,,,,,,,,,,,,,,,,,,,,,,,,,,,,,,,,,,,,,,,,,,,,,,violeS,001,d,2019_Nov_24_1946,Experimento,3.1.5,60.01735797305617,
8,14,14,999,0.5,0:10,3,Cyan,None,0,0,1,15:50,./completed_changuitos/montage_ctlmw_61.95_70.65.jpg,right,0,0,0,0,,,,,0,3,3,3,,,,,,,,,0,0,0,0,0,21,21,21,,,,,,,,,,,,,,,,,,None,None,None,1,None,None,,,,,,,,,,,,,,,,,,,,,,,,,,,,,,,,,,,,,,,,,,,,,,,,,,,,,,,,,,,,,violeS,001,d,2019_Nov_24_1946,Experimento,3.1.5,60.01735797305617,
8,14,14,999,0.5,0:10,3,Yellow,['space'],0,0,1,15:50,./completed_changuitos/montage_ctlmw_61.95_70.65.jpg,right,0,0,0,0,,,,,0,3,3,3,,,,,,,,,0,0,0,0,0,22,22,22,,,,,,,,,,,,,,,,,,None,None,None,0,None,None,,,,,,,,,,,,,,,,,,,,,,,,,,,,,,,,,,,,,,,,,,,,,,,,,,,,,,,,,,,,,violeS,001,d,2019_Nov_24_1946,Experimento,3.1.5,60.01735797305617,
8,14,14,999,0.5,0:10,3,Magenta,None,0,0,1,15:50,./completed_changuitos/montage_ctlmw_61.95_70.65.jpg,right,0,0,0,0,,,,,0,3,3,3,,,,,,,,,0,0,0,0,0,23,23,23,,,,,,,,,,,,,,,,,,None,None,None,1,None,None,,,,,,,,,,,,,,,,,,,,,,,,,,,,,,,,,,,,,,,,,,,,,,,,,,,,,,,,,,,,,violeS,001,d,2019_Nov_24_1946,Experimento,3.1.5,60.01735797305617,
8,14,14,999,0.5,0:10,3,Red,None,0,0,1,15:50,./completed_changuitos/montage_ctlmw_61.95_70.65.jpg,right,0,0,0,0,,,,,0,3,3,3,,,,,,,,,0,0,0,0,0,24,24,24,,,,,,,,,,,,,,,,,,None,None,None,1,None,None,,,,,,,,,,,,,,,,,,,,,,,,,,,,,,,,,,,,,,,,,,,,,,,,,,,,,,,,,,,,,violeS,001,d,2019_Nov_24_1946,Experimento,3.1.5,60.01735797305617,
8,14,14,999,0.5,0:10,3,Magenta,['space'],0,0,1,15:50,./completed_changuitos/montage_ctlmw_61.95_70.65.jpg,right,0,0,0,0,,,,,0,3,3,3,,,,,,,,,0,0,0,0,0,25,25,25,,,,,,,,,,,,,,,,,,None,None,None,0,None,None,,,,,,,,,,,,,,,,,,,,,,,,,,,,,,,,,,,,,,,,,,,,,,,,,,,,,,,,,,,,,violeS,001,d,2019_Nov_24_1946,Experimento,3.1.5,60.01735797305617,
8,14,14,999,0.5,0:10,3,Red,['space'],0,0,1,15:50,./completed_changuitos/montage_ctlmw_61.95_70.65.jpg,right,0,0,0,0,,,,,0,3,3,3,,,,,,,,,0,0,0,0,0,26,26,26,,,,,,,,,,,,,,,,,,None,None,None,0,None,None,,,,,,,,,,,,,,,,,,,,,,,,,,,,,,,,,,,,,,,,,,,,,,,,,,,,,,,,,,,,,violeS,001,d,2019_Nov_24_1946,Experimento,3.1.5,60.01735797305617,
8,14,14,999,0.5,0:10,3,Yellow,None,0,0,1,15:50,./completed_changuitos/montage_ctlmw_61.95_70.65.jpg,right,0,0,0,0,,,,,0,3,3,3,,,,,,,,,0,0,0,0,0,27,27,27,,,,,,,,,,,,,,,,,,None,None,None,1,None,None,,,,,,,,,,,,,,,,,,,,,,,,,,,,,,,,,,,,,,,,,,,,,,,,,,,,,,,,,,,,,violeS,001,d,2019_Nov_24_1946,Experimento,3.1.5,60.01735797305617,
8,14,14,999,0.5,0:10,3,Cyan,None,0,0,1,15:50,./completed_changuitos/montage_ctlmw_61.95_70.65.jpg,right,0,0,0,0,,,,,0,3,3,3,,,,,,,,,0,0,0,0,0,28,28,28,,,,,,,,,,,,,,,,,,None,None,None,1,None,None,,,,,,,,,,,,,,,,,,,,,,,,,,,,,,,,,,,,,,,,,,,,,,,,,,,,,,,,,,,,,violeS,001,d,2019_Nov_24_1946,Experimento,3.1.5,60.01735797305617,
8,14,14,999,0.5,0:10,3,Green,None,0,0,1,15:50,./completed_changuitos/montage_ctlmw_61.95_70.65.jpg,right,0,0,0,0,,,,,0,3,3,3,,,,,,,,,0,0,0,0,0,29,29,29,,,,,,,,,,,,,,,,,,None,None,None,1,None,None,,,,,,,,,,,,,,,,,,,,,,,,,,,,,,,,,,,,,,,,,,,,,,,,,,,,,,,,,,,,,violeS,001,d,2019_Nov_24_1946,Experimento,3.1.5,60.01735797305617,
8,14,14,999,0.5,0:10,3,White,None,0,0,1,15:50,./completed_changuitos/montage_ctlmw_61.95_70.65.jpg,right,0,0,0,0,,,,,0,3,3,3,,,,,,,,,0,0,0,0,0,30,30,30,,,,,,,,,,,,,,,,,,None,None,None,1,None,None,,,,,,,,,,,,,,,,,,,,,,,,,,,,,,,,,,,,,,,,,,,,,,,,,,,,,,,,,,,,,violeS,001,d,2019_Nov_24_1946,Experimento,3.1.5,60.01735797305617,
8,14,14,999,0.5,0:10,3,Green,['space'],0,0,1,15:50,./completed_changuitos/montage_ctlmw_61.95_70.65.jpg,right,0,0,0,0,,,,,0,3,3,3,,,,,,,,,0,0,0,0,0,31,31,31,,,,,,,,,,,,,,,,,,None,None,None,0,None,None,,,,,,,,,,,,,,,,,,,,,,,,,,,,,,,,,,,,,,,,,,,,,,,,,,,,,,,,,,,,,violeS,001,d,2019_Nov_24_1946,Experimento,3.1.5,60.01735797305617,
8,14,14,999,0.5,0:10,3,Red,None,0,0,1,15:50,./completed_changuitos/montage_ctlmw_61.95_70.65.jpg,right,0,0,0,0,,,,,0,3,3,3,,,,,,,,,0,0,0,0,0,32,32,32,,,,,,,,,,,,,,,,,,None,None,None,1,None,None,,,,,,,,,,,,,,,,,,,,,,,,,,,,,,,,,,,,,,,,,,,,,,,,,,,,,,,,,,,,,violeS,001,d,2019_Nov_24_1946,Experimento,3.1.5,60.01735797305617,
8,14,14,999,0.5,0:10,3,Blue,None,0,0,1,15:50,./completed_changuitos/montage_ctlmw_61.95_70.65.jpg,right,0,0,0,0,,,,,0,3,3,3,,,,,,,,,0,0,0,0,0,33,33,33,,,,,,,,,,,,,,,,,,None,None,None,1,None,None,,,,,,,,,,,,,,,,,,,,,,,,,,,,,,,,,,,,,,,,,,,,,,,,,,,,,,,,,,,,,violeS,001,d,2019_Nov_24_1946,Experimento,3.1.5,60.01735797305617,
8,14,14,999,0.5,0:10,3,Green,None,0,0,1,15:50,./completed_changuitos/montage_ctlmw_61.95_70.65.jpg,right,0,0,0,0,,,,,0,3,3,3,,,,,,,,,0,0,0,0,0,34,34,34,,,,,,,,,,,,,,,,,,None,None,None,1,None,None,,,,,,,,,,,,,,,,,,,,,,,,,,,,,,,,,,,,,,,,,,,,,,,,,,,,,,,,,,,,,violeS,001,d,2019_Nov_24_1946,Experimento,3.1.5,60.01735797305617,
8,14,14,999,0.5,0:10,3,,,0,0,1,15:50,./completed_changuitos/montage_ctlmw_61.95_70.65.jpg,right,0,0,0,0,,,,,0,3,3,3,,,,,,,,,0,0,0,0,,,,,,,,,,,,,,,,,,,,,,,,,,,,,319.1750010569813,None,left,0,6.1229219599918,319.1750010569813,None,319.1750010569813,322.058569004992,,,,,,,,,,,,,,,,,,,,,,,,,,,,,,,,,,,,,,,,,,,,,,,,,,,violeS,001,d,2019_Nov_24_1946,Experimento,3.1.5,60.01735797305617,
8,14,14,999,0.5,0:10,3,,,0,0,1,15:50,,,0,0,0,0,,,,,0,3,3,3,,,,,,,,,,,,,,,,,,,,,,,,,,,,,,,,,,,,,,,,,,,,,,,,,,,,,,,,,,,,,,,,,,,,,,,,,,,,,,,,,,,,,,,,,,,,,,,,,,,,violeS,001,d,2019_Nov_24_1946,Experimento,3.1.5,60.01735797305617,
8,14,14,999,0.5,0:10,3,,,0,1,0,10:50,./completed_changuitos/montage_gvywe_210.79_240.75.jpg,right,0,0,0,0,,,,,0,4,4,4,,,,,0,0,0,0,,,,,,,,,,,,,,,,,,,,,,,,,,,,,,,,,,,,,,,,,,325.577371922991,326.6441656429961,326.6441656429961,334.6479537510022,334.6479537510022,348.6545129159931,left,0,1.0851411059848033,348.6545129159931,None,348.6545129159931,None,348.6545129159931,None,,,,,,,,,,,,,,,,,,,,,,,,,,,,,,,,,,,,violeS,001,d,2019_Nov_24_1946,Experimento,3.1.5,60.01735797305617,
8,14,14,999,0.5,0:10,3,,,0,1,0,10:50,,,0,0,0,0,,,,,0,4,4,4,,,,,,,,,,,,,,,,,,,,,,,,,,,,,,,,,,,,,,,,,,,,,,,,,,,,,,,,,,,,,,,,,,,,,,,,,,,,,,,,,,,,,,,,,,,,,,,,,,,,violeS,001,d,2019_Nov_24_1946,Experimento,3.1.5,60.01735797305617,
8,14,14,999,0.5,0:10,3,Red,None,0,0,1,28:50,./completed_changuitos/montage_fmczl_51.35_58.85.jpg,right,0,0,0,0,,,,,0,5,5,5,,,,,,,,,0,0,0,0,0,0,0,0,,,,,,,,,,,,,,350.00682396098273,351.0726108539966,351.0726108539966,None,359.10984757897677,359.593103332998,None,1,359.10984757897677,None,,,,,,,,,,,,,,,,,,,,,,,,,,,,,,,,,,,,,,,,,,,,,,,,,,,,,,,,,,,,,violeS,001,d,2019_Nov_24_1946,Experimento,3.1.5,60.01735797305617,
8,14,14,999,0.5,0:10,3,Magenta,['space'],0,0,1,28:50,./completed_changuitos/montage_fmczl_51.35_58.85.jpg,right,0,0,0,0,,,,,0,5,5,5,,,,,,,,,0,0,0,0,0,1,1,1,,,,,,,,,,,,,,,,,,361.11043112399057,361.5943066869804,None,0,361.11043112399057,None,,,,,,,,,,,,,,,,,,,,,,,,,,,,,,,,,,,,,,,,,,,,,,,,,,,,,,,,,,,,,violeS,001,d,2019_Nov_24_1946,Experimento,3.1.5,60.01735797305617,
8,14,14,999,0.5,0:10,3,Green,None,0,0,1,28:50,./completed_changuitos/montage_fmczl_51.35_58.85.jpg,right,0,0,0,0,,,,,0,5,5,5,,,,,,,,,0,0,0,0,0,2,2,2,,,,,,,,,,,,,,,,,,363.111699422996,363.59500477599795,None,1,363.111699422996,None,,,,,,,,,,,,,,,,,,,,,,,,,,,,,,,,,,,,,,,,,,,,,,,,,,,,,,,,,,,,,violeS,001,d,2019_Nov_24_1946,Experimento,3.1.5,60.01735797305617,
8,14,14,999,0.5,0:10,3,Yellow,['space'],0,0,1,28:50,./completed_changuitos/montage_fmczl_51.35_58.85.jpg,right,0,0,0,0,,,,,0,5,5,5,,,,,,,,,0,0,0,0,0,3,3,3,,,,,,,,,,,,,,,,,,365.11232304698206,365.5962886499765,None,0,365.11232304698206,None,,,,,,,,,,,,,,,,,,,,,,,,,,,,,,,,,,,,,,,,,,,,,,,,,,,,,,,,,,,,,violeS,001,d,2019_Nov_24_1946,Experimento,3.1.5,60.01735797305617,
8,14,14,999,0.5,0:10,3,Blue,None,0,0,1,28:50,./completed_changuitos/montage_fmczl_51.35_58.85.jpg,right,0,0,0,0,,,,,0,5,5,5,,,,,,,,,0,0,0,0,0,4,4,4,,,,,,,,,,,,,,,,,,367.11360512598185,367.59698118499364,None,1,367.11360512598185,None,,,,,,,,,,,,,,,,,,,,,,,,,,,,,,,,,,,,,,,,,,,,,,,,,,,,,,,,,,,,,violeS,001,d,2019_Nov_24_1946,Experimento,3.1.5,60.01735797305617,
8,14,14,999,0.5,0:10,3,Cyan,None,0,0,1,28:50,./completed_changuitos/montage_fmczl_51.35_58.85.jpg,right,0,0,0,0,,,,,0,5,5,5,,,,,,,,,0,0,0,0,0,5,5,5,,,,,,,,,,,,,,,,,,369.1142136059934,369.59833226699266,None,1,369.1142136059934,None,,,,,,,,,,,,,,,,,,,,,,,,,,,,,,,,,,,,,,,,,,,,,,,,,,,,,,,,,,,,,violeS,001,d,2019_Nov_24_1946,Experimento,3.1.5,60.01735797305617,
8,14,14,999,0.5,0:10,3,Blue,['space'],0,0,1,28:50,./completed_changuitos/montage_fmczl_51.35_58.85.jpg,right,0,0,0,0,,,,,0,5,5,5,,,,,,,,,0,0,0,0,0,6,6,6,,,,,,,,,,,,,,,,,,371.11549761900096,371.5987237079826,['return'],0,371.11549761900096,None,[0.9172245190129615],,,,,,,,,,,,,,,,,,,,,,,,,,,,,,,,,,,,,,,,,,,,,,,,,,,,,,,,,,,,violeS,001,d,2019_Nov_24_1946,Experimento,3.1.5,60.01735797305617,
8,14,14,999,0.5,0:10,3,Yellow,None,0,0,1,28:50,./completed_changuitos/montage_fmczl_51.35_58.85.jpg,right,0,0,0,0,,,,,0,5,5,5,,,,,,,,,0,0,0,0,0,7,7,7,,,,,,,,,,,,,,,,,,None,None,None,1,None,None,,,,,,,,,,,,,,,,,,,,,,,,,,,,,,,,,,,,,,,,,,,,,,,,,,,,,,,,,,,,,violeS,001,d,2019_Nov_24_1946,Experimento,3.1.5,60.01735797305617,
8,14,14,999,0.5,0:10,3,Cyan,None,0,0,1,28:50,./completed_changuitos/montage_fmczl_51.35_58.85.jpg,right,0,0,0,0,,,,,0,5,5,5,,,,,,,,,0,0,0,0,0,8,8,8,,,,,,,,,,,,,,,,,,None,None,None,1,None,None,,,,,,,,,,,,,,,,,,,,,,,,,,,,,,,,,,,,,,,,,,,,,,,,,,,,,,,,,,,,,violeS,001,d,2019_Nov_24_1946,Experimento,3.1.5,60.01735797305617,
8,14,14,999,0.5,0:10,3,Yellow,['space'],0,0,1,28:50,./completed_changuitos/montage_fmczl_51.35_58.85.jpg,right,0,0,0,0,,,,,0,5,5,5,,,,,,,,,0,0,0,0,0,9,9,9,,,,,,,,,,,,,,,,,,None,None,None,0,None,None,,,,,,,,,,,,,,,,,,,,,,,,,,,,,,,,,,,,,,,,,,,,,,,,,,,,,,,,,,,,,violeS,001,d,2019_Nov_24_1946,Experimento,3.1.5,60.01735797305617,
8,14,14,999,0.5,0:10,3,Magenta,None,0,0,1,28:50,./completed_changuitos/montage_fmczl_51.35_58.85.jpg,right,0,0,0,0,,,,,0,5,5,5,,,,,,,,,0,0,0,0,0,10,10,10,,,,,,,,,,,,,,,,,,None,None,None,1,None,None,,,,,,,,,,,,,,,,,,,,,,,,,,,,,,,,,,,,,,,,,,,,,,,,,,,,,,,,,,,,,violeS,001,d,2019_Nov_24_1946,Experimento,3.1.5,60.01735797305617,
8,14,14,999,0.5,0:10,3,Red,None,0,0,1,28:50,./completed_changuitos/montage_fmczl_51.35_58.85.jpg,right,0,0,0,0,,,,,0,5,5,5,,,,,,,,,0,0,0,0,0,11,11,11,,,,,,,,,,,,,,,,,,None,None,None,1,None,None,,,,,,,,,,,,,,,,,,,,,,,,,,,,,,,,,,,,,,,,,,,,,,,,,,,,,,,,,,,,,violeS,001,d,2019_Nov_24_1946,Experimento,3.1.5,60.01735797305617,
8,14,14,999,0.5,0:10,3,Magenta,['space'],0,0,1,28:50,./completed_changuitos/montage_fmczl_51.35_58.85.jpg,right,0,0,0,0,,,,,0,5,5,5,,,,,,,,,0,0,0,0,0,12,12,12,,,,,,,,,,,,,,,,,,None,None,None,0,None,None,,,,,,,,,,,,,,,,,,,,,,,,,,,,,,,,,,,,,,,,,,,,,,,,,,,,,,,,,,,,,violeS,001,d,2019_Nov_24_1946,Experimento,3.1.5,60.01735797305617,
8,14,14,999,0.5,0:10,3,Red,['space'],0,0,1,28:50,./completed_changuitos/montage_fmczl_51.35_58.85.jpg,right,0,0,0,0,,,,,0,5,5,5,,,,,,,,,0,0,0,0,0,13,13,13,,,,,,,,,,,,,,,,,,None,None,None,0,None,None,,,,,,,,,,,,,,,,,,,,,,,,,,,,,,,,,,,,,,,,,,,,,,,,,,,,,,,,,,,,,violeS,001,d,2019_Nov_24_1946,Experimento,3.1.5,60.01735797305617,
8,14,14,999,0.5,0:10,3,Yellow,None,0,0,1,28:50,./completed_changuitos/montage_fmczl_51.35_58.85.jpg,right,0,0,0,0,,,,,0,5,5,5,,,,,,,,,0,0,0,0,0,14,14,14,,,,,,,,,,,,,,,,,,None,None,None,1,None,None,,,,,,,,,,,,,,,,,,,,,,,,,,,,,,,,,,,,,,,,,,,,,,,,,,,,,,,,,,,,,violeS,001,d,2019_Nov_24_1946,Experimento,3.1.5,60.01735797305617,
8,14,14,999,0.5,0:10,3,Cyan,None,0,0,1,28:50,./completed_changuitos/montage_fmczl_51.35_58.85.jpg,right,0,0,0,0,,,,,0,5,5,5,,,,,,,,,0,0,0,0,0,15,15,15,,,,,,,,,,,,,,,,,,None,None,None,1,None,None,,,,,,,,,,,,,,,,,,,,,,,,,,,,,,,,,,,,,,,,,,,,,,,,,,,,,,,,,,,,,violeS,001,d,2019_Nov_24_1946,Experimento,3.1.5,60.01735797305617,
8,14,14,999,0.5,0:10,3,Green,None,0,0,1,28:50,./completed_changuitos/montage_fmczl_51.35_58.85.jpg,right,0,0,0,0,,,,,0,5,5,5,,,,,,,,,0,0,0,0,0,16,16,16,,,,,,,,,,,,,,,,,,None,None,None,1,None,None,,,,,,,,,,,,,,,,,,,,,,,,,,,,,,,,,,,,,,,,,,,,,,,,,,,,,,,,,,,,,violeS,001,d,2019_Nov_24_1946,Experimento,3.1.5,60.01735797305617,
8,14,14,999,0.5,0:10,3,White,None,0,0,1,28:50,./completed_changuitos/montage_fmczl_51.35_58.85.jpg,right,0,0,0,0,,,,,0,5,5,5,,,,,,,,,0,0,0,0,0,17,17,17,,,,,,,,,,,,,,,,,,None,None,None,1,None,None,,,,,,,,,,,,,,,,,,,,,,,,,,,,,,,,,,,,,,,,,,,,,,,,,,,,,,,,,,,,,violeS,001,d,2019_Nov_24_1946,Experimento,3.1.5,60.01735797305617,
8,14,14,999,0.5,0:10,3,Green,['space'],0,0,1,28:50,./completed_changuitos/montage_fmczl_51.35_58.85.jpg,right,0,0,0,0,,,,,0,5,5,5,,,,,,,,,0,0,0,0,0,18,18,18,,,,,,,,,,,,,,,,,,None,None,None,0,None,None,,,,,,,,,,,,,,,,,,,,,,,,,,,,,,,,,,,,,,,,,,,,,,,,,,,,,,,,,,,,,violeS,001,d,2019_Nov_24_1946,Experimento,3.1.5,60.01735797305617,
8,14,14,999,0.5,0:10,3,Red,None,0,0,1,28:50,./completed_changuitos/montage_fmczl_51.35_58.85.jpg,right,0,0,0,0,,,,,0,5,5,5,,,,,,,,,0,0,0,0,0,19,19,19,,,,,,,,,,,,,,,,,,None,None,None,1,None,None,,,,,,,,,,,,,,,,,,,,,,,,,,,,,,,,,,,,,,,,,,,,,,,,,,,,,,,,,,,,,violeS,001,d,2019_Nov_24_1946,Experimento,3.1.5,60.01735797305617,
8,14,14,999,0.5,0:10,3,Blue,None,0,0,1,28:50,./completed_changuitos/montage_fmczl_51.35_58.85.jpg,right,0,0,0,0,,,,,0,5,5,5,,,,,,,,,0,0,0,0,0,20,20,20,,,,,,,,,,,,,,,,,,None,None,None,1,None,None,,,,,,,,,,,,,,,,,,,,,,,,,,,,,,,,,,,,,,,,,,,,,,,,,,,,,,,,,,,,,violeS,001,d,2019_Nov_24_1946,Experimento,3.1.5,60.01735797305617,
8,14,14,999,0.5,0:10,3,Green,None,0,0,1,28:50,./completed_changuitos/montage_fmczl_51.35_58.85.jpg,right,0,0,0,0,,,,,0,5,5,5,,,,,,,,,0,0,0,0,0,21,21,21,,,,,,,,,,,,,,,,,,None,None,None,1,None,None,,,,,,,,,,,,,,,,,,,,,,,,,,,,,,,,,,,,,,,,,,,,,,,,,,,,,,,,,,,,,violeS,001,d,2019_Nov_24_1946,Experimento,3.1.5,60.01735797305617,
8,14,14,999,0.5,0:10,3,,,0,0,1,28:50,./completed_changuitos/montage_fmczl_51.35_58.85.jpg,right,0,0,0,0,,,,,0,5,5,5,,,,,,,,,0,0,0,0,,,,,,,,,,,,,,,,,,,,,,,,,,,,,373.50055650700233,None,left,0,1.2078312129888218,373.50055650700233,None,373.50055650700233,None,,,,,,,,,,,,,,,,,,,,,,,,,,,,,,,,,,,,,,,,,,,,,,,,,,,violeS,001,d,2019_Nov_24_1946,Experimento,3.1.5,60.01735797305617,
8,14,14,999,0.5,0:10,3,,,0,0,1,28:50,,,0,0,0,0,,,,,0,5,5,5,,,,,,,,,,,,,,,,,,,,,,,,,,,,,,,,,,,,,,,,,,,,,,,,,,,,,,,,,,,,,,,,,,,,,,,,,,,,,,,,,,,,,,,,,,,,,,,,,,,,violeS,001,d,2019_Nov_24_1946,Experimento,3.1.5,60.01735797305617,
8,14,14,999,0.5,0:10,3,,,0,1,0,19:50,./completed_changuitos/montage_azyyb_69.55_82.39.jpg,right,0,0,0,0,,,,,0,6,6,6,,,,,0,0,0,0,,,,,,,,,,,,,,,,,,,,,,,,,,,,,,,,,,,,,,,,,,375.00126197800273,375.96771695598727,375.96771695598727,383.9716557849897,383.9716557849897,397.9782313309843,right,1,0.9351780530123506,397.9782313309843,None,397.9782313309843,None,397.9782313309843,None,,,,,,,,,,,,,,,,,,,,,,,,,,,,,,,,,,,,violeS,001,d,2019_Nov_24_1946,Experimento,3.1.5,60.01735797305617,
8,14,14,999,0.5,0:10,3,,,0,1,0,19:50,,,0,0,0,0,,,,,0,6,6,6,,,,,,,,,,,,,,,,,,,,,,,,,,,,,,,,,,,,,,,,,,,,,,,,,,,,,,,,,,,,,,,,,,,,,,,,,,,,,,,,,,,,,,,,,,,,,,,,,,,,violeS,001,d,2019_Nov_24_1946,Experimento,3.1.5,60.01735797305617,
8,14,14,999,0.5,0:10,3,,,0,1,0,19:50,./completed_changuitos/montage_kxwcj_106.79_91.95.jpg,left,0,0,0,0,,,,,0,7,7,7,,,,,0,0,0,0,,,,,,,,,,,,,,,,,,,,,,,,,,,,,,,,,,,,,,,,,,399.26346888698754,400.26264150999486,400.26264150999486,408.2666932489956,408.2666932489956,422.2731947939901,right,0,1.7572484750126023,422.2731947939901,None,422.2731947939901,None,422.2731947939901,None,,,,,,,,,,,,,,,,,,,,,,,,,,,,,,,,,,,,violeS,001,d,2019_Nov_24_1946,Experimento,3.1.5,60.01735797305617,
8,14,14,999,0.5,0:10,3,,,0,1,0,19:50,,,0,0,0,0,,,,,0,7,7,7,,,,,,,,,,,,,,,,,,,,,,,,,,,,,,,,,,,,,,,,,,,,,,,,,,,,,,,,,,,,,,,,,,,,,,,,,,,,,,,,,,,,,,,,,,,,,,,,,,,,violeS,001,d,2019_Nov_24_1946,Experimento,3.1.5,60.01735797305617,
8,14,14,999,0.5,0:10,3,Yellow,None,0,0,1,15:50,./completed_changuitos/montage_ivujt_233.25_200.09.jpg,left,0,0,0,0,,,,,0,8,8,8,,,,,,,,,0,0,0,0,0,0,0,0,,,,,,,,,,,,,,424.25777447398286,425.2576051209762,425.2576051209762,None,433.29470031298115,433.77860712699476,None,1,433.29470031298115,None,,,,,,,,,,,,,,,,,,,,,,,,,,,,,,,,,,,,,,,,,,,,,,,,,,,,,,,,,,,,,violeS,001,d,2019_Nov_24_1946,Experimento,3.1.5,60.01735797305617,
8,14,14,999,0.5,0:10,3,White,['space'],0,0,1,15:50,./completed_changuitos/montage_ivujt_233.25_200.09.jpg,left,0,0,0,0,,,,,0,8,8,8,,,,,,,,,0,0,0,0,0,1,1,1,,,,,,,,,,,,,,,,,,435.29593259998364,435.7792002549977,None,0,435.29593259998364,None,,,,,,,,,,,,,,,,,,,,,,,,,,,,,,,,,,,,,,,,,,,,,,,,,,,,,,,,,,,,,violeS,001,d,2019_Nov_24_1946,Experimento,3.1.5,60.01735797305617,
8,14,14,999,0.5,0:10,3,Magenta,None,0,0,1,15:50,./completed_changuitos/montage_ivujt_233.25_200.09.jpg,left,0,0,0,0,,,,,0,8,8,8,,,,,,,,,0,0,0,0,0,2,2,2,,,,,,,,,,,,,,,,,,437.2965465049783,437.7805579569831,None,1,437.2965465049783,None,,,,,,,,,,,,,,,,,,,,,,,,,,,,,,,,,,,,,,,,,,,,,,,,,,,,,,,,,,,,,violeS,001,d,2019_Nov_24_1946,Experimento,3.1.5,60.01735797305617,
8,14,14,999,0.5,0:10,3,Cyan,None,0,0,1,15:50,./completed_changuitos/montage_ivujt_233.25_200.09.jpg,left,0,0,0,0,,,,,0,8,8,8,,,,,,,,,0,0,0,0,0,3,3,3,,,,,,,,,,,,,,,,,,439.29781786497915,439.781105912989,None,1,439.29781786497915,None,,,,,,,,,,,,,,,,,,,,,,,,,,,,,,,,,,,,,,,,,,,,,,,,,,,,,,,,,,,,,violeS,001,d,2019_Nov_24_1946,Experimento,3.1.5,60.01735797305617,
8,14,14,999,0.5,0:10,3,Blue,None,0,0,1,15:50,./completed_changuitos/montage_ivujt_233.25_200.09.jpg,left,0,0,0,0,,,,,0,8,8,8,,,,,,,,,0,0,0,0,0,4,4,4,,,,,,,,,,,,,,,,,,441.29850098097813,441.7824345169938,None,1,441.29850098097813,None,,,,,,,,,,,,,,,,,,,,,,,,,,,,,,,,,,,,,,,,,,,,,,,,,,,,,,,,,,,,,violeS,001,d,2019_Nov_24_1946,Experimento,3.1.5,60.01735797305617,
8,14,14,999,0.5,0:10,3,Magenta,None,0,0,1,15:50,./completed_changuitos/montage_ivujt_233.25_200.09.jpg,left,0,0,0,0,,,,,0,8,8,8,,,,,,,,,0,0,0,0,0,5,5,5,,,,,,,,,,,,,,,,,,443.29982797498815,443.7830015399959,['return'],0,443.29982797498815,None,[0.5689430159982294],,,,,,,,,,,,,,,,,,,,,,,,,,,,,,,,,,,,,,,,,,,,,,,,,,,,,,,,,,,,violeS,001,d,2019_Nov_24_1946,Experimento,3.1.5,60.01735797305617,
8,14,14,999,0.5,0:10,3,Blue,['space'],0,0,1,15:50,./completed_changuitos/montage_ivujt_233.25_200.09.jpg,left,0,0,0,0,,,,,0,8,8,8,,,,,,,,,0,0,0,0,0,6,6,6,,,,,,,,,,,,,,,,,,445.3003928909893,445.784329631977,None,0,445.3003928909893,None,,,,,,,,,,,,,,,,,,,,,,,,,,,,,,,,,,,,,,,,,,,,,,,,,,,,,,,,,,,,,violeS,001,d,2019_Nov_24_1946,Experimento,3.1.5,60.01735797305617,
8,14,14,999,0.5,0:10,3,Cyan,None,0,0,1,15:50,./completed_changuitos/montage_ivujt_233.25_200.09.jpg,left,0,0,0,0,,,,,0,8,8,8,,,,,,,,,0,0,0,0,0,7,7,7,,,,,,,,,,,,,,,,,,None,None,None,1,None,None,,,,,,,,,,,,,,,,,,,,,,,,,,,,,,,,,,,,,,,,,,,,,,,,,,,,,,,,,,,,,violeS,001,d,2019_Nov_24_1946,Experimento,3.1.5,60.01735797305617,
8,14,14,999,0.5,0:10,3,Yellow,None,0,0,1,15:50,./completed_changuitos/montage_ivujt_233.25_200.09.jpg,left,0,0,0,0,,,,,0,8,8,8,,,,,,,,,0,0,0,0,0,8,8,8,,,,,,,,,,,,,,,,,,None,None,None,1,None,None,,,,,,,,,,,,,,,,,,,,,,,,,,,,,,,,,,,,,,,,,,,,,,,,,,,,,,,,,,,,,violeS,001,d,2019_Nov_24_1946,Experimento,3.1.5,60.01735797305617,
8,14,14,999,0.5,0:10,3,Cyan,None,0,0,1,15:50,./completed_changuitos/montage_ivujt_233.25_200.09.jpg,left,0,0,0,0,,,,,0,8,8,8,,,,,,,,,0,0,0,0,0,9,9,9,,,,,,,,,,,,,,,,,,None,None,None,1,None,None,,,,,,,,,,,,,,,,,,,,,,,,,,,,,,,,,,,,,,,,,,,,,,,,,,,,,,,,,,,,,violeS,001,d,2019_Nov_24_1946,Experimento,3.1.5,60.01735797305617,
8,14,14,999,0.5,0:10,3,Blue,None,0,0,1,15:50,./completed_changuitos/montage_ivujt_233.25_200.09.jpg,left,0,0,0,0,,,,,0,8,8,8,,,,,,,,,0,0,0,0,0,10,10,10,,,,,,,,,,,,,,,,,,None,None,None,1,None,None,,,,,,,,,,,,,,,,,,,,,,,,,,,,,,,,,,,,,,,,,,,,,,,,,,,,,,,,,,,,,violeS,001,d,2019_Nov_24_1946,Experimento,3.1.5,60.01735797305617,
8,14,14,999,0.5,0:10,3,Cyan,['space'],0,0,1,15:50,./completed_changuitos/montage_ivujt_233.25_200.09.jpg,left,0,0,0,0,,,,,0,8,8,8,,,,,,,,,0,0,0,0,0,11,11,11,,,,,,,,,,,,,,,,,,None,None,None,0,None,None,,,,,,,,,,,,,,,,,,,,,,,,,,,,,,,,,,,,,,,,,,,,,,,,,,,,,,,,,,,,,violeS,001,d,2019_Nov_24_1946,Experimento,3.1.5,60.01735797305617,
8,14,14,999,0.5,0:10,3,Magenta,None,0,0,1,15:50,./completed_changuitos/montage_ivujt_233.25_200.09.jpg,left,0,0,0,0,,,,,0,8,8,8,,,,,,,,,0,0,0,0,0,12,12,12,,,,,,,,,,,,,,,,,,None,None,None,1,None,None,,,,,,,,,,,,,,,,,,,,,,,,,,,,,,,,,,,,,,,,,,,,,,,,,,,,,,,,,,,,,violeS,001,d,2019_Nov_24_1946,Experimento,3.1.5,60.01735797305617,
8,14,14,999,0.5,0:10,3,Red,None,0,0,1,15:50,./completed_changuitos/montage_ivujt_233.25_200.09.jpg,left,0,0,0,0,,,,,0,8,8,8,,,,,,,,,0,0,0,0,0,13,13,13,,,,,,,,,,,,,,,,,,None,None,None,1,None,None,,,,,,,,,,,,,,,,,,,,,,,,,,,,,,,,,,,,,,,,,,,,,,,,,,,,,,,,,,,,,violeS,001,d,2019_Nov_24_1946,Experimento,3.1.5,60.01735797305617,
8,14,14,999,0.5,0:10,3,Magenta,['space'],0,0,1,15:50,./completed_changuitos/montage_ivujt_233.25_200.09.jpg,left,0,0,0,0,,,,,0,8,8,8,,,,,,,,,0,0,0,0,0,14,14,14,,,,,,,,,,,,,,,,,,None,None,None,0,None,None,,,,,,,,,,,,,,,,,,,,,,,,,,,,,,,,,,,,,,,,,,,,,,,,,,,,,,,,,,,,,violeS,001,d,2019_Nov_24_1946,Experimento,3.1.5,60.01735797305617,
8,14,14,999,0.5,0:10,3,Green,None,0,0,1,15:50,./completed_changuitos/montage_ivujt_233.25_200.09.jpg,left,0,0,0,0,,,,,0,8,8,8,,,,,,,,,0,0,0,0,0,15,15,15,,,,,,,,,,,,,,,,,,None,None,None,1,None,None,,,,,,,,,,,,,,,,,,,,,,,,,,,,,,,,,,,,,,,,,,,,,,,,,,,,,,,,,,,,,violeS,001,d,2019_Nov_24_1946,Experimento,3.1.5,60.01735797305617,
8,14,14,999,0.5,0:10,3,Yellow,['space'],0,0,1,15:50,./completed_changuitos/montage_ivujt_233.25_200.09.jpg,left,0,0,0,0,,,,,0,8,8,8,,,,,,,,,0,0,0,0,0,16,16,16,,,,,,,,,,,,,,,,,,None,None,None,0,None,None,,,,,,,,,,,,,,,,,,,,,,,,,,,,,,,,,,,,,,,,,,,,,,,,,,,,,,,,,,,,,violeS,001,d,2019_Nov_24_1946,Experimento,3.1.5,60.01735797305617,
8,14,14,999,0.5,0:10,3,Blue,None,0,0,1,15:50,./completed_changuitos/montage_ivujt_233.25_200.09.jpg,left,0,0,0,0,,,,,0,8,8,8,,,,,,,,,0,0,0,0,0,17,17,17,,,,,,,,,,,,,,,,,,None,None,None,1,None,None,,,,,,,,,,,,,,,,,,,,,,,,,,,,,,,,,,,,,,,,,,,,,,,,,,,,,,,,,,,,,violeS,001,d,2019_Nov_24_1946,Experimento,3.1.5,60.01735797305617,
8,14,14,999,0.5,0:10,3,Cyan,None,0,0,1,15:50,./completed_changuitos/montage_ivujt_233.25_200.09.jpg,left,0,0,0,0,,,,,0,8,8,8,,,,,,,,,0,0,0,0,0,18,18,18,,,,,,,,,,,,,,,,,,None,None,None,1,None,None,,,,,,,,,,,,,,,,,,,,,,,,,,,,,,,,,,,,,,,,,,,,,,,,,,,,,,,,,,,,,violeS,001,d,2019_Nov_24_1946,Experimento,3.1.5,60.01735797305617,
8,14,14,999,0.5,0:10,3,Blue,['space'],0,0,1,15:50,./completed_changuitos/montage_ivujt_233.25_200.09.jpg,left,0,0,0,0,,,,,0,8,8,8,,,,,,,,,0,0,0,0,0,19,19,19,,,,,,,,,,,,,,,,,,None,None,None,0,None,None,,,,,,,,,,,,,,,,,,,,,,,,,,,,,,,,,,,,,,,,,,,,,,,,,,,,,,,,,,,,,violeS,001,d,2019_Nov_24_1946,Experimento,3.1.5,60.01735797305617,
8,14,14,999,0.5,0:10,3,Yellow,None,0,0,1,15:50,./completed_changuitos/montage_ivujt_233.25_200.09.jpg,left,0,0,0,0,,,,,0,8,8,8,,,,,,,,,0,0,0,0,0,20,20,20,,,,,,,,,,,,,,,,,,None,None,None,1,None,None,,,,,,,,,,,,,,,,,,,,,,,,,,,,,,,,,,,,,,,,,,,,,,,,,,,,,,,,,,,,,violeS,001,d,2019_Nov_24_1946,Experimento,3.1.5,60.01735797305617,
8,14,14,999,0.5,0:10,3,Cyan,None,0,0,1,15:50,./completed_changuitos/montage_ivujt_233.25_200.09.jpg,left,0,0,0,0,,,,,0,8,8,8,,,,,,,,,0,0,0,0,0,21,21,21,,,,,,,,,,,,,,,,,,None,None,None,1,None,None,,,,,,,,,,,,,,,,,,,,,,,,,,,,,,,,,,,,,,,,,,,,,,,,,,,,,,,,,,,,,violeS,001,d,2019_Nov_24_1946,Experimento,3.1.5,60.01735797305617,
8,14,14,999,0.5,0:10,3,Yellow,['space'],0,0,1,15:50,./completed_changuitos/montage_ivujt_233.25_200.09.jpg,left,0,0,0,0,,,,,0,8,8,8,,,,,,,,,0,0,0,0,0,22,22,22,,,,,,,,,,,,,,,,,,None,None,None,0,None,None,,,,,,,,,,,,,,,,,,,,,,,,,,,,,,,,,,,,,,,,,,,,,,,,,,,,,,,,,,,,,violeS,001,d,2019_Nov_24_1946,Experimento,3.1.5,60.01735797305617,
8,14,14,999,0.5,0:10,3,Magenta,None,0,0,1,15:50,./completed_changuitos/montage_ivujt_233.25_200.09.jpg,left,0,0,0,0,,,,,0,8,8,8,,,,,,,,,0,0,0,0,0,23,23,23,,,,,,,,,,,,,,,,,,None,None,None,1,None,None,,,,,,,,,,,,,,,,,,,,,,,,,,,,,,,,,,,,,,,,,,,,,,,,,,,,,,,,,,,,,violeS,001,d,2019_Nov_24_1946,Experimento,3.1.5,60.01735797305617,
8,14,14,999,0.5,0:10,3,Red,None,0,0,1,15:50,./completed_changuitos/montage_ivujt_233.25_200.09.jpg,left,0,0,0,0,,,,,0,8,8,8,,,,,,,,,0,0,0,0,0,24,24,24,,,,,,,,,,,,,,,,,,None,None,None,1,None,None,,,,,,,,,,,,,,,,,,,,,,,,,,,,,,,,,,,,,,,,,,,,,,,,,,,,,,,,,,,,,violeS,001,d,2019_Nov_24_1946,Experimento,3.1.5,60.01735797305617,
8,14,14,999,0.5,0:10,3,Magenta,['space'],0,0,1,15:50,./completed_changuitos/montage_ivujt_233.25_200.09.jpg,left,0,0,0,0,,,,,0,8,8,8,,,,,,,,,0,0,0,0,0,25,25,25,,,,,,,,,,,,,,,,,,None,None,None,0,None,None,,,,,,,,,,,,,,,,,,,,,,,,,,,,,,,,,,,,,,,,,,,,,,,,,,,,,,,,,,,,,violeS,001,d,2019_Nov_24_1946,Experimento,3.1.5,60.01735797305617,
8,14,14,999,0.5,0:10,3,Red,['space'],0,0,1,15:50,./completed_changuitos/montage_ivujt_233.25_200.09.jpg,left,0,0,0,0,,,,,0,8,8,8,,,,,,,,,0,0,0,0,0,26,26,26,,,,,,,,,,,,,,,,,,None,None,None,0,None,None,,,,,,,,,,,,,,,,,,,,,,,,,,,,,,,,,,,,,,,,,,,,,,,,,,,,,,,,,,,,,violeS,001,d,2019_Nov_24_1946,Experimento,3.1.5,60.01735797305617,
8,14,14,999,0.5,0:10,3,Yellow,None,0,0,1,15:50,./completed_changuitos/montage_ivujt_233.25_200.09.jpg,left,0,0,0,0,,,,,0,8,8,8,,,,,,,,,0,0,0,0,0,27,27,27,,,,,,,,,,,,,,,,,,None,None,None,1,None,None,,,,,,,,,,,,,,,,,,,,,,,,,,,,,,,,,,,,,,,,,,,,,,,,,,,,,,,,,,,,,violeS,001,d,2019_Nov_24_1946,Experimento,3.1.5,60.01735797305617,
8,14,14,999,0.5,0:10,3,Cyan,None,0,0,1,15:50,./completed_changuitos/montage_ivujt_233.25_200.09.jpg,left,0,0,0,0,,,,,0,8,8,8,,,,,,,,,0,0,0,0,0,28,28,28,,,,,,,,,,,,,,,,,,None,None,None,1,None,None,,,,,,,,,,,,,,,,,,,,,,,,,,,,,,,,,,,,,,,,,,,,,,,,,,,,,,,,,,,,,violeS,001,d,2019_Nov_24_1946,Experimento,3.1.5,60.01735797305617,
8,14,14,999,0.5,0:10,3,Green,None,0,0,1,15:50,./completed_changuitos/montage_ivujt_233.25_200.09.jpg,left,0,0,0,0,,,,,0,8,8,8,,,,,,,,,0,0,0,0,0,29,29,29,,,,,,,,,,,,,,,,,,None,None,None,1,None,None,,,,,,,,,,,,,,,,,,,,,,,,,,,,,,,,,,,,,,,,,,,,,,,,,,,,,,,,,,,,,violeS,001,d,2019_Nov_24_1946,Experimento,3.1.5,60.01735797305617,
8,14,14,999,0.5,0:10,3,White,None,0,0,1,15:50,./completed_changuitos/montage_ivujt_233.25_200.09.jpg,left,0,0,0,0,,,,,0,8,8,8,,,,,,,,,0,0,0,0,0,30,30,30,,,,,,,,,,,,,,,,,,None,None,None,1,None,None,,,,,,,,,,,,,,,,,,,,,,,,,,,,,,,,,,,,,,,,,,,,,,,,,,,,,,,,,,,,,violeS,001,d,2019_Nov_24_1946,Experimento,3.1.5,60.01735797305617,
8,14,14,999,0.5,0:10,3,Green,['space'],0,0,1,15:50,./completed_changuitos/montage_ivujt_233.25_200.09.jpg,left,0,0,0,0,,,,,0,8,8,8,,,,,,,,,0,0,0,0,0,31,31,31,,,,,,,,,,,,,,,,,,None,None,None,0,None,None,,,,,,,,,,,,,,,,,,,,,,,,,,,,,,,,,,,,,,,,,,,,,,,,,,,,,,,,,,,,,violeS,001,d,2019_Nov_24_1946,Experimento,3.1.5,60.01735797305617,
8,14,14,999,0.5,0:10,3,Red,None,0,0,1,15:50,./completed_changuitos/montage_ivujt_233.25_200.09.jpg,left,0,0,0,0,,,,,0,8,8,8,,,,,,,,,0,0,0,0,0,32,32,32,,,,,,,,,,,,,,,,,,None,None,None,1,None,None,,,,,,,,,,,,,,,,,,,,,,,,,,,,,,,,,,,,,,,,,,,,,,,,,,,,,,,,,,,,,violeS,001,d,2019_Nov_24_1946,Experimento,3.1.5,60.01735797305617,
8,14,14,999,0.5,0:10,3,Blue,None,0,0,1,15:50,./completed_changuitos/montage_ivujt_233.25_200.09.jpg,left,0,0,0,0,,,,,0,8,8,8,,,,,,,,,0,0,0,0,0,33,33,33,,,,,,,,,,,,,,,,,,None,None,None,1,None,None,,,,,,,,,,,,,,,,,,,,,,,,,,,,,,,,,,,,,,,,,,,,,,,,,,,,,,,,,,,,,violeS,001,d,2019_Nov_24_1946,Experimento,3.1.5,60.01735797305617,
8,14,14,999,0.5,0:10,3,Green,None,0,0,1,15:50,./completed_changuitos/montage_ivujt_233.25_200.09.jpg,left,0,0,0,0,,,,,0,8,8,8,,,,,,,,,0,0,0,0,0,34,34,34,,,,,,,,,,,,,,,,,,None,None,None,1,None,None,,,,,,,,,,,,,,,,,,,,,,,,,,,,,,,,,,,,,,,,,,,,,,,,,,,,,,,,,,,,,violeS,001,d,2019_Nov_24_1946,Experimento,3.1.5,60.01735797305617,
8,14,14,999,0.5,0:10,3,,,0,0,1,15:50,./completed_changuitos/montage_ivujt_233.25_200.09.jpg,left,0,0,0,0,,,,,0,8,8,8,,,,,,,,,0,0,0,0,,,,,,,,,,,,,,,,,,,,,,,,,,,,,447.86943846198847,None,right,0,1.304990339995129,447.86943846198847,None,447.86943846198847,None,,,,,,,,,,,,,,,,,,,,,,,,,,,,,,,,,,,,,,,,,,,,,,,,,,,violeS,001,d,2019_Nov_24_1946,Experimento,3.1.5,60.01735797305617,
8,14,14,999,0.5,0:10,3,,,0,0,1,15:50,,,0,0,0,0,,,,,0,8,8,8,,,,,,,,,,,,,,,,,,,,,,,,,,,,,,,,,,,,,,,,,,,,,,,,,,,,,,,,,,,,,,,,,,,,,,,,,,,,,,,,,,,,,,,,,,,,,,,,,,,,violeS,001,d,2019_Nov_24_1946,Experimento,3.1.5,60.01735797305617,
8,14,14,999,0.5,0:10,3,,,0,1,0,25:50,./completed_changuitos/montage_cnwoz_63.15_55.65.jpg,left,0,0,0,0,,,,,0,9,9,9,,,,,0,0,0,0,,,,,,,,,,,,,,,,,,,,,,,,,,,,,,,,,,,,,,,,,,449.4859333219938,450.26953539598617,450.26953539598617,458.27363336799317,458.27363336799317,472.2801209909958,left,1,0.9475941059936304,472.2801209909958,None,472.2801209909958,None,472.2801209909958,None,,,,,,,,,,,,,,,,,,,,,,,,,,,,,,,,,,,,violeS,001,d,2019_Nov_24_1946,Experimento,3.1.5,60.01735797305617,
8,14,14,999,0.5,0:10,3,,,0,1,0,25:50,,,0,0,0,0,,,,,0,9,9,9,,,,,,,,,,,,,,,,,,,,,,,,,,,,,,,,,,,,,,,,,,,,,,,,,,,,,,,,,,,,,,,,,,,,,,,,,,,,,,,,,,,,,,,,,,,,,,,,,,,,violeS,001,d,2019_Nov_24_1946,Experimento,3.1.5,60.01735797305617,
8,14,14,999,0.5,0:10,3,Magenta,None,0,0,1,20:50,./completed_changuitos/montage_zgjiw_78.65_92.85.jpg,right,0,0,0,0,,,,,0,10,10,10,,,,,,,,,0,0,0,0,0,0,0,0,,,,,,,,,,,,,,473.44810109600076,474.43092171498574,474.43092171498574,None,482.4680424509861,482.951986924978,None,1,482.4680424509861,None,,,,,,,,,,,,,,,,,,,,,,,,,,,,,,,,,,,,,,,,,,,,,,,,,,,,,,,,,,,,,violeS,001,d,2019_Nov_24_1946,Experimento,3.1.5,60.01735797305617,
8,14,14,999,0.5,0:10,3,Blue,['space'],0,0,1,20:50,./completed_changuitos/montage_zgjiw_78.65_92.85.jpg,right,0,0,0,0,,,,,0,10,10,10,,,,,,,,,0,0,0,0,0,1,1,1,,,,,,,,,,,,,,,,,,484.4692315439752,484.9525108730013,None,0,484.4692315439752,None,,,,,,,,,,,,,,,,,,,,,,,,,,,,,,,,,,,,,,,,,,,,,,,,,,,,,,,,,,,,,violeS,001,d,2019_Nov_24_1946,Experimento,3.1.5,60.01735797305617,
8,14,14,999,0.5,0:10,3,Cyan,None,0,0,1,20:50,./completed_changuitos/montage_zgjiw_78.65_92.85.jpg,right,0,0,0,0,,,,,0,10,10,10,,,,,,,,,0,0,0,0,0,2,2,2,,,,,,,,,,,,,,,,,,486.4699497029942,486.953787410981,None,1,486.4699497029942,None,,,,,,,,,,,,,,,,,,,,,,,,,,,,,,,,,,,,,,,,,,,,,,,,,,,,,,,,,,,,,violeS,001,d,2019_Nov_24_1946,Experimento,3.1.5,60.01735797305617,
8,14,14,999,0.5,0:10,3,Yellow,None,0,0,1,20:50,./completed_changuitos/montage_zgjiw_78.65_92.85.jpg,right,0,0,0,0,,,,,0,10,10,10,,,,,,,,,0,0,0,0,0,3,3,3,,,,,,,,,,,,,,,,,,488.4711335460015,488.95441440099967,None,1,488.4711335460015,None,,,,,,,,,,,,,,,,,,,,,,,,,,,,,,,,,,,,,,,,,,,,,,,,,,,,,,,,,,,,,violeS,001,d,2019_Nov_24_1946,Experimento,3.1.5,60.01735797305617,
8,14,14,999,0.5,0:10,3,Cyan,None,0,0,1,20:50,./completed_changuitos/montage_zgjiw_78.65_92.85.jpg,right,0,0,0,0,,,,,0,10,10,10,,,,,,,,,0,0,0,0,0,4,4,4,,,,,,,,,,,,,,,,,,490.4719602879777,490.9557411609858,['return'],0,490.4719602879777,None,[1.0635521969816182],,,,,,,,,,,,,,,,,,,,,,,,,,,,,,,,,,,,,,,,,,,,,,,,,,,,,,,,,,,,violeS,001,d,2019_Nov_24_1946,Experimento,3.1.5,60.01735797305617,
8,14,14,999,0.5,0:10,3,Blue,None,0,0,1,20:50,./completed_changuitos/montage_zgjiw_78.65_92.85.jpg,right,0,0,0,0,,,,,0,10,10,10,,,,,,,,,0,0,0,0,0,5,5,5,,,,,,,,,,,,,,,,,,492.4730322349933,492.9563460869831,None,1,492.4730322349933,None,,,,,,,,,,,,,,,,,,,,,,,,,,,,,,,,,,,,,,,,,,,,,,,,,,,,,,,,,,,,,violeS,001,d,2019_Nov_24_1946,Experimento,3.1.5,60.01735797305617,
8,14,14,999,0.5,0:10,3,Cyan,['space'],0,0,1,20:50,./completed_changuitos/montage_zgjiw_78.65_92.85.jpg,right,0,0,0,0,,,,,0,10,10,10,,,,,,,,,0,0,0,0,0,6,6,6,,,,,,,,,,,,,,,,,,494.4736443369766,494.9576267359953,['return'],0,494.4736443369766,None,[0.2960629040026106],,,,,,,,,,,,,,,,,,,,,,,,,,,,,,,,,,,,,,,,,,,,,,,,,,,,,,,,,,,,violeS,001,d,2019_Nov_24_1946,Experimento,3.1.5,60.01735797305617,
8,14,14,999,0.5,0:10,3,Magenta,None,0,0,1,20:50,./completed_changuitos/montage_zgjiw_78.65_92.85.jpg,right,0,0,0,0,,,,,0,10,10,10,,,,,,,,,0,0,0,0,0,7,7,7,,,,,,,,,,,,,,,,,,None,None,None,1,None,None,,,,,,,,,,,,,,,,,,,,,,,,,,,,,,,,,,,,,,,,,,,,,,,,,,,,,,,,,,,,,violeS,001,d,2019_Nov_24_1946,Experimento,3.1.5,60.01735797305617,
8,14,14,999,0.5,0:10,3,Red,None,0,0,1,20:50,./completed_changuitos/montage_zgjiw_78.65_92.85.jpg,right,0,0,0,0,,,,,0,10,10,10,,,,,,,,,0,0,0,0,0,8,8,8,,,,,,,,,,,,,,,,,,None,None,None,1,None,None,,,,,,,,,,,,,,,,,,,,,,,,,,,,,,,,,,,,,,,,,,,,,,,,,,,,,,,,,,,,,violeS,001,d,2019_Nov_24_1946,Experimento,3.1.5,60.01735797305617,
8,14,14,999,0.5,0:10,3,Magenta,['space'],0,0,1,20:50,./completed_changuitos/montage_zgjiw_78.65_92.85.jpg,right,0,0,0,0,,,,,0,10,10,10,,,,,,,,,0,0,0,0,0,9,9,9,,,,,,,,,,,,,,,,,,None,None,None,0,None,None,,,,,,,,,,,,,,,,,,,,,,,,,,,,,,,,,,,,,,,,,,,,,,,,,,,,,,,,,,,,,violeS,001,d,2019_Nov_24_1946,Experimento,3.1.5,60.01735797305617,
8,14,14,999,0.5,0:10,3,Green,None,0,0,1,20:50,./completed_changuitos/montage_zgjiw_78.65_92.85.jpg,right,0,0,0,0,,,,,0,10,10,10,,,,,,,,,0,0,0,0,0,10,10,10,,,,,,,,,,,,,,,,,,None,None,None,1,None,None,,,,,,,,,,,,,,,,,,,,,,,,,,,,,,,,,,,,,,,,,,,,,,,,,,,,,,,,,,,,,violeS,001,d,2019_Nov_24_1946,Experimento,3.1.5,60.01735797305617,
8,14,14,999,0.5,0:10,3,Yellow,['space'],0,0,1,20:50,./completed_changuitos/montage_zgjiw_78.65_92.85.jpg,right,0,0,0,0,,,,,0,10,10,10,,,,,,,,,0,0,0,0,0,11,11,11,,,,,,,,,,,,,,,,,,None,None,None,0,None,None,,,,,,,,,,,,,,,,,,,,,,,,,,,,,,,,,,,,,,,,,,,,,,,,,,,,,,,,,,,,,violeS,001,d,2019_Nov_24_1946,Experimento,3.1.5,60.01735797305617,
8,14,14,999,0.5,0:10,3,Blue,None,0,0,1,20:50,./completed_changuitos/montage_zgjiw_78.65_92.85.jpg,right,0,0,0,0,,,,,0,10,10,10,,,,,,,,,0,0,0,0,0,12,12,12,,,,,,,,,,,,,,,,,,None,None,None,1,None,None,,,,,,,,,,,,,,,,,,,,,,,,,,,,,,,,,,,,,,,,,,,,,,,,,,,,,,,,,,,,,violeS,001,d,2019_Nov_24_1946,Experimento,3.1.5,60.01735797305617,
8,14,14,999,0.5,0:10,3,Cyan,None,0,0,1,20:50,./completed_changuitos/montage_zgjiw_78.65_92.85.jpg,right,0,0,0,0,,,,,0,10,10,10,,,,,,,,,0,0,0,0,0,13,13,13,,,,,,,,,,,,,,,,,,None,None,None,1,None,None,,,,,,,,,,,,,,,,,,,,,,,,,,,,,,,,,,,,,,,,,,,,,,,,,,,,,,,,,,,,,violeS,001,d,2019_Nov_24_1946,Experimento,3.1.5,60.01735797305617,
8,14,14,999,0.5,0:10,3,Blue,['space'],0,0,1,20:50,./completed_changuitos/montage_zgjiw_78.65_92.85.jpg,right,0,0,0,0,,,,,0,10,10,10,,,,,,,,,0,0,0,0,0,14,14,14,,,,,,,,,,,,,,,,,,None,None,None,0,None,None,,,,,,,,,,,,,,,,,,,,,,,,,,,,,,,,,,,,,,,,,,,,,,,,,,,,,,,,,,,,,violeS,001,d,2019_Nov_24_1946,Experimento,3.1.5,60.01735797305617,
8,14,14,999,0.5,0:10,3,Yellow,None,0,0,1,20:50,./completed_changuitos/montage_zgjiw_78.65_92.85.jpg,right,0,0,0,0,,,,,0,10,10,10,,,,,,,,,0,0,0,0,0,15,15,15,,,,,,,,,,,,,,,,,,None,None,None,1,None,None,,,,,,,,,,,,,,,,,,,,,,,,,,,,,,,,,,,,,,,,,,,,,,,,,,,,,,,,,,,,,violeS,001,d,2019_Nov_24_1946,Experimento,3.1.5,60.01735797305617,
8,14,14,999,0.5,0:10,3,Cyan,None,0,0,1,20:50,./completed_changuitos/montage_zgjiw_78.65_92.85.jpg,right,0,0,0,0,,,,,0,10,10,10,,,,,,,,,0,0,0,0,0,16,16,16,,,,,,,,,,,,,,,,,,None,None,None,1,None,None,,,,,,,,,,,,,,,,,,,,,,,,,,,,,,,,,,,,,,,,,,,,,,,,,,,,,,,,,,,,,violeS,001,d,2019_Nov_24_1946,Experimento,3.1.5,60.01735797305617,
8,14,14,999,0.5,0:10,3,Yellow,['space'],0,0,1,20:50,./completed_changuitos/montage_zgjiw_78.65_92.85.jpg,right,0,0,0,0,,,,,0,10,10,10,,,,,,,,,0,0,0,0,0,17,17,17,,,,,,,,,,,,,,,,,,None,None,None,0,None,None,,,,,,,,,,,,,,,,,,,,,,,,,,,,,,,,,,,,,,,,,,,,,,,,,,,,,,,,,,,,,violeS,001,d,2019_Nov_24_1946,Experimento,3.1.5,60.01735797305617,
8,14,14,999,0.5,0:10,3,Magenta,None,0,0,1,20:50,./completed_changuitos/montage_zgjiw_78.65_92.85.jpg,right,0,0,0,0,,,,,0,10,10,10,,,,,,,,,0,0,0,0,0,18,18,18,,,,,,,,,,,,,,,,,,None,None,None,1,None,None,,,,,,,,,,,,,,,,,,,,,,,,,,,,,,,,,,,,,,,,,,,,,,,,,,,,,,,,,,,,,violeS,001,d,2019_Nov_24_1946,Experimento,3.1.5,60.01735797305617,
8,14,14,999,0.5,0:10,3,Red,None,0,0,1,20:50,./completed_changuitos/montage_zgjiw_78.65_92.85.jpg,right,0,0,0,0,,,,,0,10,10,10,,,,,,,,,0,0,0,0,0,19,19,19,,,,,,,,,,,,,,,,,,None,None,None,1,None,None,,,,,,,,,,,,,,,,,,,,,,,,,,,,,,,,,,,,,,,,,,,,,,,,,,,,,,,,,,,,,violeS,001,d,2019_Nov_24_1946,Experimento,3.1.5,60.01735797305617,
8,14,14,999,0.5,0:10,3,Magenta,['space'],0,0,1,20:50,./completed_changuitos/montage_zgjiw_78.65_92.85.jpg,right,0,0,0,0,,,,,0,10,10,10,,,,,,,,,0,0,0,0,0,20,20,20,,,,,,,,,,,,,,,,,,None,None,None,0,None,None,,,,,,,,,,,,,,,,,,,,,,,,,,,,,,,,,,,,,,,,,,,,,,,,,,,,,,,,,,,,,violeS,001,d,2019_Nov_24_1946,Experimento,3.1.5,60.01735797305617,
8,14,14,999,0.5,0:10,3,Red,['space'],0,0,1,20:50,./completed_changuitos/montage_zgjiw_78.65_92.85.jpg,right,0,0,0,0,,,,,0,10,10,10,,,,,,,,,0,0,0,0,0,21,21,21,,,,,,,,,,,,,,,,,,None,None,None,0,None,None,,,,,,,,,,,,,,,,,,,,,,,,,,,,,,,,,,,,,,,,,,,,,,,,,,,,,,,,,,,,,violeS,001,d,2019_Nov_24_1946,Experimento,3.1.5,60.01735797305617,
8,14,14,999,0.5,0:10,3,Yellow,None,0,0,1,20:50,./completed_changuitos/montage_zgjiw_78.65_92.85.jpg,right,0,0,0,0,,,,,0,10,10,10,,,,,,,,,0,0,0,0,0,22,22,22,,,,,,,,,,,,,,,,,,None,None,None,1,None,None,,,,,,,,,,,,,,,,,,,,,,,,,,,,,,,,,,,,,,,,,,,,,,,,,,,,,,,,,,,,,violeS,001,d,2019_Nov_24_1946,Experimento,3.1.5,60.01735797305617,
8,14,14,999,0.5,0:10,3,Cyan,None,0,0,1,20:50,./completed_changuitos/montage_zgjiw_78.65_92.85.jpg,right,0,0,0,0,,,,,0,10,10,10,,,,,,,,,0,0,0,0,0,23,23,23,,,,,,,,,,,,,,,,,,None,None,None,1,None,None,,,,,,,,,,,,,,,,,,,,,,,,,,,,,,,,,,,,,,,,,,,,,,,,,,,,,,,,,,,,,violeS,001,d,2019_Nov_24_1946,Experimento,3.1.5,60.01735797305617,
8,14,14,999,0.5,0:10,3,Green,None,0,0,1,20:50,./completed_changuitos/montage_zgjiw_78.65_92.85.jpg,right,0,0,0,0,,,,,0,10,10,10,,,,,,,,,0,0,0,0,0,24,24,24,,,,,,,,,,,,,,,,,,None,None,None,1,None,None,,,,,,,,,,,,,,,,,,,,,,,,,,,,,,,,,,,,,,,,,,,,,,,,,,,,,,,,,,,,,violeS,001,d,2019_Nov_24_1946,Experimento,3.1.5,60.01735797305617,
8,14,14,999,0.5,0:10,3,White,None,0,0,1,20:50,./completed_changuitos/montage_zgjiw_78.65_92.85.jpg,right,0,0,0,0,,,,,0,10,10,10,,,,,,,,,0,0,0,0,0,25,25,25,,,,,,,,,,,,,,,,,,None,None,None,1,None,None,,,,,,,,,,,,,,,,,,,,,,,,,,,,,,,,,,,,,,,,,,,,,,,,,,,,,,,,,,,,,violeS,001,d,2019_Nov_24_1946,Experimento,3.1.5,60.01735797305617,
8,14,14,999,0.5,0:10,3,Green,['space'],0,0,1,20:50,./completed_changuitos/montage_zgjiw_78.65_92.85.jpg,right,0,0,0,0,,,,,0,10,10,10,,,,,,,,,0,0,0,0,0,26,26,26,,,,,,,,,,,,,,,,,,None,None,None,0,None,None,,,,,,,,,,,,,,,,,,,,,,,,,,,,,,,,,,,,,,,,,,,,,,,,,,,,,,,,,,,,,violeS,001,d,2019_Nov_24_1946,Experimento,3.1.5,60.01735797305617,
8,14,14,999,0.5,0:10,3,Red,None,0,0,1,20:50,./completed_changuitos/montage_zgjiw_78.65_92.85.jpg,right,0,0,0,0,,,,,0,10,10,10,,,,,,,,,0,0,0,0,0,27,27,27,,,,,,,,,,,,,,,,,,None,None,None,1,None,None,,,,,,,,,,,,,,,,,,,,,,,,,,,,,,,,,,,,,,,,,,,,,,,,,,,,,,,,,,,,,violeS,001,d,2019_Nov_24_1946,Experimento,3.1.5,60.01735797305617,
8,14,14,999,0.5,0:10,3,Blue,None,0,0,1,20:50,./completed_changuitos/montage_zgjiw_78.65_92.85.jpg,right,0,0,0,0,,,,,0,10,10,10,,,,,,,,,0,0,0,0,0,28,28,28,,,,,,,,,,,,,,,,,,None,None,None,1,None,None,,,,,,,,,,,,,,,,,,,,,,,,,,,,,,,,,,,,,,,,,,,,,,,,,,,,,,,,,,,,,violeS,001,d,2019_Nov_24_1946,Experimento,3.1.5,60.01735797305617,
8,14,14,999,0.5,0:10,3,Green,None,0,0,1,20:50,./completed_changuitos/montage_zgjiw_78.65_92.85.jpg,right,0,0,0,0,,,,,0,10,10,10,,,,,,,,,0,0,0,0,0,29,29,29,,,,,,,,,,,,,,,,,,None,None,None,1,None,None,,,,,,,,,,,,,,,,,,,,,,,,,,,,,,,,,,,,,,,,,,,,,,,,,,,,,,,,,,,,,violeS,001,d,2019_Nov_24_1946,Experimento,3.1.5,60.01735797305617,
8,14,14,999,0.5,0:10,3,,,0,0,1,20:50,./completed_changuitos/montage_zgjiw_78.65_92.85.jpg,right,0,0,0,0,,,,,0,10,10,10,,,,,,,,,0,0,0,0,,,,,,,,,,,,,,,,,,,,,,,,,,,,,496.97559972599265,None,right,1,1.1077798629994504,496.97559972599265,None,496.97559972599265,None,,,,,,,,,,,,,,,,,,,,,,,,,,,,,,,,,,,,,,,,,,,,,,,,,,,violeS,001,d,2019_Nov_24_1946,Experimento,3.1.5,60.01735797305617,
8,14,14,999,0.5,0:10,3,,,0,0,1,20:50,,,0,0,0,0,,,,,0,10,10,10,,,,,,,,,,,,,,,,,,,,,,,,,,,,,,,,,,,,,,,,,,,,,,,,,,,,,,,,,,,,,,,,,,,,,,,,,,,,,,,,,,,,,,,,,,,,,,,,,,,,violeS,001,d,2019_Nov_24_1946,Experimento,3.1.5,60.01735797305617,
8,14,14,999,0.5,0:10,3,Red,None,0,0,1,28:50,./completed_changuitos/montage_vclhe_133.2_155.15.jpg,right,0,0,0,0,,,,,0,11,11,11,,,,,,,,,0,0,0,0,0,0,0,0,,,,,,,,,,,,,,498.29296883099596,499.0926495069871,499.0926495069871,None,507.12977354598115,507.6135827629769,None,1,507.12977354598115,None,,,,,,,,,,,,,,,,,,,,,,,,,,,,,,,,,,,,,,,,,,,,,,,,,,,,,,,,,,,,,violeS,001,d,2019_Nov_24_1946,Experimento,3.1.5,60.01735797305617,
8,14,14,999,0.5,0:10,3,Magenta,['space'],0,0,1,28:50,./completed_changuitos/montage_vclhe_133.2_155.15.jpg,right,0,0,0,0,,,,,0,11,11,11,,,,,,,,,0,0,0,0,0,1,1,1,,,,,,,,,,,,,,,,,,509.1309248759935,509.6142201679759,None,0,509.1309248759935,None,,,,,,,,,,,,,,,,,,,,,,,,,,,,,,,,,,,,,,,,,,,,,,,,,,,,,,,,,,,,,violeS,001,d,2019_Nov_24_1946,Experimento,3.1.5,60.01735797305617,
8,14,14,999,0.5,0:10,3,Green,None,0,0,1,28:50,./completed_changuitos/montage_vclhe_133.2_155.15.jpg,right,0,0,0,0,,,,,0,11,11,11,,,,,,,,,0,0,0,0,0,2,2,2,,,,,,,,,,,,,,,,,,511.1315338059794,511.61548435597797,None,1,511.1315338059794,None,,,,,,,,,,,,,,,,,,,,,,,,,,,,,,,,,,,,,,,,,,,,,,,,,,,,,,,,,,,,,violeS,001,d,2019_Nov_24_1946,Experimento,3.1.5,60.01735797305617,
8,14,14,999,0.5,0:10,3,Yellow,['space'],0,0,1,28:50,./completed_changuitos/montage_vclhe_133.2_155.15.jpg,right,0,0,0,0,,,,,0,11,11,11,,,,,,,,,0,0,0,0,0,3,3,3,,,,,,,,,,,,,,,,,,513.1329531389929,513.616102355998,None,0,513.1329531389929,None,,,,,,,,,,,,,,,,,,,,,,,,,,,,,,,,,,,,,,,,,,,,,,,,,,,,,,,,,,,,,violeS,001,d,2019_Nov_24_1946,Experimento,3.1.5,60.01735797305617,
8,14,14,999,0.5,0:10,3,Blue,None,0,0,1,28:50,./completed_changuitos/montage_vclhe_133.2_155.15.jpg,right,0,0,0,0,,,,,0,11,11,11,,,,,,,,,0,0,0,0,0,4,4,4,,,,,,,,,,,,,,,,,,515.1334369439865,515.6174400390009,None,1,515.1334369439865,None,,,,,,,,,,,,,,,,,,,,,,,,,,,,,,,,,,,,,,,,,,,,,,,,,,,,,,,,,,,,,violeS,001,d,2019_Nov_24_1946,Experimento,3.1.5,60.01735797305617,
8,14,14,999,0.5,0:10,3,Cyan,None,0,0,1,28:50,./completed_changuitos/montage_vclhe_133.2_155.15.jpg,right,0,0,0,0,,,,,0,11,11,11,,,,,,,,,0,0,0,0,0,5,5,5,,,,,,,,,,,,,,,,,,517.1347199599841,517.6179999799933,None,1,517.1347199599841,None,,,,,,,,,,,,,,,,,,,,,,,,,,,,,,,,,,,,,,,,,,,,,,,,,,,,,,,,,,,,,violeS,001,d,2019_Nov_24_1946,Experimento,3.1.5,60.01735797305617,
8,14,14,999,0.5,0:10,3,Blue,['space'],0,0,1,28:50,./completed_changuitos/montage_vclhe_133.2_155.15.jpg,right,0,0,0,0,,,,,0,11,11,11,,,,,,,,,0,0,0,0,0,6,6,6,,,,,,,,,,,,,,,,,,519.135331759986,519.6192762559804,None,0,519.135331759986,None,,,,,,,,,,,,,,,,,,,,,,,,,,,,,,,,,,,,,,,,,,,,,,,,,,,,,,,,,,,,,violeS,001,d,2019_Nov_24_1946,Experimento,3.1.5,60.01735797305617,
8,14,14,999,0.5,0:10,3,Yellow,None,0,0,1,28:50,./completed_changuitos/montage_vclhe_133.2_155.15.jpg,right,0,0,0,0,,,,,0,11,11,11,,,,,,,,,0,0,0,0,0,7,7,7,,,,,,,,,,,,,,,,,,None,None,None,1,None,None,,,,,,,,,,,,,,,,,,,,,,,,,,,,,,,,,,,,,,,,,,,,,,,,,,,,,,,,,,,,,violeS,001,d,2019_Nov_24_1946,Experimento,3.1.5,60.01735797305617,
8,14,14,999,0.5,0:10,3,Cyan,None,0,0,1,28:50,./completed_changuitos/montage_vclhe_133.2_155.15.jpg,right,0,0,0,0,,,,,0,11,11,11,,,,,,,,,0,0,0,0,0,8,8,8,,,,,,,,,,,,,,,,,,None,None,None,1,None,None,,,,,,,,,,,,,,,,,,,,,,,,,,,,,,,,,,,,,,,,,,,,,,,,,,,,,,,,,,,,,violeS,001,d,2019_Nov_24_1946,Experimento,3.1.5,60.01735797305617,
8,14,14,999,0.5,0:10,3,Yellow,['space'],0,0,1,28:50,./completed_changuitos/montage_vclhe_133.2_155.15.jpg,right,0,0,0,0,,,,,0,11,11,11,,,,,,,,,0,0,0,0,0,9,9,9,,,,,,,,,,,,,,,,,,None,None,None,0,None,None,,,,,,,,,,,,,,,,,,,,,,,,,,,,,,,,,,,,,,,,,,,,,,,,,,,,,,,,,,,,,violeS,001,d,2019_Nov_24_1946,Experimento,3.1.5,60.01735797305617,
8,14,14,999,0.5,0:10,3,Magenta,None,0,0,1,28:50,./completed_changuitos/montage_vclhe_133.2_155.15.jpg,right,0,0,0,0,,,,,0,11,11,11,,,,,,,,,0,0,0,0,0,10,10,10,,,,,,,,,,,,,,,,,,None,None,None,1,None,None,,,,,,,,,,,,,,,,,,,,,,,,,,,,,,,,,,,,,,,,,,,,,,,,,,,,,,,,,,,,,violeS,001,d,2019_Nov_24_1946,Experimento,3.1.5,60.01735797305617,
8,14,14,999,0.5,0:10,3,Red,None,0,0,1,28:50,./completed_changuitos/montage_vclhe_133.2_155.15.jpg,right,0,0,0,0,,,,,0,11,11,11,,,,,,,,,0,0,0,0,0,11,11,11,,,,,,,,,,,,,,,,,,None,None,None,1,None,None,,,,,,,,,,,,,,,,,,,,,,,,,,,,,,,,,,,,,,,,,,,,,,,,,,,,,,,,,,,,,violeS,001,d,2019_Nov_24_1946,Experimento,3.1.5,60.01735797305617,
8,14,14,999,0.5,0:10,3,Magenta,['space'],0,0,1,28:50,./completed_changuitos/montage_vclhe_133.2_155.15.jpg,right,0,0,0,0,,,,,0,11,11,11,,,,,,,,,0,0,0,0,0,12,12,12,,,,,,,,,,,,,,,,,,None,None,None,0,None,None,,,,,,,,,,,,,,,,,,,,,,,,,,,,,,,,,,,,,,,,,,,,,,,,,,,,,,,,,,,,,violeS,001,d,2019_Nov_24_1946,Experimento,3.1.5,60.01735797305617,
8,14,14,999,0.5,0:10,3,Red,['space'],0,0,1,28:50,./completed_changuitos/montage_vclhe_133.2_155.15.jpg,right,0,0,0,0,,,,,0,11,11,11,,,,,,,,,0,0,0,0,0,13,13,13,,,,,,,,,,,,,,,,,,None,None,None,0,None,None,,,,,,,,,,,,,,,,,,,,,,,,,,,,,,,,,,,,,,,,,,,,,,,,,,,,,,,,,,,,,violeS,001,d,2019_Nov_24_1946,Experimento,3.1.5,60.01735797305617,
8,14,14,999,0.5,0:10,3,Yellow,None,0,0,1,28:50,./completed_changuitos/montage_vclhe_133.2_155.15.jpg,right,0,0,0,0,,,,,0,11,11,11,,,,,,,,,0,0,0,0,0,14,14,14,,,,,,,,,,,,,,,,,,None,None,None,1,None,None,,,,,,,,,,,,,,,,,,,,,,,,,,,,,,,,,,,,,,,,,,,,,,,,,,,,,,,,,,,,,violeS,001,d,2019_Nov_24_1946,Experimento,3.1.5,60.01735797305617,
8,14,14,999,0.5,0:10,3,Cyan,None,0,0,1,28:50,./completed_changuitos/montage_vclhe_133.2_155.15.jpg,right,0,0,0,0,,,,,0,11,11,11,,,,,,,,,0,0,0,0,0,15,15,15,,,,,,,,,,,,,,,,,,None,None,None,1,None,None,,,,,,,,,,,,,,,,,,,,,,,,,,,,,,,,,,,,,,,,,,,,,,,,,,,,,,,,,,,,,violeS,001,d,2019_Nov_24_1946,Experimento,3.1.5,60.01735797305617,
8,14,14,999,0.5,0:10,3,Green,None,0,0,1,28:50,./completed_changuitos/montage_vclhe_133.2_155.15.jpg,right,0,0,0,0,,,,,0,11,11,11,,,,,,,,,0,0,0,0,0,16,16,16,,,,,,,,,,,,,,,,,,None,None,None,1,None,None,,,,,,,,,,,,,,,,,,,,,,,,,,,,,,,,,,,,,,,,,,,,,,,,,,,,,,,,,,,,,violeS,001,d,2019_Nov_24_1946,Experimento,3.1.5,60.01735797305617,
8,14,14,999,0.5,0:10,3,White,None,0,0,1,28:50,./completed_changuitos/montage_vclhe_133.2_155.15.jpg,right,0,0,0,0,,,,,0,11,11,11,,,,,,,,,0,0,0,0,0,17,17,17,,,,,,,,,,,,,,,,,,None,None,None,1,None,None,,,,,,,,,,,,,,,,,,,,,,,,,,,,,,,,,,,,,,,,,,,,,,,,,,,,,,,,,,,,,violeS,001,d,2019_Nov_24_1946,Experimento,3.1.5,60.01735797305617,
8,14,14,999,0.5,0:10,3,Green,['space'],0,0,1,28:50,./completed_changuitos/montage_vclhe_133.2_155.15.jpg,right,0,0,0,0,,,,,0,11,11,11,,,,,,,,,0,0,0,0,0,18,18,18,,,,,,,,,,,,,,,,,,None,None,None,0,None,None,,,,,,,,,,,,,,,,,,,,,,,,,,,,,,,,,,,,,,,,,,,,,,,,,,,,,,,,,,,,,violeS,001,d,2019_Nov_24_1946,Experimento,3.1.5,60.01735797305617,
8,14,14,999,0.5,0:10,3,Red,None,0,0,1,28:50,./completed_changuitos/montage_vclhe_133.2_155.15.jpg,right,0,0,0,0,,,,,0,11,11,11,,,,,,,,,0,0,0,0,0,19,19,19,,,,,,,,,,,,,,,,,,None,None,None,1,None,None,,,,,,,,,,,,,,,,,,,,,,,,,,,,,,,,,,,,,,,,,,,,,,,,,,,,,,,,,,,,,violeS,001,d,2019_Nov_24_1946,Experimento,3.1.5,60.01735797305617,
8,14,14,999,0.5,0:10,3,Blue,None,0,0,1,28:50,./completed_changuitos/montage_vclhe_133.2_155.15.jpg,right,0,0,0,0,,,,,0,11,11,11,,,,,,,,,0,0,0,0,0,20,20,20,,,,,,,,,,,,,,,,,,None,None,None,1,None,None,,,,,,,,,,,,,,,,,,,,,,,,,,,,,,,,,,,,,,,,,,,,,,,,,,,,,,,,,,,,,violeS,001,d,2019_Nov_24_1946,Experimento,3.1.5,60.01735797305617,
8,14,14,999,0.5,0:10,3,Green,None,0,0,1,28:50,./completed_changuitos/montage_vclhe_133.2_155.15.jpg,right,0,0,0,0,,,,,0,11,11,11,,,,,,,,,0,0,0,0,0,21,21,21,,,,,,,,,,,,,,,,,,None,None,None,1,None,None,,,,,,,,,,,,,,,,,,,,,,,,,,,,,,,,,,,,,,,,,,,,,,,,,,,,,,,,,,,,,violeS,001,d,2019_Nov_24_1946,Experimento,3.1.5,60.01735797305617,
8,14,14,999,0.5,0:10,3,,,0,0,1,28:50,./completed_changuitos/montage_vclhe_133.2_155.15.jpg,right,0,0,0,0,,,,,0,11,11,11,,,,,,,,,0,0,0,0,,,,,,,,,,,,,,,,,,,,,,,,,,,,,521.4708239019965,None,right,1,3.259885690989904,521.4708239019965,None,521.4708239019965,524.3548119899933,,,,,,,,,,,,,,,,,,,,,,,,,,,,,,,,,,,,,,,,,,,,,,,,,,,violeS,001,d,2019_Nov_24_1946,Experimento,3.1.5,60.01735797305617,
8,14,14,999,0.5,0:10,3,,,0,0,1,28:50,,,0,0,0,0,,,,,0,11,11,11,,,,,,,,,,,,,,,,,,,,,,,,,,,,,,,,,,,,,,,,,,,,,,,,,,,,,,,,,,,,,,,,,,,,,,,,,,,,,,,,,,,,,,,,,,,,,,,,,,,,violeS,001,d,2019_Nov_24_1946,Experimento,3.1.5,60.01735797305617,
8,14,14,999,0.5,0:10,3,,,1,0,0,30:50,./completed_changuitos/montage_tgzqm_173.4_201.05.jpg,right,0,0,0,0,,,,,0,12,12,12,0,0,0,0,,,,,,,,,,,,,,,,,,,,,,,,,,,,,,,,,,,,,,,,,,,,,,,,,,,,,,,,,,,,,525.2882566819899,526.1722725979926,526.1722725979926,534.1761810949829,right,1,0.8010785480146296,534.1761810949829,None,534.1761810949829,None,534.1761810949829,None,,,,,,,,,,,,,,,,,,,,,,,violeS,001,d,2019_Nov_24_1946,Experimento,3.1.5,60.01735797305617,
8,14,14,999,0.5,0:10,3,,,1,0,0,30:50,,,0,0,0,0,,,,,0,12,12,12,,,,,,,,,,,,,,,,,,,,,,,,,,,,,,,,,,,,,,,,,,,,,,,,,,,,,,,,,,,,,,,,,,,,,,,,,,,,,,,,,,,,,,,,,,,,,,,,,,,,violeS,001,d,2019_Nov_24_1946,Experimento,3.1.5,60.01735797305617,
8,14,14,999,0.5,0:10,3,,,1,0,0,32:50,./completed_changuitos/montage_lnays_125.19_110.1.jpg,left,0,0,0,0,,,,,0,13,13,13,0,0,0,0,,,,,,,,,,,,,,,,,,,,,,,,,,,,,,,,,,,,,,,,,,,,,,,,,,,,,,,,,,,,,535.5934888809861,536.47697061699,536.47697061699,544.4807403529994,left,1,0.8574359319754876,544.4807403529994,None,544.4807403529994,None,544.4807403529994,None,,,,,,,,,,,,,,,,,,,,,,,violeS,001,d,2019_Nov_24_1946,Experimento,3.1.5,60.01735797305617,
8,14,14,999,0.5,0:10,3,,,1,0,0,32:50,,,0,0,0,0,,,,,0,13,13,13,,,,,,,,,,,,,,,,,,,,,,,,,,,,,,,,,,,,,,,,,,,,,,,,,,,,,,,,,,,,,,,,,,,,,,,,,,,,,,,,,,,,,,,,,,,,,,,,,,,,violeS,001,d,2019_Nov_24_1946,Experimento,3.1.5,60.01735797305617,
8,14,14,999,0.5,0:10,3,,,1,0,0,34:50,./completed_changuitos/montage_fgvro_157.29_179.75.jpg,right,0,0,0,0,,,,,0,14,14,14,0,0,0,0,,,,,,,,,,,,,,,,,,,,,,,,,,,,,,,,,,,,,,,,,,,,,,,,,,,,,,,,,,,,,545.9484605249891,547.1653604089806,547.1653604089806,555.1691534529964,left,0,0.6542791840038262,555.1691534529964,None,555.1691534529964,None,555.1691534529964,None,,,,,,,,,,,,,,,,,,,,,,,violeS,001,d,2019_Nov_24_1946,Experimento,3.1.5,60.01735797305617,
8,14,14,999,0.5,0:10,3,,,1,0,0,34:50,,,0,0,0,0,,,,,0,14,14,14,,,,,,,,,,,,,,,,,,,,,,,,,,,,,,,,,,,,,,,,,,,,,,,,,,,,,,,,,,,,,,,,,,,,,,,,,,,,,,,,,,,,,,,,,,,,,,,,,,,,violeS,001,d,2019_Nov_24_1946,Experimento,3.1.5,60.01735797305617,
8,14,14,999,0.5,0:10,3,,,1,0,0,30:50,./completed_changuitos/montage_gttzs_46.0_39.59.jpg,left,0,0,0,0,,,,,0,15,15,15,0,0,0,0,,,,,,,,,,,,,,,,,,,,,,,,,,,,,,,,,,,,,,,,,,,,,,,,,,,,,,,,,,,,,556.4530297649908,557.2534914219868,557.2534914219868,565.2573431229976,left,1,0.913528878998477,565.2573431229976,None,565.2573431229976,None,565.2573431229976,None,,,,,,,,,,,,,,,,,,,,,,,violeS,001,d,2019_Nov_24_1946,Experimento,3.1.5,60.01735797305617,
8,14,14,999,0.5,0:10,3,,,1,0,0,30:50,,,0,0,0,0,,,,,0,15,15,15,,,,,,,,,,,,,,,,,,,,,,,,,,,,,,,,,,,,,,,,,,,,,,,,,,,,,,,,,,,,,,,,,,,,,,,,,,,,,,,,,,,,,,,,,,,,,,,,,,,,violeS,001,d,2019_Nov_24_1946,Experimento,3.1.5,60.01735797305617,
8,14,14,999,0.5,0:10,3,,,1,0,0,32:50,./completed_changuitos/montage_wjxoa_266.35_309.25.jpg,right,0,0,0,0,,,,,0,16,16,16,0,0,0,0,,,,,,,,,,,,,,,,,,,,,,,,,,,,,,,,,,,,,,,,,,,,,,,,,,,,,,,,,,,,,566.7745883579773,567.5750580279855,567.5750580279855,575.5788159339863,right,1,0.7749641610134859,575.5788159339863,None,575.5788159339863,None,575.5788159339863,None,,,,,,,,,,,,,,,,,,,,,,,violeS,001,d,2019_Nov_24_1946,Experimento,3.1.5,60.01735797305617,
8,14,14,999,0.5,0:10,3,,,1,0,0,32:50,,,0,0,0,0,,,,,0,16,16,16,,,,,,,,,,,,,,,,,,,,,,,,,,,,,,,,,,,,,,,,,,,,,,,,,,,,,,,,,,,,,,,,,,,,,,,,,,,,,,,,,,,,,,,,,,,,,,,,,,,,violeS,001,d,2019_Nov_24_1946,Experimento,3.1.5,60.01735797305617,
8,14,14,999,0.5,0:10,3,,,1,0,0,34:50,./completed_changuitos/montage_qcoxb_55.65_48.69.jpg,left,0,0,0,0,,,,,0,17,17,17,0,0,0,0,,,,,,,,,,,,,,,,,,,,,,,,,,,,,,,,,,,,,,,,,,,,,,,,,,,,,,,,,,,,,576.9630862639751,577.8967272939917,577.8967272939917,585.9007129699748,right,0,0.3407100200129207,585.9007129699748,None,585.9007129699748,None,585.9007129699748,None,,,,,,,,,,,,,,,,,,,,,,,violeS,001,d,2019_Nov_24_1946,Experimento,3.1.5,60.01735797305617,
8,14,14,999,0.5,0:10,3,,,1,0,0,34:50,,,0,0,0,0,,,,,0,17,17,17,,,,,,,,,,,,,,,,,,,,,,,,,,,,,,,,,,,,,,,,,,,,,,,,,,,,,,,,,,,,,,,,,,,,,,,,,,,,,,,,,,,,,,,,,,,,,,,,,,,,violeS,001,d,2019_Nov_24_1946,Experimento,3.1.5,60.01735797305617,
8,14,14,999,0.5,0:10,3,,,,,,,,,0,0,0,0,,,,,,,,,,,,,,,,,,,,,,,,,,,,,,,,,,,,,,,,,,,,,,,,,,,,,,,,,,,,,,,,,,,,,,,,,,,,,,,,,,,,,,586.3346513430006,588.7183519929822,2,16.21479938001721,588.7183519929822,None,588.7183519929822,None,c,15.858081060985569,604.9928028279974,None,604.9928028279974,None,604.9928028279974,None,620.9005744259921,None,1,3.8699320620216895,620.9005744259921,None,violeS,001,d,2019_Nov_24_1946,Experimento,3.1.5,60.01735797305617,
