changuito_time_to_show,time_to_think,time_to_play,total_items,nback_stimulus_time,nback_training,time_to_show_tiny_stimulus,colourtest,corresp,inmediato,consciente,inconsciente,nback_slice,imagen,correcta,trials_5.thisRepN,trials_5.thisTrialN,trials_5.thisN,trials_5.thisIndex,nback_train.thisRepN,nback_train.thisTrialN,nback_train.thisN,nback_train.thisIndex,treatment_order.thisRepN,treatment_order.thisTrialN,treatment_order.thisN,treatment_order.thisIndex,trials.thisRepN,trials.thisTrialN,trials.thisN,trials.thisIndex,trials_2.thisRepN,trials_2.thisTrialN,trials_2.thisN,trials_2.thisIndex,trials_3.thisRepN,trials_3.thisTrialN,trials_3.thisN,trials_3.thisIndex,trials_4.thisRepN,trials_4.thisTrialN,trials_4.thisN,trials_4.thisIndex,Presentacion.started,Presentacion.stopped,Juego.started,Juego.stopped,image_6.started,image_6.stopped,polygon.started,polygon.stopped,nback_train_resp.keys,nback_train_resp.corr,nback_train_resp.started,nback_train_resp.stopped,nback_train_resp.rt,hola.started,hola.stopped,image_2.started,image_2.stopped,tiempo_para_pensar.started,tiempo_para_pensar.stopped,respuesta_consciente.keys,respuesta_consciente.corr,respuesta_consciente.rt,respuesta_consciente.started,respuesta_consciente.stopped,cual_es_la_mas_barata.started,cual_es_la_mas_barata.stopped,image_4.started,image_4.stopped,holi.started,holi.stopped,image_3.started,image_3.stopped,polygon_2.started,polygon_2.stopped,nback_train_resp_2.keys,nback_train_resp_2.corr,nback_train_resp_2.started,nback_train_resp_2.stopped,nback_train_resp_2.rt,text_2.started,text_2.stopped,key_resp.keys,key_resp.corr,key_resp.rt,key_resp.started,key_resp.stopped,image_5.started,image_5.stopped,text.started,text.stopped,image.started,image.stopped,respuesta_inmediato.keys,respuesta_inmediato.corr,respuesta_inmediato.rt,respuesta_inmediato.started,respuesta_inmediato.stopped,pregunta_cual_es_el_mas_barato.started,pregunta_cual_es_el_mas_barato.stopped,short_stim1.started,short_stim1.stopped,gracias.started,gracias.stopped,respuesta1.keys,respuesta1.rt,respuesta1.started,respuesta1.stopped,pregunta1.started,pregunta1.stopped,respuesta3bis_3.keys,respuesta3bis_3.rt,respuesta3bis_3.started,respuesta3bis_3.stopped,pregunta3_3.started,pregunta3_3.stopped,productoCon3RANGOSabc_3.started,productoCon3RANGOSabc_3.stopped,text_3.started,text_3.stopped,key_resp_2.keys,key_resp_2.rt,key_resp_2.started,key_resp_2.stopped,participant,session,group,date,expName,psychopyVersion,frameRate,
8,14,14,999,0.5,0:10,3,White,None,,,,,,,0,0,0,0,0,0,0,0,,,,,,,,,,,,,,,,,,,,,14.887624730996322,None,32.73881773500034,None,32.73881773500034,None,66.17006750300061,66.67130045999511,None,1,66.17006750300061,None,,,,,,,,,,,,,,,,,,,,,,,,,,,,,,,,,,,,,,,,,,,,,,,,,,,,,,,,,,,,,,,,,,,,,,,,delfinaD,001,a,2019_Oct_11_2010,Experimento,3.2.3,60.19450711245185,
8,14,14,999,0.5,0:10,3,Red,None,,,,,,,0,0,0,0,0,1,1,1,,,,,,,,,,,,,,,,,,,,,,,,,,,68.17248970599758,68.6722037590007,None,1,68.17248970599758,68.17248970599758,,,,,,,,,,,,,,,,,,,,,,,,,,,,,,,,,,,,,,,,,,,,,,,,,,,,,,,,,,,,,,,,,,,,,,,,delfinaD,001,a,2019_Oct_11_2010,Experimento,3.2.3,60.19450711245185,
8,14,14,999,0.5,0:10,3,Magenta,None,,,,,,,0,0,0,0,0,2,2,2,,,,,,,,,,,,,,,,,,,,,,,,,,,70.18907330499496,70.6888085229948,None,1,70.18907330499496,70.18907330499496,,,,,,,,,,,,,,,,,,,,,,,,,,,,,,,,,,,,,,,,,,,,,,,,,,,,,,,,,,,,,,,,,,,,,,,,delfinaD,001,a,2019_Oct_11_2010,Experimento,3.2.3,60.19450711245185,
8,14,14,999,0.5,0:10,3,Cyan,None,,,,,,,0,0,0,0,0,3,3,3,,,,,,,,,,,,,,,,,,,,,,,,,,,72.1893042390002,72.68891802399594,None,1,72.1893042390002,72.1893042390002,,,,,,,,,,,,,,,,,,,,,,,,,,,,,,,,,,,,,,,,,,,,,,,,,,,,,,,,,,,,,,,,,,,,,,,,delfinaD,001,a,2019_Oct_11_2010,Experimento,3.2.3,60.19450711245185,
8,14,14,999,0.5,0:10,3,Magenta,['space'],,,,,,,0,0,0,0,0,4,4,4,,,,,,,,,,,,,,,,,,,,,,,,,,,74.18883360299515,74.68893676599691,None,0,74.18883360299515,74.18883360299515,,,,,,,,,,,,,,,,,,,,,,,,,,,,,,,,,,,,,,,,,,,,,,,,,,,,,,,,,,,,,,,,,,,,,,,,delfinaD,001,a,2019_Oct_11_2010,Experimento,3.2.3,60.19450711245185,
8,14,14,999,0.5,0:10,3,Green,None,,,,,,,0,0,0,0,0,5,5,5,,,,,,,,,,,,,,,,,,,,,,,,,,,76.18933815199853,76.68902374299796,None,1,76.18933815199853,76.18933815199853,,,,,,,,,,,,,,,,,,,,,,,,,,,,,,,,,,,,,,,,,,,,,,,,,,,,,,,,,,,,,,,,,,,,,,,,delfinaD,001,a,2019_Oct_11_2010,Experimento,3.2.3,60.19450711245185,
8,14,14,999,0.5,0:10,3,White,None,,,,,,,0,0,0,0,0,6,6,6,,,,,,,,,,,,,,,,,,,,,,,,,,,78.18974010699458,78.68932938699436,['return'],0,78.18974010699458,78.18974010699458,[0.8290561730027548],,,,,,,,,,,,,,,,,,,,,,,,,,,,,,,,,,,,,,,,,,,,,,,,,,,,,,,,,,,,,,,,,,,,,,,delfinaD,001,a,2019_Oct_11_2010,Experimento,3.2.3,60.19450711245185,
8,14,14,999,0.5,0:10,3,Green,['space'],,,,,,,0,0,0,0,0,7,7,7,,,,,,,,,,,,,,,,,,,,,,,,,,,80.19080771899462,80.7053363859959,None,0,80.19080771899462,80.19080771899462,,,,,,,,,,,,,,,,,,,,,,,,,,,,,,,,,,,,,,,,,,,,,,,,,,,,,,,,,,,,,,,,,,,,,,,,delfinaD,001,a,2019_Oct_11_2010,Experimento,3.2.3,60.19450711245185,
8,14,14,999,0.5,0:10,3,Blue,None,,,,,,,0,0,0,0,0,8,8,8,,,,,,,,,,,,,,,,,,,,,,,,,,,82.20654649599601,82.72452303699538,None,1,82.20654649599601,82.20654649599601,,,,,,,,,,,,,,,,,,,,,,,,,,,,,,,,,,,,,,,,,,,,,,,,,,,,,,,,,,,,,,,,,,,,,,,,delfinaD,001,a,2019_Oct_11_2010,Experimento,3.2.3,60.19450711245185,
8,14,14,999,0.5,0:10,3,Green,['space'],,,,,,,0,0,0,0,0,9,9,9,,,,,,,,,,,,,,,,,,,,,,,,,,,84.22205765699618,84.72223254200071,None,0,84.22205765699618,84.22205765699618,,,,,,,,,,,,,,,,,,,,,,,,,,,,,,,,,,,,,,,,,,,,,,,,,,,,,,,,,,,,,,,,,,,,,,,,delfinaD,001,a,2019_Oct_11_2010,Experimento,3.2.3,60.19450711245185,
8,14,14,999,0.5,0:10,3,,,0,1,0,10:50,./completed_changuitos/montage_afofp_147.29_127.35.jpg,left,0,0,0,0,,,,,0,0,0,0,,,,,0,0,0,0,,,,,,,,,,,,,,,,,,,,,,86.54790063999826,114.92150985400076,114.92150985400076,122.93678819599882,122.93678819599882,136.93815896799788,right,0,4.548171485999774,136.93815896799788,None,136.93815896799788,None,136.93815896799788,139.93790805499884,,,,,,,,,,,,,,,,,,,,,,,,,,,,,,,,,,,,,,,,,,,,,,,,,,,,,,,,delfinaD,001,a,2019_Oct_11_2010,Experimento,3.2.3,60.19450711245185,
8,14,14,999,0.5,0:10,3,,,0,1,0,10:50,,,0,0,0,0,,,,,0,0,0,0,,,,,,,,,,,,,,,,,,,,,,,,,,,,,,,,,,,,,,,,,,,,,,,,,,,,,,,,,,,,,,,,,,,,,,,,,,,,,,,,,,,,,,,,,,,,,,,,,,,,delfinaD,001,a,2019_Oct_11_2010,Experimento,3.2.3,60.19450711245185,
8,14,14,999,0.5,0:10,3,Yellow,None,0,0,1,15:50,./completed_changuitos/montage_pnyeg_174.65_203.85.jpg,right,0,0,0,0,,,,,0,1,1,1,,,,,,,,,0,0,0,0,0,0,0,0,,,,,,,,,,,,,,,,,,,,,,,,,,,,,141.8256999669975,147.0586978459978,147.0586978459978,None,155.08908377400076,155.6039466719958,None,1,155.08908377400076,None,,,,,,,,,,,,,,,,,,,,,,,,,,,,,,,,,,,,,,,,,,,,,,delfinaD,001,a,2019_Oct_11_2010,Experimento,3.2.3,60.19450711245185,
8,14,14,999,0.5,0:10,3,White,['space'],0,0,1,15:50,./completed_changuitos/montage_pnyeg_174.65_203.85.jpg,right,0,0,0,0,,,,,0,1,1,1,,,,,,,,,0,0,0,0,0,1,1,1,,,,,,,,,,,,,,,,,,,,,,,,,,,,,,,,,157.10438382499706,157.60444593300053,None,0,157.10438382499706,157.10438382499706,,,,,,,,,,,,,,,,,,,,,,,,,,,,,,,,,,,,,,,,,,,,,,delfinaD,001,a,2019_Oct_11_2010,Experimento,3.2.3,60.19450711245185,
8,14,14,999,0.5,0:10,3,Magenta,None,0,0,1,15:50,./completed_changuitos/montage_pnyeg_174.65_203.85.jpg,right,0,0,0,0,,,,,0,1,1,1,,,,,,,,,0,0,0,0,0,2,2,2,,,,,,,,,,,,,,,,,,,,,,,,,,,,,,,,,159.1043437259941,159.60450481600128,None,1,159.1043437259941,159.1043437259941,,,,,,,,,,,,,,,,,,,,,,,,,,,,,,,,,,,,,,,,,,,,,,delfinaD,001,a,2019_Oct_11_2010,Experimento,3.2.3,60.19450711245185,
8,14,14,999,0.5,0:10,3,Cyan,None,0,0,1,15:50,./completed_changuitos/montage_pnyeg_174.65_203.85.jpg,right,0,0,0,0,,,,,0,1,1,1,,,,,,,,,0,0,0,0,0,3,3,3,,,,,,,,,,,,,,,,,,,,,,,,,,,,,,,,,161.10496185699594,161.62029351399542,None,1,161.10496185699594,161.10496185699594,,,,,,,,,,,,,,,,,,,,,,,,,,,,,,,,,,,,,,,,,,,,,,delfinaD,001,a,2019_Oct_11_2010,Experimento,3.2.3,60.19450711245185,
8,14,14,999,0.5,0:10,3,Blue,None,0,0,1,15:50,./completed_changuitos/montage_pnyeg_174.65_203.85.jpg,right,0,0,0,0,,,,,0,1,1,1,,,,,,,,,0,0,0,0,0,4,4,4,,,,,,,,,,,,,,,,,,,,,,,,,,,,,,,,,163.1048098379979,163.60480632099643,None,1,163.1048098379979,163.1048098379979,,,,,,,,,,,,,,,,,,,,,,,,,,,,,,,,,,,,,,,,,,,,,,delfinaD,001,a,2019_Oct_11_2010,Experimento,3.2.3,60.19450711245185,
8,14,14,999,0.5,0:10,3,Magenta,None,0,0,1,15:50,./completed_changuitos/montage_pnyeg_174.65_203.85.jpg,right,0,0,0,0,,,,,0,1,1,1,,,,,,,,,0,0,0,0,0,5,5,5,,,,,,,,,,,,,,,,,,,,,,,,,,,,,,,,,165.10515692999616,165.6049725519988,['return'],0,165.10515692999616,165.10515692999616,[1.4975410439947154],,,,,,,,,,,,,,,,,,,,,,,,,,,,,,,,,,,,,,,,,,,,,delfinaD,001,a,2019_Oct_11_2010,Experimento,3.2.3,60.19450711245185,
8,14,14,999,0.5,0:10,3,Blue,['space'],0,0,1,15:50,./completed_changuitos/montage_pnyeg_174.65_203.85.jpg,right,0,0,0,0,,,,,0,1,1,1,,,,,,,,,0,0,0,0,0,6,6,6,,,,,,,,,,,,,,,,,,,,,,,,,,,,,,,,,167.1050102079971,167.60469859399745,None,0,167.1050102079971,167.1050102079971,,,,,,,,,,,,,,,,,,,,,,,,,,,,,,,,,,,,,,,,,,,,,,delfinaD,001,a,2019_Oct_11_2010,Experimento,3.2.3,60.19450711245185,
8,14,14,999,0.5,0:10,3,Cyan,None,0,0,1,15:50,./completed_changuitos/montage_pnyeg_174.65_203.85.jpg,right,0,0,0,0,,,,,0,1,1,1,,,,,,,,,0,0,0,0,0,7,7,7,,,,,,,,,,,,,,,,,,,,,,,,,,,,,,,,,169.07078636990119,None,None,1,169.07078636990119,None,,,,,,,,,,,,,,,,,,,,,,,,,,,,,,,,,,,,,,,,,,,,,,delfinaD,001,a,2019_Oct_11_2010,Experimento,3.2.3,60.19450711245185,
8,14,14,999,0.5,0:10,3,Yellow,None,0,0,1,15:50,./completed_changuitos/montage_pnyeg_174.65_203.85.jpg,right,0,0,0,0,,,,,0,1,1,1,,,,,,,,,0,0,0,0,0,8,8,8,,,,,,,,,,,,,,,,,,,,,,,,,,,,,,,,,169.07078636990119,None,None,1,169.07078636990119,None,,,,,,,,,,,,,,,,,,,,,,,,,,,,,,,,,,,,,,,,,,,,,,delfinaD,001,a,2019_Oct_11_2010,Experimento,3.2.3,60.19450711245185,
8,14,14,999,0.5,0:10,3,Cyan,None,0,0,1,15:50,./completed_changuitos/montage_pnyeg_174.65_203.85.jpg,right,0,0,0,0,,,,,0,1,1,1,,,,,,,,,0,0,0,0,0,9,9,9,,,,,,,,,,,,,,,,,,,,,,,,,,,,,,,,,169.07078636990119,None,None,1,169.07078636990119,None,,,,,,,,,,,,,,,,,,,,,,,,,,,,,,,,,,,,,,,,,,,,,,delfinaD,001,a,2019_Oct_11_2010,Experimento,3.2.3,60.19450711245185,
8,14,14,999,0.5,0:10,3,Blue,None,0,0,1,15:50,./completed_changuitos/montage_pnyeg_174.65_203.85.jpg,right,0,0,0,0,,,,,0,1,1,1,,,,,,,,,0,0,0,0,0,10,10,10,,,,,,,,,,,,,,,,,,,,,,,,,,,,,,,,,169.07078636990119,None,None,1,169.07078636990119,None,,,,,,,,,,,,,,,,,,,,,,,,,,,,,,,,,,,,,,,,,,,,,,delfinaD,001,a,2019_Oct_11_2010,Experimento,3.2.3,60.19450711245185,
8,14,14,999,0.5,0:10,3,Cyan,['space'],0,0,1,15:50,./completed_changuitos/montage_pnyeg_174.65_203.85.jpg,right,0,0,0,0,,,,,0,1,1,1,,,,,,,,,0,0,0,0,0,11,11,11,,,,,,,,,,,,,,,,,,,,,,,,,,,,,,,,,169.07078636990119,None,None,0,169.07078636990119,None,,,,,,,,,,,,,,,,,,,,,,,,,,,,,,,,,,,,,,,,,,,,,,delfinaD,001,a,2019_Oct_11_2010,Experimento,3.2.3,60.19450711245185,
8,14,14,999,0.5,0:10,3,Magenta,None,0,0,1,15:50,./completed_changuitos/montage_pnyeg_174.65_203.85.jpg,right,0,0,0,0,,,,,0,1,1,1,,,,,,,,,0,0,0,0,0,12,12,12,,,,,,,,,,,,,,,,,,,,,,,,,,,,,,,,,169.07078636990119,None,None,1,169.07078636990119,None,,,,,,,,,,,,,,,,,,,,,,,,,,,,,,,,,,,,,,,,,,,,,,delfinaD,001,a,2019_Oct_11_2010,Experimento,3.2.3,60.19450711245185,
8,14,14,999,0.5,0:10,3,Red,None,0,0,1,15:50,./completed_changuitos/montage_pnyeg_174.65_203.85.jpg,right,0,0,0,0,,,,,0,1,1,1,,,,,,,,,0,0,0,0,0,13,13,13,,,,,,,,,,,,,,,,,,,,,,,,,,,,,,,,,169.0871458578011,None,None,1,169.0871458578011,None,,,,,,,,,,,,,,,,,,,,,,,,,,,,,,,,,,,,,,,,,,,,,,delfinaD,001,a,2019_Oct_11_2010,Experimento,3.2.3,60.19450711245185,
8,14,14,999,0.5,0:10,3,Magenta,['space'],0,0,1,15:50,./completed_changuitos/montage_pnyeg_174.65_203.85.jpg,right,0,0,0,0,,,,,0,1,1,1,,,,,,,,,0,0,0,0,0,14,14,14,,,,,,,,,,,,,,,,,,,,,,,,,,,,,,,,,169.0871458578011,None,None,0,169.0871458578011,None,,,,,,,,,,,,,,,,,,,,,,,,,,,,,,,,,,,,,,,,,,,,,,delfinaD,001,a,2019_Oct_11_2010,Experimento,3.2.3,60.19450711245185,
8,14,14,999,0.5,0:10,3,Green,None,0,0,1,15:50,./completed_changuitos/montage_pnyeg_174.65_203.85.jpg,right,0,0,0,0,,,,,0,1,1,1,,,,,,,,,0,0,0,0,0,15,15,15,,,,,,,,,,,,,,,,,,,,,,,,,,,,,,,,,169.0871458578011,None,None,1,169.0871458578011,None,,,,,,,,,,,,,,,,,,,,,,,,,,,,,,,,,,,,,,,,,,,,,,delfinaD,001,a,2019_Oct_11_2010,Experimento,3.2.3,60.19450711245185,
8,14,14,999,0.5,0:10,3,Yellow,['space'],0,0,1,15:50,./completed_changuitos/montage_pnyeg_174.65_203.85.jpg,right,0,0,0,0,,,,,0,1,1,1,,,,,,,,,0,0,0,0,0,16,16,16,,,,,,,,,,,,,,,,,,,,,,,,,,,,,,,,,169.0871458578011,None,None,0,169.0871458578011,None,,,,,,,,,,,,,,,,,,,,,,,,,,,,,,,,,,,,,,,,,,,,,,delfinaD,001,a,2019_Oct_11_2010,Experimento,3.2.3,60.19450711245185,
8,14,14,999,0.5,0:10,3,Blue,None,0,0,1,15:50,./completed_changuitos/montage_pnyeg_174.65_203.85.jpg,right,0,0,0,0,,,,,0,1,1,1,,,,,,,,,0,0,0,0,0,17,17,17,,,,,,,,,,,,,,,,,,,,,,,,,,,,,,,,,169.0871458578011,None,None,1,169.0871458578011,None,,,,,,,,,,,,,,,,,,,,,,,,,,,,,,,,,,,,,,,,,,,,,,delfinaD,001,a,2019_Oct_11_2010,Experimento,3.2.3,60.19450711245185,
8,14,14,999,0.5,0:10,3,Cyan,None,0,0,1,15:50,./completed_changuitos/montage_pnyeg_174.65_203.85.jpg,right,0,0,0,0,,,,,0,1,1,1,,,,,,,,,0,0,0,0,0,18,18,18,,,,,,,,,,,,,,,,,,,,,,,,,,,,,,,,,169.0871458578011,None,None,1,169.0871458578011,None,,,,,,,,,,,,,,,,,,,,,,,,,,,,,,,,,,,,,,,,,,,,,,delfinaD,001,a,2019_Oct_11_2010,Experimento,3.2.3,60.19450711245185,
8,14,14,999,0.5,0:10,3,Blue,['space'],0,0,1,15:50,./completed_changuitos/montage_pnyeg_174.65_203.85.jpg,right,0,0,0,0,,,,,0,1,1,1,,,,,,,,,0,0,0,0,0,19,19,19,,,,,,,,,,,,,,,,,,,,,,,,,,,,,,,,,169.0871458578011,None,None,0,169.0871458578011,None,,,,,,,,,,,,,,,,,,,,,,,,,,,,,,,,,,,,,,,,,,,,,,delfinaD,001,a,2019_Oct_11_2010,Experimento,3.2.3,60.19450711245185,
8,14,14,999,0.5,0:10,3,Yellow,None,0,0,1,15:50,./completed_changuitos/montage_pnyeg_174.65_203.85.jpg,right,0,0,0,0,,,,,0,1,1,1,,,,,,,,,0,0,0,0,0,20,20,20,,,,,,,,,,,,,,,,,,,,,,,,,,,,,,,,,169.0871458578011,None,None,1,169.0871458578011,None,,,,,,,,,,,,,,,,,,,,,,,,,,,,,,,,,,,,,,,,,,,,,,delfinaD,001,a,2019_Oct_11_2010,Experimento,3.2.3,60.19450711245185,
8,14,14,999,0.5,0:10,3,Cyan,None,0,0,1,15:50,./completed_changuitos/montage_pnyeg_174.65_203.85.jpg,right,0,0,0,0,,,,,0,1,1,1,,,,,,,,,0,0,0,0,0,21,21,21,,,,,,,,,,,,,,,,,,,,,,,,,,,,,,,,,169.0871458578011,None,None,1,169.0871458578011,None,,,,,,,,,,,,,,,,,,,,,,,,,,,,,,,,,,,,,,,,,,,,,,delfinaD,001,a,2019_Oct_11_2010,Experimento,3.2.3,60.19450711245185,
8,14,14,999,0.5,0:10,3,Yellow,['space'],0,0,1,15:50,./completed_changuitos/montage_pnyeg_174.65_203.85.jpg,right,0,0,0,0,,,,,0,1,1,1,,,,,,,,,0,0,0,0,0,22,22,22,,,,,,,,,,,,,,,,,,,,,,,,,,,,,,,,,169.0871458578011,None,None,0,169.0871458578011,None,,,,,,,,,,,,,,,,,,,,,,,,,,,,,,,,,,,,,,,,,,,,,,delfinaD,001,a,2019_Oct_11_2010,Experimento,3.2.3,60.19450711245185,
8,14,14,999,0.5,0:10,3,Magenta,None,0,0,1,15:50,./completed_changuitos/montage_pnyeg_174.65_203.85.jpg,right,0,0,0,0,,,,,0,1,1,1,,,,,,,,,0,0,0,0,0,23,23,23,,,,,,,,,,,,,,,,,,,,,,,,,,,,,,,,,169.0871458578011,None,None,1,169.0871458578011,None,,,,,,,,,,,,,,,,,,,,,,,,,,,,,,,,,,,,,,,,,,,,,,delfinaD,001,a,2019_Oct_11_2010,Experimento,3.2.3,60.19450711245185,
8,14,14,999,0.5,0:10,3,Red,None,0,0,1,15:50,./completed_changuitos/montage_pnyeg_174.65_203.85.jpg,right,0,0,0,0,,,,,0,1,1,1,,,,,,,,,0,0,0,0,0,24,24,24,,,,,,,,,,,,,,,,,,,,,,,,,,,,,,,,,169.103505345701,None,None,1,169.103505345701,None,,,,,,,,,,,,,,,,,,,,,,,,,,,,,,,,,,,,,,,,,,,,,,delfinaD,001,a,2019_Oct_11_2010,Experimento,3.2.3,60.19450711245185,
8,14,14,999,0.5,0:10,3,Magenta,['space'],0,0,1,15:50,./completed_changuitos/montage_pnyeg_174.65_203.85.jpg,right,0,0,0,0,,,,,0,1,1,1,,,,,,,,,0,0,0,0,0,25,25,25,,,,,,,,,,,,,,,,,,,,,,,,,,,,,,,,,169.103505345701,None,None,0,169.103505345701,None,,,,,,,,,,,,,,,,,,,,,,,,,,,,,,,,,,,,,,,,,,,,,,delfinaD,001,a,2019_Oct_11_2010,Experimento,3.2.3,60.19450711245185,
8,14,14,999,0.5,0:10,3,Red,['space'],0,0,1,15:50,./completed_changuitos/montage_pnyeg_174.65_203.85.jpg,right,0,0,0,0,,,,,0,1,1,1,,,,,,,,,0,0,0,0,0,26,26,26,,,,,,,,,,,,,,,,,,,,,,,,,,,,,,,,,169.103505345701,None,None,0,169.103505345701,None,,,,,,,,,,,,,,,,,,,,,,,,,,,,,,,,,,,,,,,,,,,,,,delfinaD,001,a,2019_Oct_11_2010,Experimento,3.2.3,60.19450711245185,
8,14,14,999,0.5,0:10,3,Yellow,None,0,0,1,15:50,./completed_changuitos/montage_pnyeg_174.65_203.85.jpg,right,0,0,0,0,,,,,0,1,1,1,,,,,,,,,0,0,0,0,0,27,27,27,,,,,,,,,,,,,,,,,,,,,,,,,,,,,,,,,169.103505345701,None,None,1,169.103505345701,None,,,,,,,,,,,,,,,,,,,,,,,,,,,,,,,,,,,,,,,,,,,,,,delfinaD,001,a,2019_Oct_11_2010,Experimento,3.2.3,60.19450711245185,
8,14,14,999,0.5,0:10,3,Cyan,None,0,0,1,15:50,./completed_changuitos/montage_pnyeg_174.65_203.85.jpg,right,0,0,0,0,,,,,0,1,1,1,,,,,,,,,0,0,0,0,0,28,28,28,,,,,,,,,,,,,,,,,,,,,,,,,,,,,,,,,169.103505345701,None,None,1,169.103505345701,None,,,,,,,,,,,,,,,,,,,,,,,,,,,,,,,,,,,,,,,,,,,,,,delfinaD,001,a,2019_Oct_11_2010,Experimento,3.2.3,60.19450711245185,
8,14,14,999,0.5,0:10,3,Green,None,0,0,1,15:50,./completed_changuitos/montage_pnyeg_174.65_203.85.jpg,right,0,0,0,0,,,,,0,1,1,1,,,,,,,,,0,0,0,0,0,29,29,29,,,,,,,,,,,,,,,,,,,,,,,,,,,,,,,,,169.103505345701,None,None,1,169.103505345701,None,,,,,,,,,,,,,,,,,,,,,,,,,,,,,,,,,,,,,,,,,,,,,,delfinaD,001,a,2019_Oct_11_2010,Experimento,3.2.3,60.19450711245185,
8,14,14,999,0.5,0:10,3,White,None,0,0,1,15:50,./completed_changuitos/montage_pnyeg_174.65_203.85.jpg,right,0,0,0,0,,,,,0,1,1,1,,,,,,,,,0,0,0,0,0,30,30,30,,,,,,,,,,,,,,,,,,,,,,,,,,,,,,,,,169.103505345701,None,None,1,169.103505345701,None,,,,,,,,,,,,,,,,,,,,,,,,,,,,,,,,,,,,,,,,,,,,,,delfinaD,001,a,2019_Oct_11_2010,Experimento,3.2.3,60.19450711245185,
8,14,14,999,0.5,0:10,3,Green,['space'],0,0,1,15:50,./completed_changuitos/montage_pnyeg_174.65_203.85.jpg,right,0,0,0,0,,,,,0,1,1,1,,,,,,,,,0,0,0,0,0,31,31,31,,,,,,,,,,,,,,,,,,,,,,,,,,,,,,,,,169.103505345701,None,None,0,169.103505345701,None,,,,,,,,,,,,,,,,,,,,,,,,,,,,,,,,,,,,,,,,,,,,,,delfinaD,001,a,2019_Oct_11_2010,Experimento,3.2.3,60.19450711245185,
8,14,14,999,0.5,0:10,3,Red,None,0,0,1,15:50,./completed_changuitos/montage_pnyeg_174.65_203.85.jpg,right,0,0,0,0,,,,,0,1,1,1,,,,,,,,,0,0,0,0,0,32,32,32,,,,,,,,,,,,,,,,,,,,,,,,,,,,,,,,,169.103505345701,None,None,1,169.103505345701,None,,,,,,,,,,,,,,,,,,,,,,,,,,,,,,,,,,,,,,,,,,,,,,delfinaD,001,a,2019_Oct_11_2010,Experimento,3.2.3,60.19450711245185,
8,14,14,999,0.5,0:10,3,Blue,None,0,0,1,15:50,./completed_changuitos/montage_pnyeg_174.65_203.85.jpg,right,0,0,0,0,,,,,0,1,1,1,,,,,,,,,0,0,0,0,0,33,33,33,,,,,,,,,,,,,,,,,,,,,,,,,,,,,,,,,169.103505345701,None,None,1,169.103505345701,None,,,,,,,,,,,,,,,,,,,,,,,,,,,,,,,,,,,,,,,,,,,,,,delfinaD,001,a,2019_Oct_11_2010,Experimento,3.2.3,60.19450711245185,
8,14,14,999,0.5,0:10,3,Green,None,0,0,1,15:50,./completed_changuitos/montage_pnyeg_174.65_203.85.jpg,right,0,0,0,0,,,,,0,1,1,1,,,,,,,,,0,0,0,0,0,34,34,34,,,,,,,,,,,,,,,,,,,,,,,,,,,,,,,,,169.103505345701,None,None,1,169.103505345701,None,,,,,,,,,,,,,,,,,,,,,,,,,,,,,,,,,,,,,,,,,,,,,,delfinaD,001,a,2019_Oct_11_2010,Experimento,3.2.3,60.19450711245185,
8,14,14,999,0.5,0:10,3,,,0,0,1,15:50,./completed_changuitos/montage_pnyeg_174.65_203.85.jpg,right,0,0,0,0,,,,,0,1,1,1,,,,,,,,,0,0,0,0,,,,,,,,,,,,,,,,,,,,,,,,,,,,,,,,,,,,,,,,,,,,169.22270318699884,None,left,0,1.9619321119971573,169.22270318699884,None,169.22270318699884,None,,,,,,,,,,,,,,,,,,,,,,,,,,,,,,,,,,,,delfinaD,001,a,2019_Oct_11_2010,Experimento,3.2.3,60.19450711245185,
8,14,14,999,0.5,0:10,3,,,0,0,1,15:50,,,0,0,0,0,,,,,0,1,1,1,,,,,,,,,,,,,,,,,,,,,,,,,,,,,,,,,,,,,,,,,,,,,,,,,,,,,,,,,,,,,,,,,,,,,,,,,,,,,,,,,,,,,,,,,,,,,,,,,,,,delfinaD,001,a,2019_Oct_11_2010,Experimento,3.2.3,60.19450711245185,
8,14,14,999,0.5,0:10,3,,,0,1,0,19:50,./completed_changuitos/montage_kxydx_114.29_96.19.jpg,left,0,0,0,0,,,,,0,2,2,2,,,,,0,0,0,0,,,,,,,,,,,,,,,,,,,,,,171.57463621399802,173.1384595749987,173.1384595749987,181.1532609729984,181.1532609729984,195.1534410489985,right,0,2.599431206996087,195.1534410489985,None,195.1534410489985,None,195.1534410489985,None,,,,,,,,,,,,,,,,,,,,,,,,,,,,,,,,,,,,,,,,,,,,,,,,,,,,,,,,delfinaD,001,a,2019_Oct_11_2010,Experimento,3.2.3,60.19450711245185,
8,14,14,999,0.5,0:10,3,,,0,1,0,19:50,,,0,0,0,0,,,,,0,2,2,2,,,,,,,,,,,,,,,,,,,,,,,,,,,,,,,,,,,,,,,,,,,,,,,,,,,,,,,,,,,,,,,,,,,,,,,,,,,,,,,,,,,,,,,,,,,,,,,,,,,,delfinaD,001,a,2019_Oct_11_2010,Experimento,3.2.3,60.19450711245185,
8,14,14,999,0.5,0:10,3,Magenta,None,0,0,1,20:50,./completed_changuitos/montage_iznjr_28.9_32.75.jpg,right,0,0,0,0,,,,,0,3,3,3,,,,,,,,,0,0,0,0,0,0,0,0,,,,,,,,,,,,,,,,,,,,,,,,,,,,,198.02184475299873,201.10550786100066,201.10550786100066,None,209.1532048989975,209.65329160799593,None,1,209.1532048989975,None,,,,,,,,,,,,,,,,,,,,,,,,,,,,,,,,,,,,,,,,,,,,,,delfinaD,001,a,2019_Oct_11_2010,Experimento,3.2.3,60.19450711245185,
8,14,14,999,0.5,0:10,3,Blue,['space'],0,0,1,20:50,./completed_changuitos/montage_iznjr_28.9_32.75.jpg,right,0,0,0,0,,,,,0,3,3,3,,,,,,,,,0,0,0,0,0,1,1,1,,,,,,,,,,,,,,,,,,,,,,,,,,,,,,,,,211.15435280199745,211.6542632069977,None,0,211.15435280199745,211.15435280199745,,,,,,,,,,,,,,,,,,,,,,,,,,,,,,,,,,,,,,,,,,,,,,delfinaD,001,a,2019_Oct_11_2010,Experimento,3.2.3,60.19450711245185,
8,14,14,999,0.5,0:10,3,Cyan,None,0,0,1,20:50,./completed_changuitos/montage_iznjr_28.9_32.75.jpg,right,0,0,0,0,,,,,0,3,3,3,,,,,,,,,0,0,0,0,0,2,2,2,,,,,,,,,,,,,,,,,,,,,,,,,,,,,,,,,213.15380568600085,213.6537750849966,None,1,213.15380568600085,213.15380568600085,,,,,,,,,,,,,,,,,,,,,,,,,,,,,,,,,,,,,,,,,,,,,,delfinaD,001,a,2019_Oct_11_2010,Experimento,3.2.3,60.19450711245185,
8,14,14,999,0.5,0:10,3,Yellow,None,0,0,1,20:50,./completed_changuitos/montage_iznjr_28.9_32.75.jpg,right,0,0,0,0,,,,,0,3,3,3,,,,,,,,,0,0,0,0,0,3,3,3,,,,,,,,,,,,,,,,,,,,,,,,,,,,,,,,,215.15318737099733,215.65327555399563,None,1,215.15318737099733,215.15318737099733,,,,,,,,,,,,,,,,,,,,,,,,,,,,,,,,,,,,,,,,,,,,,,delfinaD,001,a,2019_Oct_11_2010,Experimento,3.2.3,60.19450711245185,
8,14,14,999,0.5,0:10,3,Cyan,None,0,0,1,20:50,./completed_changuitos/montage_iznjr_28.9_32.75.jpg,right,0,0,0,0,,,,,0,3,3,3,,,,,,,,,0,0,0,0,0,4,4,4,,,,,,,,,,,,,,,,,,,,,,,,,,,,,,,,,217.15454080799827,217.65326861300127,None,1,217.15454080799827,217.15454080799827,,,,,,,,,,,,,,,,,,,,,,,,,,,,,,,,,,,,,,,,,,,,,,delfinaD,001,a,2019_Oct_11_2010,Experimento,3.2.3,60.19450711245185,
8,14,14,999,0.5,0:10,3,Blue,None,0,0,1,20:50,./completed_changuitos/montage_iznjr_28.9_32.75.jpg,right,0,0,0,0,,,,,0,3,3,3,,,,,,,,,0,0,0,0,0,5,5,5,,,,,,,,,,,,,,,,,,,,,,,,,,,,,,,,,219.15578025099967,219.6708406580001,['return'],0,219.15578025099967,219.15578025099967,[1.2990236199984793],,,,,,,,,,,,,,,,,,,,,,,,,,,,,,,,,,,,,,,,,,,,,delfinaD,001,a,2019_Oct_11_2010,Experimento,3.2.3,60.19450711245185,
8,14,14,999,0.5,0:10,3,Cyan,['space'],0,0,1,20:50,./completed_changuitos/montage_iznjr_28.9_32.75.jpg,right,0,0,0,0,,,,,0,3,3,3,,,,,,,,,0,0,0,0,0,6,6,6,,,,,,,,,,,,,,,,,,,,,,,,,,,,,,,,,221.17079048699816,221.67066128299484,['return'],0,221.17079048699816,221.17079048699816,[0.8708078529962222],,,,,,,,,,,,,,,,,,,,,,,,,,,,,,,,,,,,,,,,,,,,,delfinaD,001,a,2019_Oct_11_2010,Experimento,3.2.3,60.19450711245185,
8,14,14,999,0.5,0:10,3,Magenta,None,0,0,1,20:50,./completed_changuitos/montage_iznjr_28.9_32.75.jpg,right,0,0,0,0,,,,,0,3,3,3,,,,,,,,,0,0,0,0,0,7,7,7,,,,,,,,,,,,,,,,,,,,,,,,,,,,,,,,,223.12048287889994,None,None,1,223.12048287889994,None,,,,,,,,,,,,,,,,,,,,,,,,,,,,,,,,,,,,,,,,,,,,,,delfinaD,001,a,2019_Oct_11_2010,Experimento,3.2.3,60.19450711245185,
8,14,14,999,0.5,0:10,3,Red,None,0,0,1,20:50,./completed_changuitos/montage_iznjr_28.9_32.75.jpg,right,0,0,0,0,,,,,0,3,3,3,,,,,,,,,0,0,0,0,0,8,8,8,,,,,,,,,,,,,,,,,,,,,,,,,,,,,,,,,223.12048287889994,None,None,1,223.12048287889994,None,,,,,,,,,,,,,,,,,,,,,,,,,,,,,,,,,,,,,,,,,,,,,,delfinaD,001,a,2019_Oct_11_2010,Experimento,3.2.3,60.19450711245185,
8,14,14,999,0.5,0:10,3,Magenta,['space'],0,0,1,20:50,./completed_changuitos/montage_iznjr_28.9_32.75.jpg,right,0,0,0,0,,,,,0,3,3,3,,,,,,,,,0,0,0,0,0,9,9,9,,,,,,,,,,,,,,,,,,,,,,,,,,,,,,,,,223.12048287889994,None,None,0,223.12048287889994,None,,,,,,,,,,,,,,,,,,,,,,,,,,,,,,,,,,,,,,,,,,,,,,delfinaD,001,a,2019_Oct_11_2010,Experimento,3.2.3,60.19450711245185,
8,14,14,999,0.5,0:10,3,Green,None,0,0,1,20:50,./completed_changuitos/montage_iznjr_28.9_32.75.jpg,right,0,0,0,0,,,,,0,3,3,3,,,,,,,,,0,0,0,0,0,10,10,10,,,,,,,,,,,,,,,,,,,,,,,,,,,,,,,,,223.12048287889994,None,None,1,223.12048287889994,None,,,,,,,,,,,,,,,,,,,,,,,,,,,,,,,,,,,,,,,,,,,,,,delfinaD,001,a,2019_Oct_11_2010,Experimento,3.2.3,60.19450711245185,
8,14,14,999,0.5,0:10,3,Yellow,['space'],0,0,1,20:50,./completed_changuitos/montage_iznjr_28.9_32.75.jpg,right,0,0,0,0,,,,,0,3,3,3,,,,,,,,,0,0,0,0,0,11,11,11,,,,,,,,,,,,,,,,,,,,,,,,,,,,,,,,,223.12048287889994,None,None,0,223.12048287889994,None,,,,,,,,,,,,,,,,,,,,,,,,,,,,,,,,,,,,,,,,,,,,,,delfinaD,001,a,2019_Oct_11_2010,Experimento,3.2.3,60.19450711245185,
8,14,14,999,0.5,0:10,3,Blue,None,0,0,1,20:50,./completed_changuitos/montage_iznjr_28.9_32.75.jpg,right,0,0,0,0,,,,,0,3,3,3,,,,,,,,,0,0,0,0,0,12,12,12,,,,,,,,,,,,,,,,,,,,,,,,,,,,,,,,,223.12048287889994,None,None,1,223.12048287889994,None,,,,,,,,,,,,,,,,,,,,,,,,,,,,,,,,,,,,,,,,,,,,,,delfinaD,001,a,2019_Oct_11_2010,Experimento,3.2.3,60.19450711245185,
8,14,14,999,0.5,0:10,3,Cyan,None,0,0,1,20:50,./completed_changuitos/montage_iznjr_28.9_32.75.jpg,right,0,0,0,0,,,,,0,3,3,3,,,,,,,,,0,0,0,0,0,13,13,13,,,,,,,,,,,,,,,,,,,,,,,,,,,,,,,,,223.13684236679984,None,None,1,223.13684236679984,None,,,,,,,,,,,,,,,,,,,,,,,,,,,,,,,,,,,,,,,,,,,,,,delfinaD,001,a,2019_Oct_11_2010,Experimento,3.2.3,60.19450711245185,
8,14,14,999,0.5,0:10,3,Blue,['space'],0,0,1,20:50,./completed_changuitos/montage_iznjr_28.9_32.75.jpg,right,0,0,0,0,,,,,0,3,3,3,,,,,,,,,0,0,0,0,0,14,14,14,,,,,,,,,,,,,,,,,,,,,,,,,,,,,,,,,223.13684236679984,None,None,0,223.13684236679984,None,,,,,,,,,,,,,,,,,,,,,,,,,,,,,,,,,,,,,,,,,,,,,,delfinaD,001,a,2019_Oct_11_2010,Experimento,3.2.3,60.19450711245185,
8,14,14,999,0.5,0:10,3,Yellow,None,0,0,1,20:50,./completed_changuitos/montage_iznjr_28.9_32.75.jpg,right,0,0,0,0,,,,,0,3,3,3,,,,,,,,,0,0,0,0,0,15,15,15,,,,,,,,,,,,,,,,,,,,,,,,,,,,,,,,,223.13684236679984,None,None,1,223.13684236679984,None,,,,,,,,,,,,,,,,,,,,,,,,,,,,,,,,,,,,,,,,,,,,,,delfinaD,001,a,2019_Oct_11_2010,Experimento,3.2.3,60.19450711245185,
8,14,14,999,0.5,0:10,3,Cyan,None,0,0,1,20:50,./completed_changuitos/montage_iznjr_28.9_32.75.jpg,right,0,0,0,0,,,,,0,3,3,3,,,,,,,,,0,0,0,0,0,16,16,16,,,,,,,,,,,,,,,,,,,,,,,,,,,,,,,,,223.13684236679984,None,None,1,223.13684236679984,None,,,,,,,,,,,,,,,,,,,,,,,,,,,,,,,,,,,,,,,,,,,,,,delfinaD,001,a,2019_Oct_11_2010,Experimento,3.2.3,60.19450711245185,
8,14,14,999,0.5,0:10,3,Yellow,['space'],0,0,1,20:50,./completed_changuitos/montage_iznjr_28.9_32.75.jpg,right,0,0,0,0,,,,,0,3,3,3,,,,,,,,,0,0,0,0,0,17,17,17,,,,,,,,,,,,,,,,,,,,,,,,,,,,,,,,,223.13684236679984,None,None,0,223.13684236679984,None,,,,,,,,,,,,,,,,,,,,,,,,,,,,,,,,,,,,,,,,,,,,,,delfinaD,001,a,2019_Oct_11_2010,Experimento,3.2.3,60.19450711245185,
8,14,14,999,0.5,0:10,3,Magenta,None,0,0,1,20:50,./completed_changuitos/montage_iznjr_28.9_32.75.jpg,right,0,0,0,0,,,,,0,3,3,3,,,,,,,,,0,0,0,0,0,18,18,18,,,,,,,,,,,,,,,,,,,,,,,,,,,,,,,,,223.13684236679984,None,None,1,223.13684236679984,None,,,,,,,,,,,,,,,,,,,,,,,,,,,,,,,,,,,,,,,,,,,,,,delfinaD,001,a,2019_Oct_11_2010,Experimento,3.2.3,60.19450711245185,
8,14,14,999,0.5,0:10,3,Red,None,0,0,1,20:50,./completed_changuitos/montage_iznjr_28.9_32.75.jpg,right,0,0,0,0,,,,,0,3,3,3,,,,,,,,,0,0,0,0,0,19,19,19,,,,,,,,,,,,,,,,,,,,,,,,,,,,,,,,,223.13684236679984,None,None,1,223.13684236679984,None,,,,,,,,,,,,,,,,,,,,,,,,,,,,,,,,,,,,,,,,,,,,,,delfinaD,001,a,2019_Oct_11_2010,Experimento,3.2.3,60.19450711245185,
8,14,14,999,0.5,0:10,3,Magenta,['space'],0,0,1,20:50,./completed_changuitos/montage_iznjr_28.9_32.75.jpg,right,0,0,0,0,,,,,0,3,3,3,,,,,,,,,0,0,0,0,0,20,20,20,,,,,,,,,,,,,,,,,,,,,,,,,,,,,,,,,223.13684236679984,None,None,0,223.13684236679984,None,,,,,,,,,,,,,,,,,,,,,,,,,,,,,,,,,,,,,,,,,,,,,,delfinaD,001,a,2019_Oct_11_2010,Experimento,3.2.3,60.19450711245185,
8,14,14,999,0.5,0:10,3,Red,['space'],0,0,1,20:50,./completed_changuitos/montage_iznjr_28.9_32.75.jpg,right,0,0,0,0,,,,,0,3,3,3,,,,,,,,,0,0,0,0,0,21,21,21,,,,,,,,,,,,,,,,,,,,,,,,,,,,,,,,,223.13684236679984,None,None,0,223.13684236679984,None,,,,,,,,,,,,,,,,,,,,,,,,,,,,,,,,,,,,,,,,,,,,,,delfinaD,001,a,2019_Oct_11_2010,Experimento,3.2.3,60.19450711245185,
8,14,14,999,0.5,0:10,3,Yellow,None,0,0,1,20:50,./completed_changuitos/montage_iznjr_28.9_32.75.jpg,right,0,0,0,0,,,,,0,3,3,3,,,,,,,,,0,0,0,0,0,22,22,22,,,,,,,,,,,,,,,,,,,,,,,,,,,,,,,,,223.13684236679984,None,None,1,223.13684236679984,None,,,,,,,,,,,,,,,,,,,,,,,,,,,,,,,,,,,,,,,,,,,,,,delfinaD,001,a,2019_Oct_11_2010,Experimento,3.2.3,60.19450711245185,
8,14,14,999,0.5,0:10,3,Cyan,None,0,0,1,20:50,./completed_changuitos/montage_iznjr_28.9_32.75.jpg,right,0,0,0,0,,,,,0,3,3,3,,,,,,,,,0,0,0,0,0,23,23,23,,,,,,,,,,,,,,,,,,,,,,,,,,,,,,,,,223.13684236679984,None,None,1,223.13684236679984,None,,,,,,,,,,,,,,,,,,,,,,,,,,,,,,,,,,,,,,,,,,,,,,delfinaD,001,a,2019_Oct_11_2010,Experimento,3.2.3,60.19450711245185,
8,14,14,999,0.5,0:10,3,Green,None,0,0,1,20:50,./completed_changuitos/montage_iznjr_28.9_32.75.jpg,right,0,0,0,0,,,,,0,3,3,3,,,,,,,,,0,0,0,0,0,24,24,24,,,,,,,,,,,,,,,,,,,,,,,,,,,,,,,,,223.15320185469974,None,None,1,223.15320185469974,None,,,,,,,,,,,,,,,,,,,,,,,,,,,,,,,,,,,,,,,,,,,,,,delfinaD,001,a,2019_Oct_11_2010,Experimento,3.2.3,60.19450711245185,
8,14,14,999,0.5,0:10,3,White,None,0,0,1,20:50,./completed_changuitos/montage_iznjr_28.9_32.75.jpg,right,0,0,0,0,,,,,0,3,3,3,,,,,,,,,0,0,0,0,0,25,25,25,,,,,,,,,,,,,,,,,,,,,,,,,,,,,,,,,223.15320185469974,None,None,1,223.15320185469974,None,,,,,,,,,,,,,,,,,,,,,,,,,,,,,,,,,,,,,,,,,,,,,,delfinaD,001,a,2019_Oct_11_2010,Experimento,3.2.3,60.19450711245185,
8,14,14,999,0.5,0:10,3,Green,['space'],0,0,1,20:50,./completed_changuitos/montage_iznjr_28.9_32.75.jpg,right,0,0,0,0,,,,,0,3,3,3,,,,,,,,,0,0,0,0,0,26,26,26,,,,,,,,,,,,,,,,,,,,,,,,,,,,,,,,,223.15320185469974,None,None,0,223.15320185469974,None,,,,,,,,,,,,,,,,,,,,,,,,,,,,,,,,,,,,,,,,,,,,,,delfinaD,001,a,2019_Oct_11_2010,Experimento,3.2.3,60.19450711245185,
8,14,14,999,0.5,0:10,3,Red,None,0,0,1,20:50,./completed_changuitos/montage_iznjr_28.9_32.75.jpg,right,0,0,0,0,,,,,0,3,3,3,,,,,,,,,0,0,0,0,0,27,27,27,,,,,,,,,,,,,,,,,,,,,,,,,,,,,,,,,223.15320185469974,None,None,1,223.15320185469974,None,,,,,,,,,,,,,,,,,,,,,,,,,,,,,,,,,,,,,,,,,,,,,,delfinaD,001,a,2019_Oct_11_2010,Experimento,3.2.3,60.19450711245185,
8,14,14,999,0.5,0:10,3,Blue,None,0,0,1,20:50,./completed_changuitos/montage_iznjr_28.9_32.75.jpg,right,0,0,0,0,,,,,0,3,3,3,,,,,,,,,0,0,0,0,0,28,28,28,,,,,,,,,,,,,,,,,,,,,,,,,,,,,,,,,223.15320185469974,None,None,1,223.15320185469974,None,,,,,,,,,,,,,,,,,,,,,,,,,,,,,,,,,,,,,,,,,,,,,,delfinaD,001,a,2019_Oct_11_2010,Experimento,3.2.3,60.19450711245185,
8,14,14,999,0.5,0:10,3,Green,None,0,0,1,20:50,./completed_changuitos/montage_iznjr_28.9_32.75.jpg,right,0,0,0,0,,,,,0,3,3,3,,,,,,,,,0,0,0,0,0,29,29,29,,,,,,,,,,,,,,,,,,,,,,,,,,,,,,,,,223.15320185469974,None,None,1,223.15320185469974,None,,,,,,,,,,,,,,,,,,,,,,,,,,,,,,,,,,,,,,,,,,,,,,delfinaD,001,a,2019_Oct_11_2010,Experimento,3.2.3,60.19450711245185,
8,14,14,999,0.5,0:10,3,,,0,0,1,20:50,./completed_changuitos/montage_iznjr_28.9_32.75.jpg,right,0,0,0,0,,,,,0,3,3,3,,,,,,,,,0,0,0,0,,,,,,,,,,,,,,,,,,,,,,,,,,,,,,,,,,,,,,,,,,,,223.25617801000044,None,left,0,3.6174192179969396,223.25617801000044,None,223.25617801000044,226.27031996799633,,,,,,,,,,,,,,,,,,,,,,,,,,,,,,,,,,,,delfinaD,001,a,2019_Oct_11_2010,Experimento,3.2.3,60.19450711245185,
8,14,14,999,0.5,0:10,3,,,0,0,1,20:50,,,0,0,0,0,,,,,0,3,3,3,,,,,,,,,,,,,,,,,,,,,,,,,,,,,,,,,,,,,,,,,,,,,,,,,,,,,,,,,,,,,,,,,,,,,,,,,,,,,,,,,,,,,,,,,,,,,,,,,,,,delfinaD,001,a,2019_Oct_11_2010,Experimento,3.2.3,60.19450711245185,
8,14,14,999,0.5,0:10,3,,,0,1,0,25:50,./completed_changuitos/montage_nuwml_68.49_76.9.jpg,right,0,0,0,0,,,,,0,4,4,4,,,,,0,0,0,0,,,,,,,,,,,,,,,,,,,,,,227.22211215999414,229.3906002779986,229.3906002779986,237.4022183240013,237.4022183240013,251.4030267079943,left,0,0.8326132279980811,251.4030267079943,None,251.4030267079943,None,251.4030267079943,None,,,,,,,,,,,,,,,,,,,,,,,,,,,,,,,,,,,,,,,,,,,,,,,,,,,,,,,,delfinaD,001,a,2019_Oct_11_2010,Experimento,3.2.3,60.19450711245185,
8,14,14,999,0.5,0:10,3,,,0,1,0,25:50,,,0,0,0,0,,,,,0,4,4,4,,,,,,,,,,,,,,,,,,,,,,,,,,,,,,,,,,,,,,,,,,,,,,,,,,,,,,,,,,,,,,,,,,,,,,,,,,,,,,,,,,,,,,,,,,,,,,,,,,,,delfinaD,001,a,2019_Oct_11_2010,Experimento,3.2.3,60.19450711245185,
8,14,14,999,0.5,0:10,3,Red,None,0,0,1,28:50,./completed_changuitos/montage_pqist_109.69_95.25.jpg,left,0,0,0,0,,,,,0,5,5,5,,,,,,,,,0,0,0,0,0,0,0,0,,,,,,,,,,,,,,,,,,,,,,,,,,,,,252.52329794300022,253.32264771799964,253.32264771799964,None,261.3546576699955,261.86923684000067,None,1,261.3546576699955,None,,,,,,,,,,,,,,,,,,,,,,,,,,,,,,,,,,,,,,,,,,,,,,delfinaD,001,a,2019_Oct_11_2010,Experimento,3.2.3,60.19450711245185,
8,14,14,999,0.5,0:10,3,Magenta,['space'],0,0,1,28:50,./completed_changuitos/montage_pqist_109.69_95.25.jpg,left,0,0,0,0,,,,,0,5,5,5,,,,,,,,,0,0,0,0,0,1,1,1,,,,,,,,,,,,,,,,,,,,,,,,,,,,,,,,,263.3702041249999,263.8697507629986,None,0,263.3702041249999,263.3702041249999,,,,,,,,,,,,,,,,,,,,,,,,,,,,,,,,,,,,,,,,,,,,,,delfinaD,001,a,2019_Oct_11_2010,Experimento,3.2.3,60.19450711245185,
8,14,14,999,0.5,0:10,3,Green,None,0,0,1,28:50,./completed_changuitos/montage_pqist_109.69_95.25.jpg,left,0,0,0,0,,,,,0,5,5,5,,,,,,,,,0,0,0,0,0,2,2,2,,,,,,,,,,,,,,,,,,,,,,,,,,,,,,,,,265.3695015589983,265.8696129569944,None,1,265.3695015589983,265.3695015589983,,,,,,,,,,,,,,,,,,,,,,,,,,,,,,,,,,,,,,,,,,,,,,delfinaD,001,a,2019_Oct_11_2010,Experimento,3.2.3,60.19450711245185,
8,14,14,999,0.5,0:10,3,Yellow,['space'],0,0,1,28:50,./completed_changuitos/montage_pqist_109.69_95.25.jpg,left,0,0,0,0,,,,,0,5,5,5,,,,,,,,,0,0,0,0,0,3,3,3,,,,,,,,,,,,,,,,,,,,,,,,,,,,,,,,,267.369341753998,267.86957204400096,None,0,267.369341753998,267.369341753998,,,,,,,,,,,,,,,,,,,,,,,,,,,,,,,,,,,,,,,,,,,,,,delfinaD,001,a,2019_Oct_11_2010,Experimento,3.2.3,60.19450711245185,
8,14,14,999,0.5,0:10,3,Blue,None,0,0,1,28:50,./completed_changuitos/montage_pqist_109.69_95.25.jpg,left,0,0,0,0,,,,,0,5,5,5,,,,,,,,,0,0,0,0,0,4,4,4,,,,,,,,,,,,,,,,,,,,,,,,,,,,,,,,,269.3710336820004,269.8868317519955,None,1,269.3710336820004,269.3710336820004,,,,,,,,,,,,,,,,,,,,,,,,,,,,,,,,,,,,,,,,,,,,,,delfinaD,001,a,2019_Oct_11_2010,Experimento,3.2.3,60.19450711245185,
8,14,14,999,0.5,0:10,3,Cyan,None,0,0,1,28:50,./completed_changuitos/montage_pqist_109.69_95.25.jpg,left,0,0,0,0,,,,,0,5,5,5,,,,,,,,,0,0,0,0,0,5,5,5,,,,,,,,,,,,,,,,,,,,,,,,,,,,,,,,,271.3872006550009,271.90300325599674,None,1,271.3872006550009,271.3872006550009,,,,,,,,,,,,,,,,,,,,,,,,,,,,,,,,,,,,,,,,,,,,,,delfinaD,001,a,2019_Oct_11_2010,Experimento,3.2.3,60.19450711245185,
8,14,14,999,0.5,0:10,3,Blue,['space'],0,0,1,28:50,./completed_changuitos/montage_pqist_109.69_95.25.jpg,left,0,0,0,0,,,,,0,5,5,5,,,,,,,,,0,0,0,0,0,6,6,6,,,,,,,,,,,,,,,,,,,,,,,,,,,,,,,,,273.40271139700053,273.9029667119976,['return'],0,273.40271139700053,273.40271139700053,[0.59567199099547],,,,,,,,,,,,,,,,,,,,,,,,,,,,,,,,,,,,,,,,,,,,,delfinaD,001,a,2019_Oct_11_2010,Experimento,3.2.3,60.19450711245185,
8,14,14,999,0.5,0:10,3,Yellow,None,0,0,1,28:50,./completed_changuitos/montage_pqist_109.69_95.25.jpg,left,0,0,0,0,,,,,0,5,5,5,,,,,,,,,0,0,0,0,0,7,7,7,,,,,,,,,,,,,,,,,,,,,,,,,,,,,,,,,275.3359978358952,None,None,1,275.3359978358952,None,,,,,,,,,,,,,,,,,,,,,,,,,,,,,,,,,,,,,,,,,,,,,,delfinaD,001,a,2019_Oct_11_2010,Experimento,3.2.3,60.19450711245185,
8,14,14,999,0.5,0:10,3,Cyan,None,0,0,1,28:50,./completed_changuitos/montage_pqist_109.69_95.25.jpg,left,0,0,0,0,,,,,0,5,5,5,,,,,,,,,0,0,0,0,0,8,8,8,,,,,,,,,,,,,,,,,,,,,,,,,,,,,,,,,275.3359978358952,None,None,1,275.3359978358952,None,,,,,,,,,,,,,,,,,,,,,,,,,,,,,,,,,,,,,,,,,,,,,,delfinaD,001,a,2019_Oct_11_2010,Experimento,3.2.3,60.19450711245185,
8,14,14,999,0.5,0:10,3,Yellow,['space'],0,0,1,28:50,./completed_changuitos/montage_pqist_109.69_95.25.jpg,left,0,0,0,0,,,,,0,5,5,5,,,,,,,,,0,0,0,0,0,9,9,9,,,,,,,,,,,,,,,,,,,,,,,,,,,,,,,,,275.3359978358952,None,None,0,275.3359978358952,None,,,,,,,,,,,,,,,,,,,,,,,,,,,,,,,,,,,,,,,,,,,,,,delfinaD,001,a,2019_Oct_11_2010,Experimento,3.2.3,60.19450711245185,
8,14,14,999,0.5,0:10,3,Magenta,None,0,0,1,28:50,./completed_changuitos/montage_pqist_109.69_95.25.jpg,left,0,0,0,0,,,,,0,5,5,5,,,,,,,,,0,0,0,0,0,10,10,10,,,,,,,,,,,,,,,,,,,,,,,,,,,,,,,,,275.3359978358952,None,None,1,275.3359978358952,None,,,,,,,,,,,,,,,,,,,,,,,,,,,,,,,,,,,,,,,,,,,,,,delfinaD,001,a,2019_Oct_11_2010,Experimento,3.2.3,60.19450711245185,
8,14,14,999,0.5,0:10,3,Red,None,0,0,1,28:50,./completed_changuitos/montage_pqist_109.69_95.25.jpg,left,0,0,0,0,,,,,0,5,5,5,,,,,,,,,0,0,0,0,0,11,11,11,,,,,,,,,,,,,,,,,,,,,,,,,,,,,,,,,275.3359978358952,None,None,1,275.3359978358952,None,,,,,,,,,,,,,,,,,,,,,,,,,,,,,,,,,,,,,,,,,,,,,,delfinaD,001,a,2019_Oct_11_2010,Experimento,3.2.3,60.19450711245185,
8,14,14,999,0.5,0:10,3,Magenta,['space'],0,0,1,28:50,./completed_changuitos/montage_pqist_109.69_95.25.jpg,left,0,0,0,0,,,,,0,5,5,5,,,,,,,,,0,0,0,0,0,12,12,12,,,,,,,,,,,,,,,,,,,,,,,,,,,,,,,,,275.3359978358952,None,None,0,275.3359978358952,None,,,,,,,,,,,,,,,,,,,,,,,,,,,,,,,,,,,,,,,,,,,,,,delfinaD,001,a,2019_Oct_11_2010,Experimento,3.2.3,60.19450711245185,
8,14,14,999,0.5,0:10,3,Red,['space'],0,0,1,28:50,./completed_changuitos/montage_pqist_109.69_95.25.jpg,left,0,0,0,0,,,,,0,5,5,5,,,,,,,,,0,0,0,0,0,13,13,13,,,,,,,,,,,,,,,,,,,,,,,,,,,,,,,,,275.3523573237951,None,None,0,275.3523573237951,None,,,,,,,,,,,,,,,,,,,,,,,,,,,,,,,,,,,,,,,,,,,,,,delfinaD,001,a,2019_Oct_11_2010,Experimento,3.2.3,60.19450711245185,
8,14,14,999,0.5,0:10,3,Yellow,None,0,0,1,28:50,./completed_changuitos/montage_pqist_109.69_95.25.jpg,left,0,0,0,0,,,,,0,5,5,5,,,,,,,,,0,0,0,0,0,14,14,14,,,,,,,,,,,,,,,,,,,,,,,,,,,,,,,,,275.3523573237951,None,None,1,275.3523573237951,None,,,,,,,,,,,,,,,,,,,,,,,,,,,,,,,,,,,,,,,,,,,,,,delfinaD,001,a,2019_Oct_11_2010,Experimento,3.2.3,60.19450711245185,
8,14,14,999,0.5,0:10,3,Cyan,None,0,0,1,28:50,./completed_changuitos/montage_pqist_109.69_95.25.jpg,left,0,0,0,0,,,,,0,5,5,5,,,,,,,,,0,0,0,0,0,15,15,15,,,,,,,,,,,,,,,,,,,,,,,,,,,,,,,,,275.3523573237951,None,None,1,275.3523573237951,None,,,,,,,,,,,,,,,,,,,,,,,,,,,,,,,,,,,,,,,,,,,,,,delfinaD,001,a,2019_Oct_11_2010,Experimento,3.2.3,60.19450711245185,
8,14,14,999,0.5,0:10,3,Green,None,0,0,1,28:50,./completed_changuitos/montage_pqist_109.69_95.25.jpg,left,0,0,0,0,,,,,0,5,5,5,,,,,,,,,0,0,0,0,0,16,16,16,,,,,,,,,,,,,,,,,,,,,,,,,,,,,,,,,275.3523573237951,None,None,1,275.3523573237951,None,,,,,,,,,,,,,,,,,,,,,,,,,,,,,,,,,,,,,,,,,,,,,,delfinaD,001,a,2019_Oct_11_2010,Experimento,3.2.3,60.19450711245185,
8,14,14,999,0.5,0:10,3,White,None,0,0,1,28:50,./completed_changuitos/montage_pqist_109.69_95.25.jpg,left,0,0,0,0,,,,,0,5,5,5,,,,,,,,,0,0,0,0,0,17,17,17,,,,,,,,,,,,,,,,,,,,,,,,,,,,,,,,,275.3523573237951,None,None,1,275.3523573237951,None,,,,,,,,,,,,,,,,,,,,,,,,,,,,,,,,,,,,,,,,,,,,,,delfinaD,001,a,2019_Oct_11_2010,Experimento,3.2.3,60.19450711245185,
8,14,14,999,0.5,0:10,3,Green,['space'],0,0,1,28:50,./completed_changuitos/montage_pqist_109.69_95.25.jpg,left,0,0,0,0,,,,,0,5,5,5,,,,,,,,,0,0,0,0,0,18,18,18,,,,,,,,,,,,,,,,,,,,,,,,,,,,,,,,,275.3523573237951,None,None,0,275.3523573237951,None,,,,,,,,,,,,,,,,,,,,,,,,,,,,,,,,,,,,,,,,,,,,,,delfinaD,001,a,2019_Oct_11_2010,Experimento,3.2.3,60.19450711245185,
8,14,14,999,0.5,0:10,3,Red,None,0,0,1,28:50,./completed_changuitos/montage_pqist_109.69_95.25.jpg,left,0,0,0,0,,,,,0,5,5,5,,,,,,,,,0,0,0,0,0,19,19,19,,,,,,,,,,,,,,,,,,,,,,,,,,,,,,,,,275.3523573237951,None,None,1,275.3523573237951,None,,,,,,,,,,,,,,,,,,,,,,,,,,,,,,,,,,,,,,,,,,,,,,delfinaD,001,a,2019_Oct_11_2010,Experimento,3.2.3,60.19450711245185,
8,14,14,999,0.5,0:10,3,Blue,None,0,0,1,28:50,./completed_changuitos/montage_pqist_109.69_95.25.jpg,left,0,0,0,0,,,,,0,5,5,5,,,,,,,,,0,0,0,0,0,20,20,20,,,,,,,,,,,,,,,,,,,,,,,,,,,,,,,,,275.3523573237951,None,None,1,275.3523573237951,None,,,,,,,,,,,,,,,,,,,,,,,,,,,,,,,,,,,,,,,,,,,,,,delfinaD,001,a,2019_Oct_11_2010,Experimento,3.2.3,60.19450711245185,
8,14,14,999,0.5,0:10,3,Green,None,0,0,1,28:50,./completed_changuitos/montage_pqist_109.69_95.25.jpg,left,0,0,0,0,,,,,0,5,5,5,,,,,,,,,0,0,0,0,0,21,21,21,,,,,,,,,,,,,,,,,,,,,,,,,,,,,,,,,275.3523573237951,None,None,1,275.3523573237951,None,,,,,,,,,,,,,,,,,,,,,,,,,,,,,,,,,,,,,,,,,,,,,,delfinaD,001,a,2019_Oct_11_2010,Experimento,3.2.3,60.19450711245185,
8,14,14,999,0.5,0:10,3,,,0,0,1,28:50,./completed_changuitos/montage_pqist_109.69_95.25.jpg,left,0,0,0,0,,,,,0,5,5,5,,,,,,,,,0,0,0,0,,,,,,,,,,,,,,,,,,,,,,,,,,,,,,,,,,,,,,,,,,,,275.47015113999805,None,right,0,2.3929638600020553,275.47015113999805,None,275.47015113999805,None,,,,,,,,,,,,,,,,,,,,,,,,,,,,,,,,,,,,delfinaD,001,a,2019_Oct_11_2010,Experimento,3.2.3,60.19450711245185,
8,14,14,999,0.5,0:10,3,,,0,0,1,28:50,,,0,0,0,0,,,,,0,5,5,5,,,,,,,,,,,,,,,,,,,,,,,,,,,,,,,,,,,,,,,,,,,,,,,,,,,,,,,,,,,,,,,,,,,,,,,,,,,,,,,,,,,,,,,,,,,,,,,,,,,,delfinaD,001,a,2019_Oct_11_2010,Experimento,3.2.3,60.19450711245185,
8,14,14,999,0.5,0:10,3,,,0,1,0,10:50,./completed_changuitos/montage_cnlsi_99.4_113.99.jpg,right,0,0,0,0,,,,,0,6,6,6,,,,,0,0,0,0,,,,,,,,,,,,,,,,,,,,,,278.1726931279991,279.38734598799783,279.38734598799783,287.40166050900007,287.40166050900007,301.4019533929968,left,0,2.656182118000288,301.4019533929968,None,301.4019533929968,None,301.4019533929968,None,,,,,,,,,,,,,,,,,,,,,,,,,,,,,,,,,,,,,,,,,,,,,,,,,,,,,,,,delfinaD,001,a,2019_Oct_11_2010,Experimento,3.2.3,60.19450711245185,
8,14,14,999,0.5,0:10,3,,,0,1,0,10:50,,,0,0,0,0,,,,,0,6,6,6,,,,,,,,,,,,,,,,,,,,,,,,,,,,,,,,,,,,,,,,,,,,,,,,,,,,,,,,,,,,,,,,,,,,,,,,,,,,,,,,,,,,,,,,,,,,,,,,,,,,delfinaD,001,a,2019_Oct_11_2010,Experimento,3.2.3,60.19450711245185,
8,14,14,999,0.5,0:10,3,Yellow,None,0,0,1,15:50,./completed_changuitos/montage_uerbw_476.15_410.19.jpg,left,0,0,0,0,,,,,0,7,7,7,,,,,,,,,0,0,0,0,0,0,0,0,,,,,,,,,,,,,,,,,,,,,,,,,,,,,304.372242681995,305.0551658859986,305.0551658859986,None,313.08735685699503,313.6019861889945,None,1,313.08735685699503,None,,,,,,,,,,,,,,,,,,,,,,,,,,,,,,,,,,,,,,,,,,,,,,delfinaD,001,a,2019_Oct_11_2010,Experimento,3.2.3,60.19450711245185,
8,14,14,999,0.5,0:10,3,White,['space'],0,0,1,15:50,./completed_changuitos/montage_uerbw_476.15_410.19.jpg,left,0,0,0,0,,,,,0,7,7,7,,,,,,,,,0,0,0,0,0,1,1,1,,,,,,,,,,,,,,,,,,,,,,,,,,,,,,,,,315.1046074709957,315.61914444499416,None,0,315.1046074709957,315.1046074709957,,,,,,,,,,,,,,,,,,,,,,,,,,,,,,,,,,,,,,,,,,,,,,delfinaD,001,a,2019_Oct_11_2010,Experimento,3.2.3,60.19450711245185,
8,14,14,999,0.5,0:10,3,Magenta,None,0,0,1,15:50,./completed_changuitos/montage_uerbw_476.15_410.19.jpg,left,0,0,0,0,,,,,0,7,7,7,,,,,,,,,0,0,0,0,0,2,2,2,,,,,,,,,,,,,,,,,,,,,,,,,,,,,,,,,317.11934057799954,317.61883460999525,None,1,317.11934057799954,317.11934057799954,,,,,,,,,,,,,,,,,,,,,,,,,,,,,,,,,,,,,,,,,,,,,,delfinaD,001,a,2019_Oct_11_2010,Experimento,3.2.3,60.19450711245185,
8,14,14,999,0.5,0:10,3,Cyan,None,0,0,1,15:50,./completed_changuitos/montage_uerbw_476.15_410.19.jpg,left,0,0,0,0,,,,,0,7,7,7,,,,,,,,,0,0,0,0,0,3,3,3,,,,,,,,,,,,,,,,,,,,,,,,,,,,,,,,,319.11964980099583,319.6189473919949,None,1,319.11964980099583,319.11964980099583,,,,,,,,,,,,,,,,,,,,,,,,,,,,,,,,,,,,,,,,,,,,,,delfinaD,001,a,2019_Oct_11_2010,Experimento,3.2.3,60.19450711245185,
8,14,14,999,0.5,0:10,3,Blue,None,0,0,1,15:50,./completed_changuitos/montage_uerbw_476.15_410.19.jpg,left,0,0,0,0,,,,,0,7,7,7,,,,,,,,,0,0,0,0,0,4,4,4,,,,,,,,,,,,,,,,,,,,,,,,,,,,,,,,,321.1203606919953,321.6360544989948,None,1,321.1203606919953,321.1203606919953,,,,,,,,,,,,,,,,,,,,,,,,,,,,,,,,,,,,,,,,,,,,,,delfinaD,001,a,2019_Oct_11_2010,Experimento,3.2.3,60.19450711245185,
8,14,14,999,0.5,0:10,3,Magenta,None,0,0,1,15:50,./completed_changuitos/montage_uerbw_476.15_410.19.jpg,left,0,0,0,0,,,,,0,7,7,7,,,,,,,,,0,0,0,0,0,5,5,5,,,,,,,,,,,,,,,,,,,,,,,,,,,,,,,,,323.1362508489983,323.65275897600077,['return'],0,323.1362508489983,323.1362508489983,[0.4324165099969832],,,,,,,,,,,,,,,,,,,,,,,,,,,,,,,,,,,,,,,,,,,,,delfinaD,001,a,2019_Oct_11_2010,Experimento,3.2.3,60.19450711245185,
8,14,14,999,0.5,0:10,3,Blue,['space'],0,0,1,15:50,./completed_changuitos/montage_uerbw_476.15_410.19.jpg,left,0,0,0,0,,,,,0,7,7,7,,,,,,,,,0,0,0,0,0,6,6,6,,,,,,,,,,,,,,,,,,,,,,,,,,,,,,,,,325.15437922399724,325.6526519229956,None,0,325.15437922399724,325.15437922399724,,,,,,,,,,,,,,,,,,,,,,,,,,,,,,,,,,,,,,,,,,,,,,delfinaD,001,a,2019_Oct_11_2010,Experimento,3.2.3,60.19450711245185,
8,14,14,999,0.5,0:10,3,Cyan,None,0,0,1,15:50,./completed_changuitos/montage_uerbw_476.15_410.19.jpg,left,0,0,0,0,,,,,0,7,7,7,,,,,,,,,0,0,0,0,0,7,7,7,,,,,,,,,,,,,,,,,,,,,,,,,,,,,,,,,327.0691791758967,None,None,1,327.0691791758967,None,,,,,,,,,,,,,,,,,,,,,,,,,,,,,,,,,,,,,,,,,,,,,,delfinaD,001,a,2019_Oct_11_2010,Experimento,3.2.3,60.19450711245185,
8,14,14,999,0.5,0:10,3,Yellow,None,0,0,1,15:50,./completed_changuitos/montage_uerbw_476.15_410.19.jpg,left,0,0,0,0,,,,,0,7,7,7,,,,,,,,,0,0,0,0,0,8,8,8,,,,,,,,,,,,,,,,,,,,,,,,,,,,,,,,,327.0691791758967,None,None,1,327.0691791758967,None,,,,,,,,,,,,,,,,,,,,,,,,,,,,,,,,,,,,,,,,,,,,,,delfinaD,001,a,2019_Oct_11_2010,Experimento,3.2.3,60.19450711245185,
8,14,14,999,0.5,0:10,3,Cyan,None,0,0,1,15:50,./completed_changuitos/montage_uerbw_476.15_410.19.jpg,left,0,0,0,0,,,,,0,7,7,7,,,,,,,,,0,0,0,0,0,9,9,9,,,,,,,,,,,,,,,,,,,,,,,,,,,,,,,,,327.0691791758967,None,None,1,327.0691791758967,None,,,,,,,,,,,,,,,,,,,,,,,,,,,,,,,,,,,,,,,,,,,,,,delfinaD,001,a,2019_Oct_11_2010,Experimento,3.2.3,60.19450711245185,
8,14,14,999,0.5,0:10,3,Blue,None,0,0,1,15:50,./completed_changuitos/montage_uerbw_476.15_410.19.jpg,left,0,0,0,0,,,,,0,7,7,7,,,,,,,,,0,0,0,0,0,10,10,10,,,,,,,,,,,,,,,,,,,,,,,,,,,,,,,,,327.0691791758967,None,None,1,327.0691791758967,None,,,,,,,,,,,,,,,,,,,,,,,,,,,,,,,,,,,,,,,,,,,,,,delfinaD,001,a,2019_Oct_11_2010,Experimento,3.2.3,60.19450711245185,
8,14,14,999,0.5,0:10,3,Cyan,['space'],0,0,1,15:50,./completed_changuitos/montage_uerbw_476.15_410.19.jpg,left,0,0,0,0,,,,,0,7,7,7,,,,,,,,,0,0,0,0,0,11,11,11,,,,,,,,,,,,,,,,,,,,,,,,,,,,,,,,,327.0691791758967,None,None,0,327.0691791758967,None,,,,,,,,,,,,,,,,,,,,,,,,,,,,,,,,,,,,,,,,,,,,,,delfinaD,001,a,2019_Oct_11_2010,Experimento,3.2.3,60.19450711245185,
8,14,14,999,0.5,0:10,3,Magenta,None,0,0,1,15:50,./completed_changuitos/montage_uerbw_476.15_410.19.jpg,left,0,0,0,0,,,,,0,7,7,7,,,,,,,,,0,0,0,0,0,12,12,12,,,,,,,,,,,,,,,,,,,,,,,,,,,,,,,,,327.0691791758967,None,None,1,327.0691791758967,None,,,,,,,,,,,,,,,,,,,,,,,,,,,,,,,,,,,,,,,,,,,,,,delfinaD,001,a,2019_Oct_11_2010,Experimento,3.2.3,60.19450711245185,
8,14,14,999,0.5,0:10,3,Red,None,0,0,1,15:50,./completed_changuitos/montage_uerbw_476.15_410.19.jpg,left,0,0,0,0,,,,,0,7,7,7,,,,,,,,,0,0,0,0,0,13,13,13,,,,,,,,,,,,,,,,,,,,,,,,,,,,,,,,,327.0691791758967,None,None,1,327.0691791758967,None,,,,,,,,,,,,,,,,,,,,,,,,,,,,,,,,,,,,,,,,,,,,,,delfinaD,001,a,2019_Oct_11_2010,Experimento,3.2.3,60.19450711245185,
8,14,14,999,0.5,0:10,3,Magenta,['space'],0,0,1,15:50,./completed_changuitos/montage_uerbw_476.15_410.19.jpg,left,0,0,0,0,,,,,0,7,7,7,,,,,,,,,0,0,0,0,0,14,14,14,,,,,,,,,,,,,,,,,,,,,,,,,,,,,,,,,327.08553866379657,None,None,0,327.08553866379657,None,,,,,,,,,,,,,,,,,,,,,,,,,,,,,,,,,,,,,,,,,,,,,,delfinaD,001,a,2019_Oct_11_2010,Experimento,3.2.3,60.19450711245185,
8,14,14,999,0.5,0:10,3,Green,None,0,0,1,15:50,./completed_changuitos/montage_uerbw_476.15_410.19.jpg,left,0,0,0,0,,,,,0,7,7,7,,,,,,,,,0,0,0,0,0,15,15,15,,,,,,,,,,,,,,,,,,,,,,,,,,,,,,,,,327.08553866379657,None,None,1,327.08553866379657,None,,,,,,,,,,,,,,,,,,,,,,,,,,,,,,,,,,,,,,,,,,,,,,delfinaD,001,a,2019_Oct_11_2010,Experimento,3.2.3,60.19450711245185,
8,14,14,999,0.5,0:10,3,Yellow,['space'],0,0,1,15:50,./completed_changuitos/montage_uerbw_476.15_410.19.jpg,left,0,0,0,0,,,,,0,7,7,7,,,,,,,,,0,0,0,0,0,16,16,16,,,,,,,,,,,,,,,,,,,,,,,,,,,,,,,,,327.08553866379657,None,None,0,327.08553866379657,None,,,,,,,,,,,,,,,,,,,,,,,,,,,,,,,,,,,,,,,,,,,,,,delfinaD,001,a,2019_Oct_11_2010,Experimento,3.2.3,60.19450711245185,
8,14,14,999,0.5,0:10,3,Blue,None,0,0,1,15:50,./completed_changuitos/montage_uerbw_476.15_410.19.jpg,left,0,0,0,0,,,,,0,7,7,7,,,,,,,,,0,0,0,0,0,17,17,17,,,,,,,,,,,,,,,,,,,,,,,,,,,,,,,,,327.08553866379657,None,None,1,327.08553866379657,None,,,,,,,,,,,,,,,,,,,,,,,,,,,,,,,,,,,,,,,,,,,,,,delfinaD,001,a,2019_Oct_11_2010,Experimento,3.2.3,60.19450711245185,
8,14,14,999,0.5,0:10,3,Cyan,None,0,0,1,15:50,./completed_changuitos/montage_uerbw_476.15_410.19.jpg,left,0,0,0,0,,,,,0,7,7,7,,,,,,,,,0,0,0,0,0,18,18,18,,,,,,,,,,,,,,,,,,,,,,,,,,,,,,,,,327.08553866379657,None,None,1,327.08553866379657,None,,,,,,,,,,,,,,,,,,,,,,,,,,,,,,,,,,,,,,,,,,,,,,delfinaD,001,a,2019_Oct_11_2010,Experimento,3.2.3,60.19450711245185,
8,14,14,999,0.5,0:10,3,Blue,['space'],0,0,1,15:50,./completed_changuitos/montage_uerbw_476.15_410.19.jpg,left,0,0,0,0,,,,,0,7,7,7,,,,,,,,,0,0,0,0,0,19,19,19,,,,,,,,,,,,,,,,,,,,,,,,,,,,,,,,,327.08553866379657,None,None,0,327.08553866379657,None,,,,,,,,,,,,,,,,,,,,,,,,,,,,,,,,,,,,,,,,,,,,,,delfinaD,001,a,2019_Oct_11_2010,Experimento,3.2.3,60.19450711245185,
8,14,14,999,0.5,0:10,3,Yellow,None,0,0,1,15:50,./completed_changuitos/montage_uerbw_476.15_410.19.jpg,left,0,0,0,0,,,,,0,7,7,7,,,,,,,,,0,0,0,0,0,20,20,20,,,,,,,,,,,,,,,,,,,,,,,,,,,,,,,,,327.08553866379657,None,None,1,327.08553866379657,None,,,,,,,,,,,,,,,,,,,,,,,,,,,,,,,,,,,,,,,,,,,,,,delfinaD,001,a,2019_Oct_11_2010,Experimento,3.2.3,60.19450711245185,
8,14,14,999,0.5,0:10,3,Cyan,None,0,0,1,15:50,./completed_changuitos/montage_uerbw_476.15_410.19.jpg,left,0,0,0,0,,,,,0,7,7,7,,,,,,,,,0,0,0,0,0,21,21,21,,,,,,,,,,,,,,,,,,,,,,,,,,,,,,,,,327.08553866379657,None,None,1,327.08553866379657,None,,,,,,,,,,,,,,,,,,,,,,,,,,,,,,,,,,,,,,,,,,,,,,delfinaD,001,a,2019_Oct_11_2010,Experimento,3.2.3,60.19450711245185,
8,14,14,999,0.5,0:10,3,Yellow,['space'],0,0,1,15:50,./completed_changuitos/montage_uerbw_476.15_410.19.jpg,left,0,0,0,0,,,,,0,7,7,7,,,,,,,,,0,0,0,0,0,22,22,22,,,,,,,,,,,,,,,,,,,,,,,,,,,,,,,,,327.1018981516965,None,None,0,327.1018981516965,None,,,,,,,,,,,,,,,,,,,,,,,,,,,,,,,,,,,,,,,,,,,,,,delfinaD,001,a,2019_Oct_11_2010,Experimento,3.2.3,60.19450711245185,
8,14,14,999,0.5,0:10,3,Magenta,None,0,0,1,15:50,./completed_changuitos/montage_uerbw_476.15_410.19.jpg,left,0,0,0,0,,,,,0,7,7,7,,,,,,,,,0,0,0,0,0,23,23,23,,,,,,,,,,,,,,,,,,,,,,,,,,,,,,,,,327.1018981516965,None,None,1,327.1018981516965,None,,,,,,,,,,,,,,,,,,,,,,,,,,,,,,,,,,,,,,,,,,,,,,delfinaD,001,a,2019_Oct_11_2010,Experimento,3.2.3,60.19450711245185,
8,14,14,999,0.5,0:10,3,Red,None,0,0,1,15:50,./completed_changuitos/montage_uerbw_476.15_410.19.jpg,left,0,0,0,0,,,,,0,7,7,7,,,,,,,,,0,0,0,0,0,24,24,24,,,,,,,,,,,,,,,,,,,,,,,,,,,,,,,,,327.1018981516965,None,None,1,327.1018981516965,None,,,,,,,,,,,,,,,,,,,,,,,,,,,,,,,,,,,,,,,,,,,,,,delfinaD,001,a,2019_Oct_11_2010,Experimento,3.2.3,60.19450711245185,
8,14,14,999,0.5,0:10,3,Magenta,['space'],0,0,1,15:50,./completed_changuitos/montage_uerbw_476.15_410.19.jpg,left,0,0,0,0,,,,,0,7,7,7,,,,,,,,,0,0,0,0,0,25,25,25,,,,,,,,,,,,,,,,,,,,,,,,,,,,,,,,,327.1018981516965,None,None,0,327.1018981516965,None,,,,,,,,,,,,,,,,,,,,,,,,,,,,,,,,,,,,,,,,,,,,,,delfinaD,001,a,2019_Oct_11_2010,Experimento,3.2.3,60.19450711245185,
8,14,14,999,0.5,0:10,3,Red,['space'],0,0,1,15:50,./completed_changuitos/montage_uerbw_476.15_410.19.jpg,left,0,0,0,0,,,,,0,7,7,7,,,,,,,,,0,0,0,0,0,26,26,26,,,,,,,,,,,,,,,,,,,,,,,,,,,,,,,,,327.1018981516965,None,None,0,327.1018981516965,None,,,,,,,,,,,,,,,,,,,,,,,,,,,,,,,,,,,,,,,,,,,,,,delfinaD,001,a,2019_Oct_11_2010,Experimento,3.2.3,60.19450711245185,
8,14,14,999,0.5,0:10,3,Yellow,None,0,0,1,15:50,./completed_changuitos/montage_uerbw_476.15_410.19.jpg,left,0,0,0,0,,,,,0,7,7,7,,,,,,,,,0,0,0,0,0,27,27,27,,,,,,,,,,,,,,,,,,,,,,,,,,,,,,,,,327.1018981516965,None,None,1,327.1018981516965,None,,,,,,,,,,,,,,,,,,,,,,,,,,,,,,,,,,,,,,,,,,,,,,delfinaD,001,a,2019_Oct_11_2010,Experimento,3.2.3,60.19450711245185,
8,14,14,999,0.5,0:10,3,Cyan,None,0,0,1,15:50,./completed_changuitos/montage_uerbw_476.15_410.19.jpg,left,0,0,0,0,,,,,0,7,7,7,,,,,,,,,0,0,0,0,0,28,28,28,,,,,,,,,,,,,,,,,,,,,,,,,,,,,,,,,327.1018981516965,None,None,1,327.1018981516965,None,,,,,,,,,,,,,,,,,,,,,,,,,,,,,,,,,,,,,,,,,,,,,,delfinaD,001,a,2019_Oct_11_2010,Experimento,3.2.3,60.19450711245185,
8,14,14,999,0.5,0:10,3,Green,None,0,0,1,15:50,./completed_changuitos/montage_uerbw_476.15_410.19.jpg,left,0,0,0,0,,,,,0,7,7,7,,,,,,,,,0,0,0,0,0,29,29,29,,,,,,,,,,,,,,,,,,,,,,,,,,,,,,,,,327.1018981516965,None,None,1,327.1018981516965,None,,,,,,,,,,,,,,,,,,,,,,,,,,,,,,,,,,,,,,,,,,,,,,delfinaD,001,a,2019_Oct_11_2010,Experimento,3.2.3,60.19450711245185,
8,14,14,999,0.5,0:10,3,White,None,0,0,1,15:50,./completed_changuitos/montage_uerbw_476.15_410.19.jpg,left,0,0,0,0,,,,,0,7,7,7,,,,,,,,,0,0,0,0,0,30,30,30,,,,,,,,,,,,,,,,,,,,,,,,,,,,,,,,,327.1018981516965,None,None,1,327.1018981516965,None,,,,,,,,,,,,,,,,,,,,,,,,,,,,,,,,,,,,,,,,,,,,,,delfinaD,001,a,2019_Oct_11_2010,Experimento,3.2.3,60.19450711245185,
8,14,14,999,0.5,0:10,3,Green,['space'],0,0,1,15:50,./completed_changuitos/montage_uerbw_476.15_410.19.jpg,left,0,0,0,0,,,,,0,7,7,7,,,,,,,,,0,0,0,0,0,31,31,31,,,,,,,,,,,,,,,,,,,,,,,,,,,,,,,,,327.1018981516965,None,None,0,327.1018981516965,None,,,,,,,,,,,,,,,,,,,,,,,,,,,,,,,,,,,,,,,,,,,,,,delfinaD,001,a,2019_Oct_11_2010,Experimento,3.2.3,60.19450711245185,
8,14,14,999,0.5,0:10,3,Red,None,0,0,1,15:50,./completed_changuitos/montage_uerbw_476.15_410.19.jpg,left,0,0,0,0,,,,,0,7,7,7,,,,,,,,,0,0,0,0,0,32,32,32,,,,,,,,,,,,,,,,,,,,,,,,,,,,,,,,,327.1018981516965,None,None,1,327.1018981516965,None,,,,,,,,,,,,,,,,,,,,,,,,,,,,,,,,,,,,,,,,,,,,,,delfinaD,001,a,2019_Oct_11_2010,Experimento,3.2.3,60.19450711245185,
8,14,14,999,0.5,0:10,3,Blue,None,0,0,1,15:50,./completed_changuitos/montage_uerbw_476.15_410.19.jpg,left,0,0,0,0,,,,,0,7,7,7,,,,,,,,,0,0,0,0,0,33,33,33,,,,,,,,,,,,,,,,,,,,,,,,,,,,,,,,,327.1182576395964,None,None,1,327.1182576395964,None,,,,,,,,,,,,,,,,,,,,,,,,,,,,,,,,,,,,,,,,,,,,,,delfinaD,001,a,2019_Oct_11_2010,Experimento,3.2.3,60.19450711245185,
8,14,14,999,0.5,0:10,3,Green,None,0,0,1,15:50,./completed_changuitos/montage_uerbw_476.15_410.19.jpg,left,0,0,0,0,,,,,0,7,7,7,,,,,,,,,0,0,0,0,0,34,34,34,,,,,,,,,,,,,,,,,,,,,,,,,,,,,,,,,327.1182576395964,None,None,1,327.1182576395964,None,,,,,,,,,,,,,,,,,,,,,,,,,,,,,,,,,,,,,,,,,,,,,,delfinaD,001,a,2019_Oct_11_2010,Experimento,3.2.3,60.19450711245185,
8,14,14,999,0.5,0:10,3,,,0,0,1,15:50,./completed_changuitos/montage_uerbw_476.15_410.19.jpg,left,0,0,0,0,,,,,0,7,7,7,,,,,,,,,0,0,0,0,,,,,,,,,,,,,,,,,,,,,,,,,,,,,,,,,,,,,,,,,,,,327.21978039299574,None,right,0,3.5342826819978654,327.21978039299574,None,327.21978039299574,330.2350558580001,,,,,,,,,,,,,,,,,,,,,,,,,,,,,,,,,,,,delfinaD,001,a,2019_Oct_11_2010,Experimento,3.2.3,60.19450711245185,
8,14,14,999,0.5,0:10,3,,,0,0,1,15:50,,,0,0,0,0,,,,,0,7,7,7,,,,,,,,,,,,,,,,,,,,,,,,,,,,,,,,,,,,,,,,,,,,,,,,,,,,,,,,,,,,,,,,,,,,,,,,,,,,,,,,,,,,,,,,,,,,,,,,,,,,delfinaD,001,a,2019_Oct_11_2010,Experimento,3.2.3,60.19450711245185,
8,14,14,999,0.5,0:10,3,,,0,1,0,19:50,./completed_changuitos/montage_dxlru_106.79_123.05.jpg,right,0,0,0,0,,,,,0,8,8,8,,,,,0,0,0,0,,,,,,,,,,,,,,,,,,,,,,331.0725936009985,332.86953985099535,332.86953985099535,340.88447953300056,340.88447953300056,354.88479001900123,left,0,3.936456242998247,354.88479001900123,None,354.88479001900123,None,354.88479001900123,357.8850818399951,,,,,,,,,,,,,,,,,,,,,,,,,,,,,,,,,,,,,,,,,,,,,,,,,,,,,,,,delfinaD,001,a,2019_Oct_11_2010,Experimento,3.2.3,60.19450711245185,
8,14,14,999,0.5,0:10,3,,,0,1,0,19:50,,,0,0,0,0,,,,,0,8,8,8,,,,,,,,,,,,,,,,,,,,,,,,,,,,,,,,,,,,,,,,,,,,,,,,,,,,,,,,,,,,,,,,,,,,,,,,,,,,,,,,,,,,,,,,,,,,,,,,,,,,delfinaD,001,a,2019_Oct_11_2010,Experimento,3.2.3,60.19450711245185,
8,14,14,999,0.5,0:10,3,Magenta,None,0,0,1,20:50,./completed_changuitos/montage_ftwmd_46.0_40.35.jpg,left,0,0,0,0,,,,,0,9,9,9,,,,,,,,,0,0,0,0,0,0,0,0,,,,,,,,,,,,,,,,,,,,,,,,,,,,,359.17162404199917,361.86938271099643,361.86938271099643,None,369.91754180599673,370.4181583669997,None,1,369.91754180599673,None,,,,,,,,,,,,,,,,,,,,,,,,,,,,,,,,,,,,,,,,,,,,,,delfinaD,001,a,2019_Oct_11_2010,Experimento,3.2.3,60.19450711245185,
8,14,14,999,0.5,0:10,3,Blue,['space'],0,0,1,20:50,./completed_changuitos/montage_ftwmd_46.0_40.35.jpg,left,0,0,0,0,,,,,0,9,9,9,,,,,,,,,0,0,0,0,0,1,1,1,,,,,,,,,,,,,,,,,,,,,,,,,,,,,,,,,371.9183978199944,372.4182498519949,None,0,371.9183978199944,371.9183978199944,,,,,,,,,,,,,,,,,,,,,,,,,,,,,,,,,,,,,,,,,,,,,,delfinaD,001,a,2019_Oct_11_2010,Experimento,3.2.3,60.19450711245185,
8,14,14,999,0.5,0:10,3,Cyan,None,0,0,1,20:50,./completed_changuitos/montage_ftwmd_46.0_40.35.jpg,left,0,0,0,0,,,,,0,9,9,9,,,,,,,,,0,0,0,0,0,2,2,2,,,,,,,,,,,,,,,,,,,,,,,,,,,,,,,,,373.9179132049976,374.41843383899686,None,1,373.9179132049976,373.9179132049976,,,,,,,,,,,,,,,,,,,,,,,,,,,,,,,,,,,,,,,,,,,,,,delfinaD,001,a,2019_Oct_11_2010,Experimento,3.2.3,60.19450711245185,
8,14,14,999,0.5,0:10,3,Yellow,None,0,0,1,20:50,./completed_changuitos/montage_ftwmd_46.0_40.35.jpg,left,0,0,0,0,,,,,0,9,9,9,,,,,,,,,0,0,0,0,0,3,3,3,,,,,,,,,,,,,,,,,,,,,,,,,,,,,,,,,375.91940376699495,376.435410924998,None,1,375.91940376699495,375.91940376699495,,,,,,,,,,,,,,,,,,,,,,,,,,,,,,,,,,,,,,,,,,,,,,delfinaD,001,a,2019_Oct_11_2010,Experimento,3.2.3,60.19450711245185,
8,14,14,999,0.5,0:10,3,Cyan,None,0,0,1,20:50,./completed_changuitos/montage_ftwmd_46.0_40.35.jpg,left,0,0,0,0,,,,,0,9,9,9,,,,,,,,,0,0,0,0,0,4,4,4,,,,,,,,,,,,,,,,,,,,,,,,,,,,,,,,,377.9187182769965,378.41890150899417,None,1,377.9187182769965,377.9187182769965,,,,,,,,,,,,,,,,,,,,,,,,,,,,,,,,,,,,,,,,,,,,,,delfinaD,001,a,2019_Oct_11_2010,Experimento,3.2.3,60.19450711245185,
8,14,14,999,0.5,0:10,3,Blue,None,0,0,1,20:50,./completed_changuitos/montage_ftwmd_46.0_40.35.jpg,left,0,0,0,0,,,,,0,9,9,9,,,,,,,,,0,0,0,0,0,5,5,5,,,,,,,,,,,,,,,,,,,,,,,,,,,,,,,,,379.91914779899525,380.43525375199533,['return'],0,379.91914779899525,379.91914779899525,[0.36242109299928416],,,,,,,,,,,,,,,,,,,,,,,,,,,,,,,,,,,,,,,,,,,,,delfinaD,001,a,2019_Oct_11_2010,Experimento,3.2.3,60.19450711245185,
8,14,14,999,0.5,0:10,3,Cyan,['space'],0,0,1,20:50,./completed_changuitos/montage_ftwmd_46.0_40.35.jpg,left,0,0,0,0,,,,,0,9,9,9,,,,,,,,,0,0,0,0,0,6,6,6,,,,,,,,,,,,,,,,,,,,,,,,,,,,,,,,,381.9345298929984,382.4347106799978,None,0,381.9345298929984,381.9345298929984,,,,,,,,,,,,,,,,,,,,,,,,,,,,,,,,,,,,,,,,,,,,,,delfinaD,001,a,2019_Oct_11_2010,Experimento,3.2.3,60.19450711245185,
8,14,14,999,0.5,0:10,3,Magenta,None,0,0,1,20:50,./completed_changuitos/montage_ftwmd_46.0_40.35.jpg,left,0,0,0,0,,,,,0,9,9,9,,,,,,,,,0,0,0,0,0,7,7,7,,,,,,,,,,,,,,,,,,,,,,,,,,,,,,,,,383.8847958018981,None,None,1,383.8847958018981,None,,,,,,,,,,,,,,,,,,,,,,,,,,,,,,,,,,,,,,,,,,,,,,delfinaD,001,a,2019_Oct_11_2010,Experimento,3.2.3,60.19450711245185,
8,14,14,999,0.5,0:10,3,Red,None,0,0,1,20:50,./completed_changuitos/montage_ftwmd_46.0_40.35.jpg,left,0,0,0,0,,,,,0,9,9,9,,,,,,,,,0,0,0,0,0,8,8,8,,,,,,,,,,,,,,,,,,,,,,,,,,,,,,,,,383.8847958018981,None,None,1,383.8847958018981,None,,,,,,,,,,,,,,,,,,,,,,,,,,,,,,,,,,,,,,,,,,,,,,delfinaD,001,a,2019_Oct_11_2010,Experimento,3.2.3,60.19450711245185,
8,14,14,999,0.5,0:10,3,Magenta,['space'],0,0,1,20:50,./completed_changuitos/montage_ftwmd_46.0_40.35.jpg,left,0,0,0,0,,,,,0,9,9,9,,,,,,,,,0,0,0,0,0,9,9,9,,,,,,,,,,,,,,,,,,,,,,,,,,,,,,,,,383.8847958018981,None,None,0,383.8847958018981,None,,,,,,,,,,,,,,,,,,,,,,,,,,,,,,,,,,,,,,,,,,,,,,delfinaD,001,a,2019_Oct_11_2010,Experimento,3.2.3,60.19450711245185,
8,14,14,999,0.5,0:10,3,Green,None,0,0,1,20:50,./completed_changuitos/montage_ftwmd_46.0_40.35.jpg,left,0,0,0,0,,,,,0,9,9,9,,,,,,,,,0,0,0,0,0,10,10,10,,,,,,,,,,,,,,,,,,,,,,,,,,,,,,,,,383.8847958018981,None,None,1,383.8847958018981,None,,,,,,,,,,,,,,,,,,,,,,,,,,,,,,,,,,,,,,,,,,,,,,delfinaD,001,a,2019_Oct_11_2010,Experimento,3.2.3,60.19450711245185,
8,14,14,999,0.5,0:10,3,Yellow,['space'],0,0,1,20:50,./completed_changuitos/montage_ftwmd_46.0_40.35.jpg,left,0,0,0,0,,,,,0,9,9,9,,,,,,,,,0,0,0,0,0,11,11,11,,,,,,,,,,,,,,,,,,,,,,,,,,,,,,,,,383.8847958018981,None,None,0,383.8847958018981,None,,,,,,,,,,,,,,,,,,,,,,,,,,,,,,,,,,,,,,,,,,,,,,delfinaD,001,a,2019_Oct_11_2010,Experimento,3.2.3,60.19450711245185,
8,14,14,999,0.5,0:10,3,Blue,None,0,0,1,20:50,./completed_changuitos/montage_ftwmd_46.0_40.35.jpg,left,0,0,0,0,,,,,0,9,9,9,,,,,,,,,0,0,0,0,0,12,12,12,,,,,,,,,,,,,,,,,,,,,,,,,,,,,,,,,383.901155289798,None,None,1,383.901155289798,None,,,,,,,,,,,,,,,,,,,,,,,,,,,,,,,,,,,,,,,,,,,,,,delfinaD,001,a,2019_Oct_11_2010,Experimento,3.2.3,60.19450711245185,
8,14,14,999,0.5,0:10,3,Cyan,None,0,0,1,20:50,./completed_changuitos/montage_ftwmd_46.0_40.35.jpg,left,0,0,0,0,,,,,0,9,9,9,,,,,,,,,0,0,0,0,0,13,13,13,,,,,,,,,,,,,,,,,,,,,,,,,,,,,,,,,383.901155289798,None,None,1,383.901155289798,None,,,,,,,,,,,,,,,,,,,,,,,,,,,,,,,,,,,,,,,,,,,,,,delfinaD,001,a,2019_Oct_11_2010,Experimento,3.2.3,60.19450711245185,
8,14,14,999,0.5,0:10,3,Blue,['space'],0,0,1,20:50,./completed_changuitos/montage_ftwmd_46.0_40.35.jpg,left,0,0,0,0,,,,,0,9,9,9,,,,,,,,,0,0,0,0,0,14,14,14,,,,,,,,,,,,,,,,,,,,,,,,,,,,,,,,,383.901155289798,None,None,0,383.901155289798,None,,,,,,,,,,,,,,,,,,,,,,,,,,,,,,,,,,,,,,,,,,,,,,delfinaD,001,a,2019_Oct_11_2010,Experimento,3.2.3,60.19450711245185,
8,14,14,999,0.5,0:10,3,Yellow,None,0,0,1,20:50,./completed_changuitos/montage_ftwmd_46.0_40.35.jpg,left,0,0,0,0,,,,,0,9,9,9,,,,,,,,,0,0,0,0,0,15,15,15,,,,,,,,,,,,,,,,,,,,,,,,,,,,,,,,,383.901155289798,None,None,1,383.901155289798,None,,,,,,,,,,,,,,,,,,,,,,,,,,,,,,,,,,,,,,,,,,,,,,delfinaD,001,a,2019_Oct_11_2010,Experimento,3.2.3,60.19450711245185,
8,14,14,999,0.5,0:10,3,Cyan,None,0,0,1,20:50,./completed_changuitos/montage_ftwmd_46.0_40.35.jpg,left,0,0,0,0,,,,,0,9,9,9,,,,,,,,,0,0,0,0,0,16,16,16,,,,,,,,,,,,,,,,,,,,,,,,,,,,,,,,,383.901155289798,None,None,1,383.901155289798,None,,,,,,,,,,,,,,,,,,,,,,,,,,,,,,,,,,,,,,,,,,,,,,delfinaD,001,a,2019_Oct_11_2010,Experimento,3.2.3,60.19450711245185,
8,14,14,999,0.5,0:10,3,Yellow,['space'],0,0,1,20:50,./completed_changuitos/montage_ftwmd_46.0_40.35.jpg,left,0,0,0,0,,,,,0,9,9,9,,,,,,,,,0,0,0,0,0,17,17,17,,,,,,,,,,,,,,,,,,,,,,,,,,,,,,,,,383.901155289798,None,None,0,383.901155289798,None,,,,,,,,,,,,,,,,,,,,,,,,,,,,,,,,,,,,,,,,,,,,,,delfinaD,001,a,2019_Oct_11_2010,Experimento,3.2.3,60.19450711245185,
8,14,14,999,0.5,0:10,3,Magenta,None,0,0,1,20:50,./completed_changuitos/montage_ftwmd_46.0_40.35.jpg,left,0,0,0,0,,,,,0,9,9,9,,,,,,,,,0,0,0,0,0,18,18,18,,,,,,,,,,,,,,,,,,,,,,,,,,,,,,,,,383.901155289798,None,None,1,383.901155289798,None,,,,,,,,,,,,,,,,,,,,,,,,,,,,,,,,,,,,,,,,,,,,,,delfinaD,001,a,2019_Oct_11_2010,Experimento,3.2.3,60.19450711245185,
8,14,14,999,0.5,0:10,3,Red,None,0,0,1,20:50,./completed_changuitos/montage_ftwmd_46.0_40.35.jpg,left,0,0,0,0,,,,,0,9,9,9,,,,,,,,,0,0,0,0,0,19,19,19,,,,,,,,,,,,,,,,,,,,,,,,,,,,,,,,,383.901155289798,None,None,1,383.901155289798,None,,,,,,,,,,,,,,,,,,,,,,,,,,,,,,,,,,,,,,,,,,,,,,delfinaD,001,a,2019_Oct_11_2010,Experimento,3.2.3,60.19450711245185,
8,14,14,999,0.5,0:10,3,Magenta,['space'],0,0,1,20:50,./completed_changuitos/montage_ftwmd_46.0_40.35.jpg,left,0,0,0,0,,,,,0,9,9,9,,,,,,,,,0,0,0,0,0,20,20,20,,,,,,,,,,,,,,,,,,,,,,,,,,,,,,,,,383.901155289798,None,None,0,383.901155289798,None,,,,,,,,,,,,,,,,,,,,,,,,,,,,,,,,,,,,,,,,,,,,,,delfinaD,001,a,2019_Oct_11_2010,Experimento,3.2.3,60.19450711245185,
8,14,14,999,0.5,0:10,3,Red,['space'],0,0,1,20:50,./completed_changuitos/montage_ftwmd_46.0_40.35.jpg,left,0,0,0,0,,,,,0,9,9,9,,,,,,,,,0,0,0,0,0,21,21,21,,,,,,,,,,,,,,,,,,,,,,,,,,,,,,,,,383.901155289798,None,None,0,383.901155289798,None,,,,,,,,,,,,,,,,,,,,,,,,,,,,,,,,,,,,,,,,,,,,,,delfinaD,001,a,2019_Oct_11_2010,Experimento,3.2.3,60.19450711245185,
8,14,14,999,0.5,0:10,3,Yellow,None,0,0,1,20:50,./completed_changuitos/montage_ftwmd_46.0_40.35.jpg,left,0,0,0,0,,,,,0,9,9,9,,,,,,,,,0,0,0,0,0,22,22,22,,,,,,,,,,,,,,,,,,,,,,,,,,,,,,,,,383.91751477769793,None,None,1,383.91751477769793,None,,,,,,,,,,,,,,,,,,,,,,,,,,,,,,,,,,,,,,,,,,,,,,delfinaD,001,a,2019_Oct_11_2010,Experimento,3.2.3,60.19450711245185,
8,14,14,999,0.5,0:10,3,Cyan,None,0,0,1,20:50,./completed_changuitos/montage_ftwmd_46.0_40.35.jpg,left,0,0,0,0,,,,,0,9,9,9,,,,,,,,,0,0,0,0,0,23,23,23,,,,,,,,,,,,,,,,,,,,,,,,,,,,,,,,,383.91751477769793,None,None,1,383.91751477769793,None,,,,,,,,,,,,,,,,,,,,,,,,,,,,,,,,,,,,,,,,,,,,,,delfinaD,001,a,2019_Oct_11_2010,Experimento,3.2.3,60.19450711245185,
8,14,14,999,0.5,0:10,3,Green,None,0,0,1,20:50,./completed_changuitos/montage_ftwmd_46.0_40.35.jpg,left,0,0,0,0,,,,,0,9,9,9,,,,,,,,,0,0,0,0,0,24,24,24,,,,,,,,,,,,,,,,,,,,,,,,,,,,,,,,,383.91751477769793,None,None,1,383.91751477769793,None,,,,,,,,,,,,,,,,,,,,,,,,,,,,,,,,,,,,,,,,,,,,,,delfinaD,001,a,2019_Oct_11_2010,Experimento,3.2.3,60.19450711245185,
8,14,14,999,0.5,0:10,3,White,None,0,0,1,20:50,./completed_changuitos/montage_ftwmd_46.0_40.35.jpg,left,0,0,0,0,,,,,0,9,9,9,,,,,,,,,0,0,0,0,0,25,25,25,,,,,,,,,,,,,,,,,,,,,,,,,,,,,,,,,383.91751477769793,None,None,1,383.91751477769793,None,,,,,,,,,,,,,,,,,,,,,,,,,,,,,,,,,,,,,,,,,,,,,,delfinaD,001,a,2019_Oct_11_2010,Experimento,3.2.3,60.19450711245185,
8,14,14,999,0.5,0:10,3,Green,['space'],0,0,1,20:50,./completed_changuitos/montage_ftwmd_46.0_40.35.jpg,left,0,0,0,0,,,,,0,9,9,9,,,,,,,,,0,0,0,0,0,26,26,26,,,,,,,,,,,,,,,,,,,,,,,,,,,,,,,,,383.91751477769793,None,None,0,383.91751477769793,None,,,,,,,,,,,,,,,,,,,,,,,,,,,,,,,,,,,,,,,,,,,,,,delfinaD,001,a,2019_Oct_11_2010,Experimento,3.2.3,60.19450711245185,
8,14,14,999,0.5,0:10,3,Red,None,0,0,1,20:50,./completed_changuitos/montage_ftwmd_46.0_40.35.jpg,left,0,0,0,0,,,,,0,9,9,9,,,,,,,,,0,0,0,0,0,27,27,27,,,,,,,,,,,,,,,,,,,,,,,,,,,,,,,,,383.91751477769793,None,None,1,383.91751477769793,None,,,,,,,,,,,,,,,,,,,,,,,,,,,,,,,,,,,,,,,,,,,,,,delfinaD,001,a,2019_Oct_11_2010,Experimento,3.2.3,60.19450711245185,
8,14,14,999,0.5,0:10,3,Blue,None,0,0,1,20:50,./completed_changuitos/montage_ftwmd_46.0_40.35.jpg,left,0,0,0,0,,,,,0,9,9,9,,,,,,,,,0,0,0,0,0,28,28,28,,,,,,,,,,,,,,,,,,,,,,,,,,,,,,,,,383.91751477769793,None,None,1,383.91751477769793,None,,,,,,,,,,,,,,,,,,,,,,,,,,,,,,,,,,,,,,,,,,,,,,delfinaD,001,a,2019_Oct_11_2010,Experimento,3.2.3,60.19450711245185,
8,14,14,999,0.5,0:10,3,Green,None,0,0,1,20:50,./completed_changuitos/montage_ftwmd_46.0_40.35.jpg,left,0,0,0,0,,,,,0,9,9,9,,,,,,,,,0,0,0,0,0,29,29,29,,,,,,,,,,,,,,,,,,,,,,,,,,,,,,,,,383.91751477769793,None,None,1,383.91751477769793,None,,,,,,,,,,,,,,,,,,,,,,,,,,,,,,,,,,,,,,,,,,,,,,delfinaD,001,a,2019_Oct_11_2010,Experimento,3.2.3,60.19450711245185,
8,14,14,999,0.5,0:10,3,,,0,0,1,20:50,./completed_changuitos/montage_ftwmd_46.0_40.35.jpg,left,0,0,0,0,,,,,0,9,9,9,,,,,,,,,0,0,0,0,,,,,,,,,,,,,,,,,,,,,,,,,,,,,,,,,,,,,,,,,,,,384.0190093380006,None,left,1,3.29380059200048,384.0190093380006,None,384.0190093380006,387.0348079109972,,,,,,,,,,,,,,,,,,,,,,,,,,,,,,,,,,,,delfinaD,001,a,2019_Oct_11_2010,Experimento,3.2.3,60.19450711245185,
8,14,14,999,0.5,0:10,3,,,0,0,1,20:50,,,0,0,0,0,,,,,0,9,9,9,,,,,,,,,,,,,,,,,,,,,,,,,,,,,,,,,,,,,,,,,,,,,,,,,,,,,,,,,,,,,,,,,,,,,,,,,,,,,,,,,,,,,,,,,,,,,,,,,,,,delfinaD,001,a,2019_Oct_11_2010,Experimento,3.2.3,60.19450711245185,
8,14,14,999,0.5,0:10,3,,,0,1,0,25:50,./completed_changuitos/montage_odfqk_165.85_189.6.jpg,right,0,0,0,0,,,,,0,10,10,10,,,,,0,0,0,0,,,,,,,,,,,,,,,,,,,,,,387.6183791069998,388.41884054600087,388.41884054600087,396.43326025799615,396.43326025799615,410.4343814379972,right,1,2.9199783570002182,410.4343814379972,None,410.4343814379972,None,410.4343814379972,None,,,,,,,,,,,,,,,,,,,,,,,,,,,,,,,,,,,,,,,,,,,,,,,,,,,,,,,,delfinaD,001,a,2019_Oct_11_2010,Experimento,3.2.3,60.19450711245185,
8,14,14,999,0.5,0:10,3,,,0,1,0,25:50,,,0,0,0,0,,,,,0,10,10,10,,,,,,,,,,,,,,,,,,,,,,,,,,,,,,,,,,,,,,,,,,,,,,,,,,,,,,,,,,,,,,,,,,,,,,,,,,,,,,,,,,,,,,,,,,,,,,,,,,,,delfinaD,001,a,2019_Oct_11_2010,Experimento,3.2.3,60.19450711245185,
8,14,14,999,0.5,0:10,3,Red,None,0,0,1,28:50,./completed_changuitos/montage_fxvws_186.19_160.49.jpg,left,0,0,0,0,,,,,0,11,11,11,,,,,,,,,0,0,0,0,0,0,0,0,,,,,,,,,,,,,,,,,,,,,,,,,,,,,413.6191451189952,416.1202231819989,416.1202231819989,None,424.1665375329976,424.66709112299577,None,1,424.1665375329976,None,,,,,,,,,,,,,,,,,,,,,,,,,,,,,,,,,,,,,,,,,,,,,,delfinaD,001,a,2019_Oct_11_2010,Experimento,3.2.3,60.19450711245185,
8,14,14,999,0.5,0:10,3,Magenta,['space'],0,0,1,28:50,./completed_changuitos/montage_fxvws_186.19_160.49.jpg,left,0,0,0,0,,,,,0,11,11,11,,,,,,,,,0,0,0,0,0,1,1,1,,,,,,,,,,,,,,,,,,,,,,,,,,,,,,,,,426.1669797729992,426.66732388099626,None,0,426.1669797729992,426.1669797729992,,,,,,,,,,,,,,,,,,,,,,,,,,,,,,,,,,,,,,,,,,,,,,delfinaD,001,a,2019_Oct_11_2010,Experimento,3.2.3,60.19450711245185,
8,14,14,999,0.5,0:10,3,Green,None,0,0,1,28:50,./completed_changuitos/montage_fxvws_186.19_160.49.jpg,left,0,0,0,0,,,,,0,11,11,11,,,,,,,,,0,0,0,0,0,2,2,2,,,,,,,,,,,,,,,,,,,,,,,,,,,,,,,,,428.16766528399603,428.667293434999,None,1,428.16766528399603,428.16766528399603,,,,,,,,,,,,,,,,,,,,,,,,,,,,,,,,,,,,,,,,,,,,,,delfinaD,001,a,2019_Oct_11_2010,Experimento,3.2.3,60.19450711245185,
8,14,14,999,0.5,0:10,3,Yellow,['space'],0,0,1,28:50,./completed_changuitos/montage_fxvws_186.19_160.49.jpg,left,0,0,0,0,,,,,0,11,11,11,,,,,,,,,0,0,0,0,0,3,3,3,,,,,,,,,,,,,,,,,,,,,,,,,,,,,,,,,430.16712974899565,430.66732039899944,None,0,430.16712974899565,430.16712974899565,,,,,,,,,,,,,,,,,,,,,,,,,,,,,,,,,,,,,,,,,,,,,,delfinaD,001,a,2019_Oct_11_2010,Experimento,3.2.3,60.19450711245185,
8,14,14,999,0.5,0:10,3,Blue,None,0,0,1,28:50,./completed_changuitos/montage_fxvws_186.19_160.49.jpg,left,0,0,0,0,,,,,0,11,11,11,,,,,,,,,0,0,0,0,0,4,4,4,,,,,,,,,,,,,,,,,,,,,,,,,,,,,,,,,432.1671204640006,432.6675591530002,['return'],0,432.1671204640006,432.1671204640006,[0.8716903470049147],,,,,,,,,,,,,,,,,,,,,,,,,,,,,,,,,,,,,,,,,,,,,delfinaD,001,a,2019_Oct_11_2010,Experimento,3.2.3,60.19450711245185,
8,14,14,999,0.5,0:10,3,Cyan,None,0,0,1,28:50,./completed_changuitos/montage_fxvws_186.19_160.49.jpg,left,0,0,0,0,,,,,0,11,11,11,,,,,,,,,0,0,0,0,0,5,5,5,,,,,,,,,,,,,,,,,,,,,,,,,,,,,,,,,434.1690297929963,434.6840494479984,None,1,434.1690297929963,434.1690297929963,,,,,,,,,,,,,,,,,,,,,,,,,,,,,,,,,,,,,,,,,,,,,,delfinaD,001,a,2019_Oct_11_2010,Experimento,3.2.3,60.19450711245185,
8,14,14,999,0.5,0:10,3,Blue,['space'],0,0,1,28:50,./completed_changuitos/montage_fxvws_186.19_160.49.jpg,left,0,0,0,0,,,,,0,11,11,11,,,,,,,,,0,0,0,0,0,6,6,6,,,,,,,,,,,,,,,,,,,,,,,,,,,,,,,,,436.1837373379967,436.6840448419971,None,0,436.1837373379967,436.1837373379967,,,,,,,,,,,,,,,,,,,,,,,,,,,,,,,,,,,,,,,,,,,,,,delfinaD,001,a,2019_Oct_11_2010,Experimento,3.2.3,60.19450711245185,
8,14,14,999,0.5,0:10,3,Yellow,None,0,0,1,28:50,./completed_changuitos/montage_fxvws_186.19_160.49.jpg,left,0,0,0,0,,,,,0,11,11,11,,,,,,,,,0,0,0,0,0,7,7,7,,,,,,,,,,,,,,,,,,,,,,,,,,,,,,,,,438.13367445989786,None,None,1,438.13367445989786,None,,,,,,,,,,,,,,,,,,,,,,,,,,,,,,,,,,,,,,,,,,,,,,delfinaD,001,a,2019_Oct_11_2010,Experimento,3.2.3,60.19450711245185,
8,14,14,999,0.5,0:10,3,Cyan,None,0,0,1,28:50,./completed_changuitos/montage_fxvws_186.19_160.49.jpg,left,0,0,0,0,,,,,0,11,11,11,,,,,,,,,0,0,0,0,0,8,8,8,,,,,,,,,,,,,,,,,,,,,,,,,,,,,,,,,438.13367445989786,None,None,1,438.13367445989786,None,,,,,,,,,,,,,,,,,,,,,,,,,,,,,,,,,,,,,,,,,,,,,,delfinaD,001,a,2019_Oct_11_2010,Experimento,3.2.3,60.19450711245185,
8,14,14,999,0.5,0:10,3,Yellow,['space'],0,0,1,28:50,./completed_changuitos/montage_fxvws_186.19_160.49.jpg,left,0,0,0,0,,,,,0,11,11,11,,,,,,,,,0,0,0,0,0,9,9,9,,,,,,,,,,,,,,,,,,,,,,,,,,,,,,,,,438.13367445989786,None,None,0,438.13367445989786,None,,,,,,,,,,,,,,,,,,,,,,,,,,,,,,,,,,,,,,,,,,,,,,delfinaD,001,a,2019_Oct_11_2010,Experimento,3.2.3,60.19450711245185,
8,14,14,999,0.5,0:10,3,Magenta,None,0,0,1,28:50,./completed_changuitos/montage_fxvws_186.19_160.49.jpg,left,0,0,0,0,,,,,0,11,11,11,,,,,,,,,0,0,0,0,0,10,10,10,,,,,,,,,,,,,,,,,,,,,,,,,,,,,,,,,438.13367445989786,None,None,1,438.13367445989786,None,,,,,,,,,,,,,,,,,,,,,,,,,,,,,,,,,,,,,,,,,,,,,,delfinaD,001,a,2019_Oct_11_2010,Experimento,3.2.3,60.19450711245185,
8,14,14,999,0.5,0:10,3,Red,None,0,0,1,28:50,./completed_changuitos/montage_fxvws_186.19_160.49.jpg,left,0,0,0,0,,,,,0,11,11,11,,,,,,,,,0,0,0,0,0,11,11,11,,,,,,,,,,,,,,,,,,,,,,,,,,,,,,,,,438.13367445989786,None,None,1,438.13367445989786,None,,,,,,,,,,,,,,,,,,,,,,,,,,,,,,,,,,,,,,,,,,,,,,delfinaD,001,a,2019_Oct_11_2010,Experimento,3.2.3,60.19450711245185,
8,14,14,999,0.5,0:10,3,Magenta,['space'],0,0,1,28:50,./completed_changuitos/montage_fxvws_186.19_160.49.jpg,left,0,0,0,0,,,,,0,11,11,11,,,,,,,,,0,0,0,0,0,12,12,12,,,,,,,,,,,,,,,,,,,,,,,,,,,,,,,,,438.13367445989786,None,None,0,438.13367445989786,None,,,,,,,,,,,,,,,,,,,,,,,,,,,,,,,,,,,,,,,,,,,,,,delfinaD,001,a,2019_Oct_11_2010,Experimento,3.2.3,60.19450711245185,
8,14,14,999,0.5,0:10,3,Red,['space'],0,0,1,28:50,./completed_changuitos/montage_fxvws_186.19_160.49.jpg,left,0,0,0,0,,,,,0,11,11,11,,,,,,,,,0,0,0,0,0,13,13,13,,,,,,,,,,,,,,,,,,,,,,,,,,,,,,,,,438.13367445989786,None,None,0,438.13367445989786,None,,,,,,,,,,,,,,,,,,,,,,,,,,,,,,,,,,,,,,,,,,,,,,delfinaD,001,a,2019_Oct_11_2010,Experimento,3.2.3,60.19450711245185,
8,14,14,999,0.5,0:10,3,Yellow,None,0,0,1,28:50,./completed_changuitos/montage_fxvws_186.19_160.49.jpg,left,0,0,0,0,,,,,0,11,11,11,,,,,,,,,0,0,0,0,0,14,14,14,,,,,,,,,,,,,,,,,,,,,,,,,,,,,,,,,438.15003394779774,None,None,1,438.15003394779774,None,,,,,,,,,,,,,,,,,,,,,,,,,,,,,,,,,,,,,,,,,,,,,,delfinaD,001,a,2019_Oct_11_2010,Experimento,3.2.3,60.19450711245185,
8,14,14,999,0.5,0:10,3,Cyan,None,0,0,1,28:50,./completed_changuitos/montage_fxvws_186.19_160.49.jpg,left,0,0,0,0,,,,,0,11,11,11,,,,,,,,,0,0,0,0,0,15,15,15,,,,,,,,,,,,,,,,,,,,,,,,,,,,,,,,,438.15003394779774,None,None,1,438.15003394779774,None,,,,,,,,,,,,,,,,,,,,,,,,,,,,,,,,,,,,,,,,,,,,,,delfinaD,001,a,2019_Oct_11_2010,Experimento,3.2.3,60.19450711245185,
8,14,14,999,0.5,0:10,3,Green,None,0,0,1,28:50,./completed_changuitos/montage_fxvws_186.19_160.49.jpg,left,0,0,0,0,,,,,0,11,11,11,,,,,,,,,0,0,0,0,0,16,16,16,,,,,,,,,,,,,,,,,,,,,,,,,,,,,,,,,438.15003394779774,None,None,1,438.15003394779774,None,,,,,,,,,,,,,,,,,,,,,,,,,,,,,,,,,,,,,,,,,,,,,,delfinaD,001,a,2019_Oct_11_2010,Experimento,3.2.3,60.19450711245185,
8,14,14,999,0.5,0:10,3,White,None,0,0,1,28:50,./completed_changuitos/montage_fxvws_186.19_160.49.jpg,left,0,0,0,0,,,,,0,11,11,11,,,,,,,,,0,0,0,0,0,17,17,17,,,,,,,,,,,,,,,,,,,,,,,,,,,,,,,,,438.15003394779774,None,None,1,438.15003394779774,None,,,,,,,,,,,,,,,,,,,,,,,,,,,,,,,,,,,,,,,,,,,,,,delfinaD,001,a,2019_Oct_11_2010,Experimento,3.2.3,60.19450711245185,
8,14,14,999,0.5,0:10,3,Green,['space'],0,0,1,28:50,./completed_changuitos/montage_fxvws_186.19_160.49.jpg,left,0,0,0,0,,,,,0,11,11,11,,,,,,,,,0,0,0,0,0,18,18,18,,,,,,,,,,,,,,,,,,,,,,,,,,,,,,,,,438.15003394779774,None,None,0,438.15003394779774,None,,,,,,,,,,,,,,,,,,,,,,,,,,,,,,,,,,,,,,,,,,,,,,delfinaD,001,a,2019_Oct_11_2010,Experimento,3.2.3,60.19450711245185,
8,14,14,999,0.5,0:10,3,Red,None,0,0,1,28:50,./completed_changuitos/montage_fxvws_186.19_160.49.jpg,left,0,0,0,0,,,,,0,11,11,11,,,,,,,,,0,0,0,0,0,19,19,19,,,,,,,,,,,,,,,,,,,,,,,,,,,,,,,,,438.15003394779774,None,None,1,438.15003394779774,None,,,,,,,,,,,,,,,,,,,,,,,,,,,,,,,,,,,,,,,,,,,,,,delfinaD,001,a,2019_Oct_11_2010,Experimento,3.2.3,60.19450711245185,
8,14,14,999,0.5,0:10,3,Blue,None,0,0,1,28:50,./completed_changuitos/montage_fxvws_186.19_160.49.jpg,left,0,0,0,0,,,,,0,11,11,11,,,,,,,,,0,0,0,0,0,20,20,20,,,,,,,,,,,,,,,,,,,,,,,,,,,,,,,,,438.15003394779774,None,None,1,438.15003394779774,None,,,,,,,,,,,,,,,,,,,,,,,,,,,,,,,,,,,,,,,,,,,,,,delfinaD,001,a,2019_Oct_11_2010,Experimento,3.2.3,60.19450711245185,
8,14,14,999,0.5,0:10,3,Green,None,0,0,1,28:50,./completed_changuitos/montage_fxvws_186.19_160.49.jpg,left,0,0,0,0,,,,,0,11,11,11,,,,,,,,,0,0,0,0,0,21,21,21,,,,,,,,,,,,,,,,,,,,,,,,,,,,,,,,,438.15003394779774,None,None,1,438.15003394779774,None,,,,,,,,,,,,,,,,,,,,,,,,,,,,,,,,,,,,,,,,,,,,,,delfinaD,001,a,2019_Oct_11_2010,Experimento,3.2.3,60.19450711245185,
8,14,14,999,0.5,0:10,3,,,0,0,1,28:50,./completed_changuitos/montage_fxvws_186.19_160.49.jpg,left,0,0,0,0,,,,,0,11,11,11,,,,,,,,,0,0,0,0,,,,,,,,,,,,,,,,,,,,,,,,,,,,,,,,,,,,,,,,,,,,438.2549723419943,None,left,1,3.376324021999608,438.2549723419943,None,438.2549723419943,441.26688193099835,,,,,,,,,,,,,,,,,,,,,,,,,,,,,,,,,,,,delfinaD,001,a,2019_Oct_11_2010,Experimento,3.2.3,60.19450711245185,
8,14,14,999,0.5,0:10,3,,,0,0,1,28:50,,,0,0,0,0,,,,,0,11,11,11,,,,,,,,,,,,,,,,,,,,,,,,,,,,,,,,,,,,,,,,,,,,,,,,,,,,,,,,,,,,,,,,,,,,,,,,,,,,,,,,,,,,,,,,,,,,,,,,,,,,delfinaD,001,a,2019_Oct_11_2010,Experimento,3.2.3,60.19450711245185,
8,14,14,999,0.5,0:10,3,,,1,0,0,30:50,./completed_changuitos/montage_ohbjp_63.15_72.75.jpg,right,0,0,0,0,,,,,0,12,12,12,0,0,0,0,,,,,,,,,,,,,,,,,,,,,,,,,,,,,,,,,,,,,,,,,,,,,,,,,,,,,,,,,,,,,442.4177866799946,443.2864288759956,443.2864288759956,451.2991511250002,right,1,1.7176996990019688,451.2991511250002,None,451.2991511250002,None,451.2991511250002,None,,,,,,,,,,,,,,,,,,,,,,,delfinaD,001,a,2019_Oct_11_2010,Experimento,3.2.3,60.19450711245185,
8,14,14,999,0.5,0:10,3,,,1,0,0,30:50,,,0,0,0,0,,,,,0,12,12,12,,,,,,,,,,,,,,,,,,,,,,,,,,,,,,,,,,,,,,,,,,,,,,,,,,,,,,,,,,,,,,,,,,,,,,,,,,,,,,,,,,,,,,,,,,,,,,,,,,,,delfinaD,001,a,2019_Oct_11_2010,Experimento,3.2.3,60.19450711245185,
8,14,14,999,0.5,0:10,3,,,1,0,0,32:50,./completed_changuitos/montage_byuco_154.09_135.89.jpg,left,0,0,0,0,,,,,0,13,13,13,0,0,0,0,,,,,,,,,,,,,,,,,,,,,,,,,,,,,,,,,,,,,,,,,,,,,,,,,,,,,,,,,,,,,453.8342950599981,454.7027062479974,454.7027062479974,462.71634850799455,left,1,2.556245104999107,462.71634850799455,None,462.71634850799455,None,462.71634850799455,None,,,,,,,,,,,,,,,,,,,,,,,delfinaD,001,a,2019_Oct_11_2010,Experimento,3.2.3,60.19450711245185,
8,14,14,999,0.5,0:10,3,,,1,0,0,32:50,,,0,0,0,0,,,,,0,13,13,13,,,,,,,,,,,,,,,,,,,,,,,,,,,,,,,,,,,,,,,,,,,,,,,,,,,,,,,,,,,,,,,,,,,,,,,,,,,,,,,,,,,,,,,,,,,,,,,,,,,,delfinaD,001,a,2019_Oct_11_2010,Experimento,3.2.3,60.19450711245185,
8,14,14,999,0.5,0:10,3,,,1,0,0,34:50,./completed_changuitos/montage_zrxgs_62.05_54.05.jpg,left,0,0,0,0,,,,,0,14,14,14,0,0,0,0,,,,,,,,,,,,,,,,,,,,,,,,,,,,,,,,,,,,,,,,,,,,,,,,,,,,,,,,,,,,,466.1010163329993,466.91921419400023,466.91921419400023,474.93281012999796,left,1,1.851782944999286,474.93281012999796,None,474.93281012999796,None,474.93281012999796,None,,,,,,,,,,,,,,,,,,,,,,,delfinaD,001,a,2019_Oct_11_2010,Experimento,3.2.3,60.19450711245185,
8,14,14,999,0.5,0:10,3,,,1,0,0,34:50,,,0,0,0,0,,,,,0,14,14,14,,,,,,,,,,,,,,,,,,,,,,,,,,,,,,,,,,,,,,,,,,,,,,,,,,,,,,,,,,,,,,,,,,,,,,,,,,,,,,,,,,,,,,,,,,,,,,,,,,,,delfinaD,001,a,2019_Oct_11_2010,Experimento,3.2.3,60.19450711245185,
8,14,14,999,0.5,0:10,3,,,1,0,0,30:50,./completed_changuitos/montage_myymq_138.49_160.49.jpg,right,0,0,0,0,,,,,0,15,15,15,0,0,0,0,,,,,,,,,,,,,,,,,,,,,,,,,,,,,,,,,,,,,,,,,,,,,,,,,,,,,,,,,,,,,477.63411598899984,478.50250534399675,478.50250534399675,486.51602944899787,left,0,3.545383614000457,486.51602944899787,None,486.51602944899787,None,486.51602944899787,489.5159558960004,,,,,,,,,,,,,,,,,,,,,,,delfinaD,001,a,2019_Oct_11_2010,Experimento,3.2.3,60.19450711245185,
8,14,14,999,0.5,0:10,3,,,1,0,0,30:50,,,0,0,0,0,,,,,0,15,15,15,,,,,,,,,,,,,,,,,,,,,,,,,,,,,,,,,,,,,,,,,,,,,,,,,,,,,,,,,,,,,,,,,,,,,,,,,,,,,,,,,,,,,,,,,,,,,,,,,,,,delfinaD,001,a,2019_Oct_11_2010,Experimento,3.2.3,60.19450711245185,
8,14,14,999,0.5,0:10,3,,,1,0,0,32:50,./completed_changuitos/montage_qoeme_32.55_36.39.jpg,right,0,0,0,0,,,,,0,16,16,16,0,0,0,0,,,,,,,,,,,,,,,,,,,,,,,,,,,,,,,,,,,,,,,,,,,,,,,,,,,,,,,,,,,,,490.9005136389969,492.0366290050006,492.0366290050006,500.04882834299497,left,0,0.8320978699994157,500.04882834299497,None,500.04882834299497,None,500.04882834299497,None,,,,,,,,,,,,,,,,,,,,,,,delfinaD,001,a,2019_Oct_11_2010,Experimento,3.2.3,60.19450711245185,
8,14,14,999,0.5,0:10,3,,,1,0,0,32:50,,,0,0,0,0,,,,,0,16,16,16,,,,,,,,,,,,,,,,,,,,,,,,,,,,,,,,,,,,,,,,,,,,,,,,,,,,,,,,,,,,,,,,,,,,,,,,,,,,,,,,,,,,,,,,,,,,,,,,,,,,delfinaD,001,a,2019_Oct_11_2010,Experimento,3.2.3,60.19450711245185,
8,14,14,999,0.5,0:10,3,,,1,0,0,34:50,./completed_changuitos/montage_lceqc_146.19_171.09.jpg,right,0,0,0,0,,,,,0,17,17,17,0,0,0,0,,,,,,,,,,,,,,,,,,,,,,,,,,,,,,,,,,,,,,,,,,,,,,,,,,,,,,,,,,,,,501.6990891329988,502.4705560049988,502.4705560049988,510.48206542499975,left,0,0.49083195199636975,510.48206542499975,None,510.48206542499975,None,510.48206542499975,None,,,,,,,,,,,,,,,,,,,,,,,delfinaD,001,a,2019_Oct_11_2010,Experimento,3.2.3,60.19450711245185,
8,14,14,999,0.5,0:10,3,,,1,0,0,34:50,,,0,0,0,0,,,,,0,17,17,17,,,,,,,,,,,,,,,,,,,,,,,,,,,,,,,,,,,,,,,,,,,,,,,,,,,,,,,,,,,,,,,,,,,,,,,,,,,,,,,,,,,,,,,,,,,,,,,,,,,,delfinaD,001,a,2019_Oct_11_2010,Experimento,3.2.3,60.19450711245185,
8,14,14,999,0.5,0:10,3,,,,,,,,,0,0,0,0,,,,,,,,,,,,,,,,,,,,,,,,,,,,,,,,,,,,,,,,,,,,,,,,,,,,,,,,,,,,,,,,,,,,,,,,,,,,,,,,,,,,,,511.0830264019969,511.78269498900045,6,11.2897965259981,511.78269498900045,None,511.78269498900045,None,c,11.947368514993286,523.1168234819997,None,523.1168234819997,None,523.1168234819997,None,535.0828064399975,None,4,7.91055402100028,535.0828064399975,None,delfinaD,001,a,2019_Oct_11_2010,Experimento,3.2.3,60.19450711245185,
