changuito_time_to_show,time_to_think,time_to_play,total_items,nback_stimulus_time,nback_training,time_to_show_tiny_stimulus,colourtest,corresp,inmediato,consciente,inconsciente,nback_slice,imagen,correcta,trials_5.thisRepN,trials_5.thisTrialN,trials_5.thisN,trials_5.thisIndex,nback_train.thisRepN,nback_train.thisTrialN,nback_train.thisN,nback_train.thisIndex,treatment_order.thisRepN,treatment_order.thisTrialN,treatment_order.thisN,treatment_order.thisIndex,trials.thisRepN,trials.thisTrialN,trials.thisN,trials.thisIndex,trials_2.thisRepN,trials_2.thisTrialN,trials_2.thisN,trials_2.thisIndex,trials_3.thisRepN,trials_3.thisTrialN,trials_3.thisN,trials_3.thisIndex,trials_4.thisRepN,trials_4.thisTrialN,trials_4.thisN,trials_4.thisIndex,Presentacion.started,Presentacion.stopped,Juego.started,Juego.stopped,image_6.started,image_6.stopped,polygon.started,polygon.stopped,nback_train_resp.keys,nback_train_resp.corr,nback_train_resp.started,nback_train_resp.stopped,nback_train_resp.rt,holi.started,holi.stopped,image_3.started,image_3.stopped,polygon_2.started,polygon_2.stopped,nback_train_resp_2.keys,nback_train_resp_2.corr,nback_train_resp_2.started,nback_train_resp_2.stopped,nback_train_resp_2.rt,text_2.started,text_2.stopped,key_resp.keys,key_resp.corr,key_resp.rt,key_resp.started,key_resp.stopped,image_5.started,image_5.stopped,hola.started,hola.stopped,image_2.started,image_2.stopped,tiempo_para_pensar.started,tiempo_para_pensar.stopped,respuesta_consciente.keys,respuesta_consciente.corr,respuesta_consciente.rt,respuesta_consciente.started,respuesta_consciente.stopped,cual_es_la_mas_barata.started,cual_es_la_mas_barata.stopped,image_4.started,image_4.stopped,text.started,text.stopped,image.started,image.stopped,respuesta_inmediato.keys,respuesta_inmediato.corr,respuesta_inmediato.rt,respuesta_inmediato.started,respuesta_inmediato.stopped,pregunta_cual_es_el_mas_barato.started,pregunta_cual_es_el_mas_barato.stopped,short_stim1.started,short_stim1.stopped,gracias.started,gracias.stopped,respuesta1.keys,respuesta1.rt,respuesta1.started,respuesta1.stopped,pregunta1.started,pregunta1.stopped,respuesta3bis_3.keys,respuesta3bis_3.rt,respuesta3bis_3.started,respuesta3bis_3.stopped,pregunta3_3.started,pregunta3_3.stopped,productoCon3RANGOSabc_3.started,productoCon3RANGOSabc_3.stopped,text_3.started,text_3.stopped,key_resp_2.keys,key_resp_2.rt,key_resp_2.started,key_resp_2.stopped,participant,session,group,date,expName,psychopyVersion,frameRate,
8,14,14,999,0.5,0:10,3,White,None,,,,,,,0,0,0,0,0,0,0,0,,,,,,,,,,,,,,,,,,,,,45.36716066599911,None,69.78270863399666,None,69.78270863399666,None,111.1824490930012,111.66463349900005,None,1,111.1824490930012,None,,,,,,,,,,,,,,,,,,,,,,,,,,,,,,,,,,,,,,,,,,,,,,,,,,,,,,,,,,,,,,,,,,,,,,,,EstebanL,001,d,2019_Oct_10_1449,Experimento,3.1.5,60.371407556033546,
8,14,14,999,0.5,0:10,3,Red,None,,,,,,,0,0,0,0,0,1,1,1,,,,,,,,,,,,,,,,,,,,,,,,,,,113.18445636700199,113.66595061700355,None,1,113.18445636700199,None,,,,,,,,,,,,,,,,,,,,,,,,,,,,,,,,,,,,,,,,,,,,,,,,,,,,,,,,,,,,,,,,,,,,,,,,EstebanL,001,d,2019_Oct_10_1449,Experimento,3.1.5,60.371407556033546,
8,14,14,999,0.5,0:10,3,Magenta,None,,,,,,,0,0,0,0,0,2,2,2,,,,,,,,,,,,,,,,,,,,,,,,,,,115.18506794900168,115.66689818700252,None,1,115.18506794900168,None,,,,,,,,,,,,,,,,,,,,,,,,,,,,,,,,,,,,,,,,,,,,,,,,,,,,,,,,,,,,,,,,,,,,,,,,EstebanL,001,d,2019_Oct_10_1449,Experimento,3.1.5,60.371407556033546,
8,14,14,999,0.5,0:10,3,Cyan,None,,,,,,,0,0,0,0,0,3,3,3,,,,,,,,,,,,,,,,,,,,,,,,,,,117.18640673199843,117.66751497599762,None,1,117.18640673199843,None,,,,,,,,,,,,,,,,,,,,,,,,,,,,,,,,,,,,,,,,,,,,,,,,,,,,,,,,,,,,,,,,,,,,,,,,EstebanL,001,d,2019_Oct_10_1449,Experimento,3.1.5,60.371407556033546,
8,14,14,999,0.5,0:10,3,Magenta,['space'],,,,,,,0,0,0,0,0,4,4,4,,,,,,,,,,,,,,,,,,,,,,,,,,,119.18723393200344,119.66882836700097,None,0,119.18723393200344,None,,,,,,,,,,,,,,,,,,,,,,,,,,,,,,,,,,,,,,,,,,,,,,,,,,,,,,,,,,,,,,,,,,,,,,,,EstebanL,001,d,2019_Oct_10_1449,Experimento,3.1.5,60.371407556033546,
8,14,14,999,0.5,0:10,3,Green,None,,,,,,,0,0,0,0,0,5,5,5,,,,,,,,,,,,,,,,,,,,,,,,,,,121.20364493299712,121.6694053129977,None,1,121.20364493299712,None,,,,,,,,,,,,,,,,,,,,,,,,,,,,,,,,,,,,,,,,,,,,,,,,,,,,,,,,,,,,,,,,,,,,,,,,EstebanL,001,d,2019_Oct_10_1449,Experimento,3.1.5,60.371407556033546,
8,14,14,999,0.5,0:10,3,White,None,,,,,,,0,0,0,0,0,6,6,6,,,,,,,,,,,,,,,,,,,,,,,,,,,123.1874977740008,123.67092121599853,None,1,123.1874977740008,None,,,,,,,,,,,,,,,,,,,,,,,,,,,,,,,,,,,,,,,,,,,,,,,,,,,,,,,,,,,,,,,,,,,,,,,,EstebanL,001,d,2019_Oct_10_1449,Experimento,3.1.5,60.371407556033546,
8,14,14,999,0.5,0:10,3,Green,['space'],,,,,,,0,0,0,0,0,7,7,7,,,,,,,,,,,,,,,,,,,,,,,,,,,125.18918954399851,125.67210983800032,['return'],0,125.18918954399851,None,[0.6037604020020808],,,,,,,,,,,,,,,,,,,,,,,,,,,,,,,,,,,,,,,,,,,,,,,,,,,,,,,,,,,,,,,,,,,,,,,EstebanL,001,d,2019_Oct_10_1449,Experimento,3.1.5,60.371407556033546,
8,14,14,999,0.5,0:10,3,Blue,None,,,,,,,0,0,0,0,0,8,8,8,,,,,,,,,,,,,,,,,,,,,,,,,,,127.1905407459999,127.67238824500237,['return'],0,127.1905407459999,None,[1.0711390770011349],,,,,,,,,,,,,,,,,,,,,,,,,,,,,,,,,,,,,,,,,,,,,,,,,,,,,,,,,,,,,,,,,,,,,,,EstebanL,001,d,2019_Oct_10_1449,Experimento,3.1.5,60.371407556033546,
8,14,14,999,0.5,0:10,3,Green,['space'],,,,,,,0,0,0,0,0,9,9,9,,,,,,,,,,,,,,,,,,,,,,,,,,,129.19028991300002,129.67357097200147,None,0,129.19028991300002,None,,,,,,,,,,,,,,,,,,,,,,,,,,,,,,,,,,,,,,,,,,,,,,,,,,,,,,,,,,,,,,,,,,,,,,,,EstebanL,001,d,2019_Oct_10_1449,Experimento,3.1.5,60.371407556033546,
8,14,14,999,0.5,0:10,3,Magenta,None,0,0,1,20:50,./completed_changuitos/montage_jbcut_128.95_148.75.jpg,right,0,0,0,0,,,,,0,0,0,0,,,,,,,,,0,0,0,0,0,0,0,0,,,,,,,,,,,,,,131.36334506399726,146.05085506600153,146.05085506600153,None,154.08518658600224,154.5683166450035,None,1,154.08518658600224,None,,,,,,,,,,,,,,,,,,,,,,,,,,,,,,,,,,,,,,,,,,,,,,,,,,,,,,,,,,,,,EstebanL,001,d,2019_Oct_10_1449,Experimento,3.1.5,60.371407556033546,
8,14,14,999,0.5,0:10,3,Blue,['space'],0,0,1,20:50,./completed_changuitos/montage_jbcut_128.95_148.75.jpg,right,0,0,0,0,,,,,0,0,0,0,,,,,,,,,0,0,0,0,0,1,1,1,,,,,,,,,,,,,,,,,,156.0888261500004,156.5696138659987,None,0,156.0888261500004,None,,,,,,,,,,,,,,,,,,,,,,,,,,,,,,,,,,,,,,,,,,,,,,,,,,,,,,,,,,,,,EstebanL,001,d,2019_Oct_10_1449,Experimento,3.1.5,60.371407556033546,
8,14,14,999,0.5,0:10,3,Cyan,None,0,0,1,20:50,./completed_changuitos/montage_jbcut_128.95_148.75.jpg,right,0,0,0,0,,,,,0,0,0,0,,,,,,,,,0,0,0,0,0,2,2,2,,,,,,,,,,,,,,,,,,158.08934238099755,158.57055264300288,None,1,158.08934238099755,None,,,,,,,,,,,,,,,,,,,,,,,,,,,,,,,,,,,,,,,,,,,,,,,,,,,,,,,,,,,,,EstebanL,001,d,2019_Oct_10_1449,Experimento,3.1.5,60.371407556033546,
8,14,14,999,0.5,0:10,3,Yellow,None,0,0,1,20:50,./completed_changuitos/montage_jbcut_128.95_148.75.jpg,right,0,0,0,0,,,,,0,0,0,0,,,,,,,,,0,0,0,0,0,3,3,3,,,,,,,,,,,,,,,,,,160.0900930650023,160.57164449200354,None,1,160.0900930650023,None,,,,,,,,,,,,,,,,,,,,,,,,,,,,,,,,,,,,,,,,,,,,,,,,,,,,,,,,,,,,,EstebanL,001,d,2019_Oct_10_1449,Experimento,3.1.5,60.371407556033546,
8,14,14,999,0.5,0:10,3,Cyan,None,0,0,1,20:50,./completed_changuitos/montage_jbcut_128.95_148.75.jpg,right,0,0,0,0,,,,,0,0,0,0,,,,,,,,,0,0,0,0,0,4,4,4,,,,,,,,,,,,,,,,,,162.08967946100165,162.57333914800256,['return'],0,162.08967946100165,None,[0.8587872399948537],,,,,,,,,,,,,,,,,,,,,,,,,,,,,,,,,,,,,,,,,,,,,,,,,,,,,,,,,,,,EstebanL,001,d,2019_Oct_10_1449,Experimento,3.1.5,60.371407556033546,
8,14,14,999,0.5,0:10,3,Blue,None,0,0,1,20:50,./completed_changuitos/montage_jbcut_128.95_148.75.jpg,right,0,0,0,0,,,,,0,0,0,0,,,,,,,,,0,0,0,0,0,5,5,5,,,,,,,,,,,,,,,,,,164.09256545200333,164.5733975519979,None,1,164.09256545200333,None,,,,,,,,,,,,,,,,,,,,,,,,,,,,,,,,,,,,,,,,,,,,,,,,,,,,,,,,,,,,,EstebanL,001,d,2019_Oct_10_1449,Experimento,3.1.5,60.371407556033546,
8,14,14,999,0.5,0:10,3,Cyan,['space'],0,0,1,20:50,./completed_changuitos/montage_jbcut_128.95_148.75.jpg,right,0,0,0,0,,,,,0,0,0,0,,,,,,,,,0,0,0,0,0,6,6,6,,,,,,,,,,,,,,,,,,166.09425944399845,166.57401506399765,['return'],0,166.09425944399845,None,[0.2427009749953868],,,,,,,,,,,,,,,,,,,,,,,,,,,,,,,,,,,,,,,,,,,,,,,,,,,,,,,,,,,,EstebanL,001,d,2019_Oct_10_1449,Experimento,3.1.5,60.371407556033546,
8,14,14,999,0.5,0:10,3,Magenta,None,0,0,1,20:50,./completed_changuitos/montage_jbcut_128.95_148.75.jpg,right,0,0,0,0,,,,,0,0,0,0,,,,,,,,,0,0,0,0,0,7,7,7,,,,,,,,,,,,,,,,,,None,None,None,1,None,None,,,,,,,,,,,,,,,,,,,,,,,,,,,,,,,,,,,,,,,,,,,,,,,,,,,,,,,,,,,,,EstebanL,001,d,2019_Oct_10_1449,Experimento,3.1.5,60.371407556033546,
8,14,14,999,0.5,0:10,3,Red,None,0,0,1,20:50,./completed_changuitos/montage_jbcut_128.95_148.75.jpg,right,0,0,0,0,,,,,0,0,0,0,,,,,,,,,0,0,0,0,0,8,8,8,,,,,,,,,,,,,,,,,,None,None,None,1,None,None,,,,,,,,,,,,,,,,,,,,,,,,,,,,,,,,,,,,,,,,,,,,,,,,,,,,,,,,,,,,,EstebanL,001,d,2019_Oct_10_1449,Experimento,3.1.5,60.371407556033546,
8,14,14,999,0.5,0:10,3,Magenta,['space'],0,0,1,20:50,./completed_changuitos/montage_jbcut_128.95_148.75.jpg,right,0,0,0,0,,,,,0,0,0,0,,,,,,,,,0,0,0,0,0,9,9,9,,,,,,,,,,,,,,,,,,None,None,None,0,None,None,,,,,,,,,,,,,,,,,,,,,,,,,,,,,,,,,,,,,,,,,,,,,,,,,,,,,,,,,,,,,EstebanL,001,d,2019_Oct_10_1449,Experimento,3.1.5,60.371407556033546,
8,14,14,999,0.5,0:10,3,Green,None,0,0,1,20:50,./completed_changuitos/montage_jbcut_128.95_148.75.jpg,right,0,0,0,0,,,,,0,0,0,0,,,,,,,,,0,0,0,0,0,10,10,10,,,,,,,,,,,,,,,,,,None,None,None,1,None,None,,,,,,,,,,,,,,,,,,,,,,,,,,,,,,,,,,,,,,,,,,,,,,,,,,,,,,,,,,,,,EstebanL,001,d,2019_Oct_10_1449,Experimento,3.1.5,60.371407556033546,
8,14,14,999,0.5,0:10,3,Yellow,['space'],0,0,1,20:50,./completed_changuitos/montage_jbcut_128.95_148.75.jpg,right,0,0,0,0,,,,,0,0,0,0,,,,,,,,,0,0,0,0,0,11,11,11,,,,,,,,,,,,,,,,,,None,None,None,0,None,None,,,,,,,,,,,,,,,,,,,,,,,,,,,,,,,,,,,,,,,,,,,,,,,,,,,,,,,,,,,,,EstebanL,001,d,2019_Oct_10_1449,Experimento,3.1.5,60.371407556033546,
8,14,14,999,0.5,0:10,3,Blue,None,0,0,1,20:50,./completed_changuitos/montage_jbcut_128.95_148.75.jpg,right,0,0,0,0,,,,,0,0,0,0,,,,,,,,,0,0,0,0,0,12,12,12,,,,,,,,,,,,,,,,,,None,None,None,1,None,None,,,,,,,,,,,,,,,,,,,,,,,,,,,,,,,,,,,,,,,,,,,,,,,,,,,,,,,,,,,,,EstebanL,001,d,2019_Oct_10_1449,Experimento,3.1.5,60.371407556033546,
8,14,14,999,0.5,0:10,3,Cyan,None,0,0,1,20:50,./completed_changuitos/montage_jbcut_128.95_148.75.jpg,right,0,0,0,0,,,,,0,0,0,0,,,,,,,,,0,0,0,0,0,13,13,13,,,,,,,,,,,,,,,,,,None,None,None,1,None,None,,,,,,,,,,,,,,,,,,,,,,,,,,,,,,,,,,,,,,,,,,,,,,,,,,,,,,,,,,,,,EstebanL,001,d,2019_Oct_10_1449,Experimento,3.1.5,60.371407556033546,
8,14,14,999,0.5,0:10,3,Blue,['space'],0,0,1,20:50,./completed_changuitos/montage_jbcut_128.95_148.75.jpg,right,0,0,0,0,,,,,0,0,0,0,,,,,,,,,0,0,0,0,0,14,14,14,,,,,,,,,,,,,,,,,,None,None,None,0,None,None,,,,,,,,,,,,,,,,,,,,,,,,,,,,,,,,,,,,,,,,,,,,,,,,,,,,,,,,,,,,,EstebanL,001,d,2019_Oct_10_1449,Experimento,3.1.5,60.371407556033546,
8,14,14,999,0.5,0:10,3,Yellow,None,0,0,1,20:50,./completed_changuitos/montage_jbcut_128.95_148.75.jpg,right,0,0,0,0,,,,,0,0,0,0,,,,,,,,,0,0,0,0,0,15,15,15,,,,,,,,,,,,,,,,,,None,None,None,1,None,None,,,,,,,,,,,,,,,,,,,,,,,,,,,,,,,,,,,,,,,,,,,,,,,,,,,,,,,,,,,,,EstebanL,001,d,2019_Oct_10_1449,Experimento,3.1.5,60.371407556033546,
8,14,14,999,0.5,0:10,3,Cyan,None,0,0,1,20:50,./completed_changuitos/montage_jbcut_128.95_148.75.jpg,right,0,0,0,0,,,,,0,0,0,0,,,,,,,,,0,0,0,0,0,16,16,16,,,,,,,,,,,,,,,,,,None,None,None,1,None,None,,,,,,,,,,,,,,,,,,,,,,,,,,,,,,,,,,,,,,,,,,,,,,,,,,,,,,,,,,,,,EstebanL,001,d,2019_Oct_10_1449,Experimento,3.1.5,60.371407556033546,
8,14,14,999,0.5,0:10,3,Yellow,['space'],0,0,1,20:50,./completed_changuitos/montage_jbcut_128.95_148.75.jpg,right,0,0,0,0,,,,,0,0,0,0,,,,,,,,,0,0,0,0,0,17,17,17,,,,,,,,,,,,,,,,,,None,None,None,0,None,None,,,,,,,,,,,,,,,,,,,,,,,,,,,,,,,,,,,,,,,,,,,,,,,,,,,,,,,,,,,,,EstebanL,001,d,2019_Oct_10_1449,Experimento,3.1.5,60.371407556033546,
8,14,14,999,0.5,0:10,3,Magenta,None,0,0,1,20:50,./completed_changuitos/montage_jbcut_128.95_148.75.jpg,right,0,0,0,0,,,,,0,0,0,0,,,,,,,,,0,0,0,0,0,18,18,18,,,,,,,,,,,,,,,,,,None,None,None,1,None,None,,,,,,,,,,,,,,,,,,,,,,,,,,,,,,,,,,,,,,,,,,,,,,,,,,,,,,,,,,,,,EstebanL,001,d,2019_Oct_10_1449,Experimento,3.1.5,60.371407556033546,
8,14,14,999,0.5,0:10,3,Red,None,0,0,1,20:50,./completed_changuitos/montage_jbcut_128.95_148.75.jpg,right,0,0,0,0,,,,,0,0,0,0,,,,,,,,,0,0,0,0,0,19,19,19,,,,,,,,,,,,,,,,,,None,None,None,1,None,None,,,,,,,,,,,,,,,,,,,,,,,,,,,,,,,,,,,,,,,,,,,,,,,,,,,,,,,,,,,,,EstebanL,001,d,2019_Oct_10_1449,Experimento,3.1.5,60.371407556033546,
8,14,14,999,0.5,0:10,3,Magenta,['space'],0,0,1,20:50,./completed_changuitos/montage_jbcut_128.95_148.75.jpg,right,0,0,0,0,,,,,0,0,0,0,,,,,,,,,0,0,0,0,0,20,20,20,,,,,,,,,,,,,,,,,,None,None,None,0,None,None,,,,,,,,,,,,,,,,,,,,,,,,,,,,,,,,,,,,,,,,,,,,,,,,,,,,,,,,,,,,,EstebanL,001,d,2019_Oct_10_1449,Experimento,3.1.5,60.371407556033546,
8,14,14,999,0.5,0:10,3,Red,['space'],0,0,1,20:50,./completed_changuitos/montage_jbcut_128.95_148.75.jpg,right,0,0,0,0,,,,,0,0,0,0,,,,,,,,,0,0,0,0,0,21,21,21,,,,,,,,,,,,,,,,,,None,None,None,0,None,None,,,,,,,,,,,,,,,,,,,,,,,,,,,,,,,,,,,,,,,,,,,,,,,,,,,,,,,,,,,,,EstebanL,001,d,2019_Oct_10_1449,Experimento,3.1.5,60.371407556033546,
8,14,14,999,0.5,0:10,3,Yellow,None,0,0,1,20:50,./completed_changuitos/montage_jbcut_128.95_148.75.jpg,right,0,0,0,0,,,,,0,0,0,0,,,,,,,,,0,0,0,0,0,22,22,22,,,,,,,,,,,,,,,,,,None,None,None,1,None,None,,,,,,,,,,,,,,,,,,,,,,,,,,,,,,,,,,,,,,,,,,,,,,,,,,,,,,,,,,,,,EstebanL,001,d,2019_Oct_10_1449,Experimento,3.1.5,60.371407556033546,
8,14,14,999,0.5,0:10,3,Cyan,None,0,0,1,20:50,./completed_changuitos/montage_jbcut_128.95_148.75.jpg,right,0,0,0,0,,,,,0,0,0,0,,,,,,,,,0,0,0,0,0,23,23,23,,,,,,,,,,,,,,,,,,None,None,None,1,None,None,,,,,,,,,,,,,,,,,,,,,,,,,,,,,,,,,,,,,,,,,,,,,,,,,,,,,,,,,,,,,EstebanL,001,d,2019_Oct_10_1449,Experimento,3.1.5,60.371407556033546,
8,14,14,999,0.5,0:10,3,Green,None,0,0,1,20:50,./completed_changuitos/montage_jbcut_128.95_148.75.jpg,right,0,0,0,0,,,,,0,0,0,0,,,,,,,,,0,0,0,0,0,24,24,24,,,,,,,,,,,,,,,,,,None,None,None,1,None,None,,,,,,,,,,,,,,,,,,,,,,,,,,,,,,,,,,,,,,,,,,,,,,,,,,,,,,,,,,,,,EstebanL,001,d,2019_Oct_10_1449,Experimento,3.1.5,60.371407556033546,
8,14,14,999,0.5,0:10,3,White,None,0,0,1,20:50,./completed_changuitos/montage_jbcut_128.95_148.75.jpg,right,0,0,0,0,,,,,0,0,0,0,,,,,,,,,0,0,0,0,0,25,25,25,,,,,,,,,,,,,,,,,,None,None,None,1,None,None,,,,,,,,,,,,,,,,,,,,,,,,,,,,,,,,,,,,,,,,,,,,,,,,,,,,,,,,,,,,,EstebanL,001,d,2019_Oct_10_1449,Experimento,3.1.5,60.371407556033546,
8,14,14,999,0.5,0:10,3,Green,['space'],0,0,1,20:50,./completed_changuitos/montage_jbcut_128.95_148.75.jpg,right,0,0,0,0,,,,,0,0,0,0,,,,,,,,,0,0,0,0,0,26,26,26,,,,,,,,,,,,,,,,,,None,None,None,0,None,None,,,,,,,,,,,,,,,,,,,,,,,,,,,,,,,,,,,,,,,,,,,,,,,,,,,,,,,,,,,,,EstebanL,001,d,2019_Oct_10_1449,Experimento,3.1.5,60.371407556033546,
8,14,14,999,0.5,0:10,3,Red,None,0,0,1,20:50,./completed_changuitos/montage_jbcut_128.95_148.75.jpg,right,0,0,0,0,,,,,0,0,0,0,,,,,,,,,0,0,0,0,0,27,27,27,,,,,,,,,,,,,,,,,,None,None,None,1,None,None,,,,,,,,,,,,,,,,,,,,,,,,,,,,,,,,,,,,,,,,,,,,,,,,,,,,,,,,,,,,,EstebanL,001,d,2019_Oct_10_1449,Experimento,3.1.5,60.371407556033546,
8,14,14,999,0.5,0:10,3,Blue,None,0,0,1,20:50,./completed_changuitos/montage_jbcut_128.95_148.75.jpg,right,0,0,0,0,,,,,0,0,0,0,,,,,,,,,0,0,0,0,0,28,28,28,,,,,,,,,,,,,,,,,,None,None,None,1,None,None,,,,,,,,,,,,,,,,,,,,,,,,,,,,,,,,,,,,,,,,,,,,,,,,,,,,,,,,,,,,,EstebanL,001,d,2019_Oct_10_1449,Experimento,3.1.5,60.371407556033546,
8,14,14,999,0.5,0:10,3,Green,None,0,0,1,20:50,./completed_changuitos/montage_jbcut_128.95_148.75.jpg,right,0,0,0,0,,,,,0,0,0,0,,,,,,,,,0,0,0,0,0,29,29,29,,,,,,,,,,,,,,,,,,None,None,None,1,None,None,,,,,,,,,,,,,,,,,,,,,,,,,,,,,,,,,,,,,,,,,,,,,,,,,,,,,,,,,,,,,EstebanL,001,d,2019_Oct_10_1449,Experimento,3.1.5,60.371407556033546,
8,14,14,999,0.5,0:10,3,,,0,0,1,20:50,./completed_changuitos/montage_jbcut_128.95_148.75.jpg,right,0,0,0,0,,,,,0,0,0,0,,,,,,,,,0,0,0,0,,,,,,,,,,,,,,,,,,,,,,,,,,,,,168.56068879600207,None,left,0,2.229423440003302,168.56068879600207,None,168.56068879600207,None,,,,,,,,,,,,,,,,,,,,,,,,,,,,,,,,,,,,,,,,,,,,,,,,,,,EstebanL,001,d,2019_Oct_10_1449,Experimento,3.1.5,60.371407556033546,
8,14,14,999,0.5,0:10,3,,,0,0,1,20:50,,,0,0,0,0,,,,,0,0,0,0,,,,,,,,,,,,,,,,,,,,,,,,,,,,,,,,,,,,,,,,,,,,,,,,,,,,,,,,,,,,,,,,,,,,,,,,,,,,,,,,,,,,,,,,,,,,,,,,,,,,EstebanL,001,d,2019_Oct_10_1449,Experimento,3.1.5,60.371407556033546,
8,14,14,999,0.5,0:10,3,,,0,1,0,10:50,./completed_changuitos/montage_lfvcg_31.7_26.75.jpg,left,0,0,0,0,,,,,0,1,1,1,,,,,0,0,0,0,,,,,,,,,,,,,,,,,,,,,,,,,,,,,,,,,,,,,,,,,,171.11206730100093,184.70009958300216,184.70009958300216,192.70287496899982,192.70287496899982,206.71028630100045,right,0,1.30595378200087,206.71028630100045,None,206.71028630100045,None,206.71028630100045,None,,,,,,,,,,,,,,,,,,,,,,,,,,,,,,,,,,,,EstebanL,001,d,2019_Oct_10_1449,Experimento,3.1.5,60.371407556033546,
8,14,14,999,0.5,0:10,3,,,0,1,0,10:50,,,0,0,0,0,,,,,0,1,1,1,,,,,,,,,,,,,,,,,,,,,,,,,,,,,,,,,,,,,,,,,,,,,,,,,,,,,,,,,,,,,,,,,,,,,,,,,,,,,,,,,,,,,,,,,,,,,,,,,,,,EstebanL,001,d,2019_Oct_10_1449,Experimento,3.1.5,60.371407556033546,
8,14,14,999,0.5,0:10,3,,,0,1,0,25:50,./completed_changuitos/montage_fmqvr_116.65_103.15.jpg,left,0,0,0,0,,,,,0,2,2,2,,,,,0,0,0,0,,,,,,,,,,,,,,,,,,,,,,,,,,,,,,,,,,,,,,,,,,208.3450892300025,210.92957045399817,210.92957045399817,218.93194382599904,218.93194382599904,232.9391500940037,left,1,1.564536809004494,232.9391500940037,None,232.9391500940037,None,232.9391500940037,None,,,,,,,,,,,,,,,,,,,,,,,,,,,,,,,,,,,,EstebanL,001,d,2019_Oct_10_1449,Experimento,3.1.5,60.371407556033546,
8,14,14,999,0.5,0:10,3,,,0,1,0,25:50,,,0,0,0,0,,,,,0,2,2,2,,,,,,,,,,,,,,,,,,,,,,,,,,,,,,,,,,,,,,,,,,,,,,,,,,,,,,,,,,,,,,,,,,,,,,,,,,,,,,,,,,,,,,,,,,,,,,,,,,,,EstebanL,001,d,2019_Oct_10_1449,Experimento,3.1.5,60.371407556033546,
8,14,14,999,0.5,0:10,3,Yellow,None,0,0,1,15:50,./completed_changuitos/montage_hoety_70.65_81.2.jpg,right,0,0,0,0,,,,,0,3,3,3,,,,,,,,,0,0,0,0,0,0,0,0,,,,,,,,,,,,,,234.7278244879999,246.0117847080037,246.0117847080037,None,254.0491065840033,254.53270790399984,None,1,254.0491065840033,None,,,,,,,,,,,,,,,,,,,,,,,,,,,,,,,,,,,,,,,,,,,,,,,,,,,,,,,,,,,,,EstebanL,001,d,2019_Oct_10_1449,Experimento,3.1.5,60.371407556033546,
8,14,14,999,0.5,0:10,3,White,['space'],0,0,1,15:50,./completed_changuitos/montage_hoety_70.65_81.2.jpg,right,0,0,0,0,,,,,0,3,3,3,,,,,,,,,0,0,0,0,0,1,1,1,,,,,,,,,,,,,,,,,,256.05148214200017,256.53367122299824,None,0,256.05148214200017,None,,,,,,,,,,,,,,,,,,,,,,,,,,,,,,,,,,,,,,,,,,,,,,,,,,,,,,,,,,,,,EstebanL,001,d,2019_Oct_10_1449,Experimento,3.1.5,60.371407556033546,
8,14,14,999,0.5,0:10,3,Magenta,None,0,0,1,15:50,./completed_changuitos/montage_hoety_70.65_81.2.jpg,right,0,0,0,0,,,,,0,3,3,3,,,,,,,,,0,0,0,0,0,2,2,2,,,,,,,,,,,,,,,,,,258.05299005599954,258.53430999899865,None,1,258.05299005599954,None,,,,,,,,,,,,,,,,,,,,,,,,,,,,,,,,,,,,,,,,,,,,,,,,,,,,,,,,,,,,,EstebanL,001,d,2019_Oct_10_1449,Experimento,3.1.5,60.371407556033546,
8,14,14,999,0.5,0:10,3,Cyan,None,0,0,1,15:50,./completed_changuitos/montage_hoety_70.65_81.2.jpg,right,0,0,0,0,,,,,0,3,3,3,,,,,,,,,0,0,0,0,0,3,3,3,,,,,,,,,,,,,,,,,,260.05374196600314,260.5355825439983,None,1,260.05374196600314,None,,,,,,,,,,,,,,,,,,,,,,,,,,,,,,,,,,,,,,,,,,,,,,,,,,,,,,,,,,,,,EstebanL,001,d,2019_Oct_10_1449,Experimento,3.1.5,60.371407556033546,
8,14,14,999,0.5,0:10,3,Blue,None,0,0,1,15:50,./completed_changuitos/montage_hoety_70.65_81.2.jpg,right,0,0,0,0,,,,,0,3,3,3,,,,,,,,,0,0,0,0,0,4,4,4,,,,,,,,,,,,,,,,,,262.05527268900187,262.53653998200025,None,1,262.05527268900187,None,,,,,,,,,,,,,,,,,,,,,,,,,,,,,,,,,,,,,,,,,,,,,,,,,,,,,,,,,,,,,EstebanL,001,d,2019_Oct_10_1449,Experimento,3.1.5,60.371407556033546,
8,14,14,999,0.5,0:10,3,Magenta,None,0,0,1,15:50,./completed_changuitos/montage_hoety_70.65_81.2.jpg,right,0,0,0,0,,,,,0,3,3,3,,,,,,,,,0,0,0,0,0,5,5,5,,,,,,,,,,,,,,,,,,264.05494962899684,264.5371807289994,None,1,264.05494962899684,None,,,,,,,,,,,,,,,,,,,,,,,,,,,,,,,,,,,,,,,,,,,,,,,,,,,,,,,,,,,,,EstebanL,001,d,2019_Oct_10_1449,Experimento,3.1.5,60.371407556033546,
8,14,14,999,0.5,0:10,3,Blue,['space'],0,0,1,15:50,./completed_changuitos/montage_hoety_70.65_81.2.jpg,right,0,0,0,0,,,,,0,3,3,3,,,,,,,,,0,0,0,0,0,6,6,6,,,,,,,,,,,,,,,,,,266.0571391350022,266.5384416710003,"['return', 'return', 'return']",0,266.0571391350022,None,"[0.31378940000286093, 1.1983640629987349, 1.5704470049968222]",,,,,,,,,,,,,,,,,,,,,,,,,,,,,,,,,,,,,,,,,,,,,,,,,,,,,,,,,,,,EstebanL,001,d,2019_Oct_10_1449,Experimento,3.1.5,60.371407556033546,
8,14,14,999,0.5,0:10,3,Cyan,None,0,0,1,15:50,./completed_changuitos/montage_hoety_70.65_81.2.jpg,right,0,0,0,0,,,,,0,3,3,3,,,,,,,,,0,0,0,0,0,7,7,7,,,,,,,,,,,,,,,,,,None,None,None,1,None,None,,,,,,,,,,,,,,,,,,,,,,,,,,,,,,,,,,,,,,,,,,,,,,,,,,,,,,,,,,,,,EstebanL,001,d,2019_Oct_10_1449,Experimento,3.1.5,60.371407556033546,
8,14,14,999,0.5,0:10,3,Yellow,None,0,0,1,15:50,./completed_changuitos/montage_hoety_70.65_81.2.jpg,right,0,0,0,0,,,,,0,3,3,3,,,,,,,,,0,0,0,0,0,8,8,8,,,,,,,,,,,,,,,,,,None,None,None,1,None,None,,,,,,,,,,,,,,,,,,,,,,,,,,,,,,,,,,,,,,,,,,,,,,,,,,,,,,,,,,,,,EstebanL,001,d,2019_Oct_10_1449,Experimento,3.1.5,60.371407556033546,
8,14,14,999,0.5,0:10,3,Cyan,None,0,0,1,15:50,./completed_changuitos/montage_hoety_70.65_81.2.jpg,right,0,0,0,0,,,,,0,3,3,3,,,,,,,,,0,0,0,0,0,9,9,9,,,,,,,,,,,,,,,,,,None,None,None,1,None,None,,,,,,,,,,,,,,,,,,,,,,,,,,,,,,,,,,,,,,,,,,,,,,,,,,,,,,,,,,,,,EstebanL,001,d,2019_Oct_10_1449,Experimento,3.1.5,60.371407556033546,
8,14,14,999,0.5,0:10,3,Blue,None,0,0,1,15:50,./completed_changuitos/montage_hoety_70.65_81.2.jpg,right,0,0,0,0,,,,,0,3,3,3,,,,,,,,,0,0,0,0,0,10,10,10,,,,,,,,,,,,,,,,,,None,None,None,1,None,None,,,,,,,,,,,,,,,,,,,,,,,,,,,,,,,,,,,,,,,,,,,,,,,,,,,,,,,,,,,,,EstebanL,001,d,2019_Oct_10_1449,Experimento,3.1.5,60.371407556033546,
8,14,14,999,0.5,0:10,3,Cyan,['space'],0,0,1,15:50,./completed_changuitos/montage_hoety_70.65_81.2.jpg,right,0,0,0,0,,,,,0,3,3,3,,,,,,,,,0,0,0,0,0,11,11,11,,,,,,,,,,,,,,,,,,None,None,None,0,None,None,,,,,,,,,,,,,,,,,,,,,,,,,,,,,,,,,,,,,,,,,,,,,,,,,,,,,,,,,,,,,EstebanL,001,d,2019_Oct_10_1449,Experimento,3.1.5,60.371407556033546,
8,14,14,999,0.5,0:10,3,Magenta,None,0,0,1,15:50,./completed_changuitos/montage_hoety_70.65_81.2.jpg,right,0,0,0,0,,,,,0,3,3,3,,,,,,,,,0,0,0,0,0,12,12,12,,,,,,,,,,,,,,,,,,None,None,None,1,None,None,,,,,,,,,,,,,,,,,,,,,,,,,,,,,,,,,,,,,,,,,,,,,,,,,,,,,,,,,,,,,EstebanL,001,d,2019_Oct_10_1449,Experimento,3.1.5,60.371407556033546,
8,14,14,999,0.5,0:10,3,Red,None,0,0,1,15:50,./completed_changuitos/montage_hoety_70.65_81.2.jpg,right,0,0,0,0,,,,,0,3,3,3,,,,,,,,,0,0,0,0,0,13,13,13,,,,,,,,,,,,,,,,,,None,None,None,1,None,None,,,,,,,,,,,,,,,,,,,,,,,,,,,,,,,,,,,,,,,,,,,,,,,,,,,,,,,,,,,,,EstebanL,001,d,2019_Oct_10_1449,Experimento,3.1.5,60.371407556033546,
8,14,14,999,0.5,0:10,3,Magenta,['space'],0,0,1,15:50,./completed_changuitos/montage_hoety_70.65_81.2.jpg,right,0,0,0,0,,,,,0,3,3,3,,,,,,,,,0,0,0,0,0,14,14,14,,,,,,,,,,,,,,,,,,None,None,None,0,None,None,,,,,,,,,,,,,,,,,,,,,,,,,,,,,,,,,,,,,,,,,,,,,,,,,,,,,,,,,,,,,EstebanL,001,d,2019_Oct_10_1449,Experimento,3.1.5,60.371407556033546,
8,14,14,999,0.5,0:10,3,Green,None,0,0,1,15:50,./completed_changuitos/montage_hoety_70.65_81.2.jpg,right,0,0,0,0,,,,,0,3,3,3,,,,,,,,,0,0,0,0,0,15,15,15,,,,,,,,,,,,,,,,,,None,None,None,1,None,None,,,,,,,,,,,,,,,,,,,,,,,,,,,,,,,,,,,,,,,,,,,,,,,,,,,,,,,,,,,,,EstebanL,001,d,2019_Oct_10_1449,Experimento,3.1.5,60.371407556033546,
8,14,14,999,0.5,0:10,3,Yellow,['space'],0,0,1,15:50,./completed_changuitos/montage_hoety_70.65_81.2.jpg,right,0,0,0,0,,,,,0,3,3,3,,,,,,,,,0,0,0,0,0,16,16,16,,,,,,,,,,,,,,,,,,None,None,None,0,None,None,,,,,,,,,,,,,,,,,,,,,,,,,,,,,,,,,,,,,,,,,,,,,,,,,,,,,,,,,,,,,EstebanL,001,d,2019_Oct_10_1449,Experimento,3.1.5,60.371407556033546,
8,14,14,999,0.5,0:10,3,Blue,None,0,0,1,15:50,./completed_changuitos/montage_hoety_70.65_81.2.jpg,right,0,0,0,0,,,,,0,3,3,3,,,,,,,,,0,0,0,0,0,17,17,17,,,,,,,,,,,,,,,,,,None,None,None,1,None,None,,,,,,,,,,,,,,,,,,,,,,,,,,,,,,,,,,,,,,,,,,,,,,,,,,,,,,,,,,,,,EstebanL,001,d,2019_Oct_10_1449,Experimento,3.1.5,60.371407556033546,
8,14,14,999,0.5,0:10,3,Cyan,None,0,0,1,15:50,./completed_changuitos/montage_hoety_70.65_81.2.jpg,right,0,0,0,0,,,,,0,3,3,3,,,,,,,,,0,0,0,0,0,18,18,18,,,,,,,,,,,,,,,,,,None,None,None,1,None,None,,,,,,,,,,,,,,,,,,,,,,,,,,,,,,,,,,,,,,,,,,,,,,,,,,,,,,,,,,,,,EstebanL,001,d,2019_Oct_10_1449,Experimento,3.1.5,60.371407556033546,
8,14,14,999,0.5,0:10,3,Blue,['space'],0,0,1,15:50,./completed_changuitos/montage_hoety_70.65_81.2.jpg,right,0,0,0,0,,,,,0,3,3,3,,,,,,,,,0,0,0,0,0,19,19,19,,,,,,,,,,,,,,,,,,None,None,None,0,None,None,,,,,,,,,,,,,,,,,,,,,,,,,,,,,,,,,,,,,,,,,,,,,,,,,,,,,,,,,,,,,EstebanL,001,d,2019_Oct_10_1449,Experimento,3.1.5,60.371407556033546,
8,14,14,999,0.5,0:10,3,Yellow,None,0,0,1,15:50,./completed_changuitos/montage_hoety_70.65_81.2.jpg,right,0,0,0,0,,,,,0,3,3,3,,,,,,,,,0,0,0,0,0,20,20,20,,,,,,,,,,,,,,,,,,None,None,None,1,None,None,,,,,,,,,,,,,,,,,,,,,,,,,,,,,,,,,,,,,,,,,,,,,,,,,,,,,,,,,,,,,EstebanL,001,d,2019_Oct_10_1449,Experimento,3.1.5,60.371407556033546,
8,14,14,999,0.5,0:10,3,Cyan,None,0,0,1,15:50,./completed_changuitos/montage_hoety_70.65_81.2.jpg,right,0,0,0,0,,,,,0,3,3,3,,,,,,,,,0,0,0,0,0,21,21,21,,,,,,,,,,,,,,,,,,None,None,None,1,None,None,,,,,,,,,,,,,,,,,,,,,,,,,,,,,,,,,,,,,,,,,,,,,,,,,,,,,,,,,,,,,EstebanL,001,d,2019_Oct_10_1449,Experimento,3.1.5,60.371407556033546,
8,14,14,999,0.5,0:10,3,Yellow,['space'],0,0,1,15:50,./completed_changuitos/montage_hoety_70.65_81.2.jpg,right,0,0,0,0,,,,,0,3,3,3,,,,,,,,,0,0,0,0,0,22,22,22,,,,,,,,,,,,,,,,,,None,None,None,0,None,None,,,,,,,,,,,,,,,,,,,,,,,,,,,,,,,,,,,,,,,,,,,,,,,,,,,,,,,,,,,,,EstebanL,001,d,2019_Oct_10_1449,Experimento,3.1.5,60.371407556033546,
8,14,14,999,0.5,0:10,3,Magenta,None,0,0,1,15:50,./completed_changuitos/montage_hoety_70.65_81.2.jpg,right,0,0,0,0,,,,,0,3,3,3,,,,,,,,,0,0,0,0,0,23,23,23,,,,,,,,,,,,,,,,,,None,None,None,1,None,None,,,,,,,,,,,,,,,,,,,,,,,,,,,,,,,,,,,,,,,,,,,,,,,,,,,,,,,,,,,,,EstebanL,001,d,2019_Oct_10_1449,Experimento,3.1.5,60.371407556033546,
8,14,14,999,0.5,0:10,3,Red,None,0,0,1,15:50,./completed_changuitos/montage_hoety_70.65_81.2.jpg,right,0,0,0,0,,,,,0,3,3,3,,,,,,,,,0,0,0,0,0,24,24,24,,,,,,,,,,,,,,,,,,None,None,None,1,None,None,,,,,,,,,,,,,,,,,,,,,,,,,,,,,,,,,,,,,,,,,,,,,,,,,,,,,,,,,,,,,EstebanL,001,d,2019_Oct_10_1449,Experimento,3.1.5,60.371407556033546,
8,14,14,999,0.5,0:10,3,Magenta,['space'],0,0,1,15:50,./completed_changuitos/montage_hoety_70.65_81.2.jpg,right,0,0,0,0,,,,,0,3,3,3,,,,,,,,,0,0,0,0,0,25,25,25,,,,,,,,,,,,,,,,,,None,None,None,0,None,None,,,,,,,,,,,,,,,,,,,,,,,,,,,,,,,,,,,,,,,,,,,,,,,,,,,,,,,,,,,,,EstebanL,001,d,2019_Oct_10_1449,Experimento,3.1.5,60.371407556033546,
8,14,14,999,0.5,0:10,3,Red,['space'],0,0,1,15:50,./completed_changuitos/montage_hoety_70.65_81.2.jpg,right,0,0,0,0,,,,,0,3,3,3,,,,,,,,,0,0,0,0,0,26,26,26,,,,,,,,,,,,,,,,,,None,None,None,0,None,None,,,,,,,,,,,,,,,,,,,,,,,,,,,,,,,,,,,,,,,,,,,,,,,,,,,,,,,,,,,,,EstebanL,001,d,2019_Oct_10_1449,Experimento,3.1.5,60.371407556033546,
8,14,14,999,0.5,0:10,3,Yellow,None,0,0,1,15:50,./completed_changuitos/montage_hoety_70.65_81.2.jpg,right,0,0,0,0,,,,,0,3,3,3,,,,,,,,,0,0,0,0,0,27,27,27,,,,,,,,,,,,,,,,,,None,None,None,1,None,None,,,,,,,,,,,,,,,,,,,,,,,,,,,,,,,,,,,,,,,,,,,,,,,,,,,,,,,,,,,,,EstebanL,001,d,2019_Oct_10_1449,Experimento,3.1.5,60.371407556033546,
8,14,14,999,0.5,0:10,3,Cyan,None,0,0,1,15:50,./completed_changuitos/montage_hoety_70.65_81.2.jpg,right,0,0,0,0,,,,,0,3,3,3,,,,,,,,,0,0,0,0,0,28,28,28,,,,,,,,,,,,,,,,,,None,None,None,1,None,None,,,,,,,,,,,,,,,,,,,,,,,,,,,,,,,,,,,,,,,,,,,,,,,,,,,,,,,,,,,,,EstebanL,001,d,2019_Oct_10_1449,Experimento,3.1.5,60.371407556033546,
8,14,14,999,0.5,0:10,3,Green,None,0,0,1,15:50,./completed_changuitos/montage_hoety_70.65_81.2.jpg,right,0,0,0,0,,,,,0,3,3,3,,,,,,,,,0,0,0,0,0,29,29,29,,,,,,,,,,,,,,,,,,None,None,None,1,None,None,,,,,,,,,,,,,,,,,,,,,,,,,,,,,,,,,,,,,,,,,,,,,,,,,,,,,,,,,,,,,EstebanL,001,d,2019_Oct_10_1449,Experimento,3.1.5,60.371407556033546,
8,14,14,999,0.5,0:10,3,White,None,0,0,1,15:50,./completed_changuitos/montage_hoety_70.65_81.2.jpg,right,0,0,0,0,,,,,0,3,3,3,,,,,,,,,0,0,0,0,0,30,30,30,,,,,,,,,,,,,,,,,,None,None,None,1,None,None,,,,,,,,,,,,,,,,,,,,,,,,,,,,,,,,,,,,,,,,,,,,,,,,,,,,,,,,,,,,,EstebanL,001,d,2019_Oct_10_1449,Experimento,3.1.5,60.371407556033546,
8,14,14,999,0.5,0:10,3,Green,['space'],0,0,1,15:50,./completed_changuitos/montage_hoety_70.65_81.2.jpg,right,0,0,0,0,,,,,0,3,3,3,,,,,,,,,0,0,0,0,0,31,31,31,,,,,,,,,,,,,,,,,,None,None,None,0,None,None,,,,,,,,,,,,,,,,,,,,,,,,,,,,,,,,,,,,,,,,,,,,,,,,,,,,,,,,,,,,,EstebanL,001,d,2019_Oct_10_1449,Experimento,3.1.5,60.371407556033546,
8,14,14,999,0.5,0:10,3,Red,None,0,0,1,15:50,./completed_changuitos/montage_hoety_70.65_81.2.jpg,right,0,0,0,0,,,,,0,3,3,3,,,,,,,,,0,0,0,0,0,32,32,32,,,,,,,,,,,,,,,,,,None,None,None,1,None,None,,,,,,,,,,,,,,,,,,,,,,,,,,,,,,,,,,,,,,,,,,,,,,,,,,,,,,,,,,,,,EstebanL,001,d,2019_Oct_10_1449,Experimento,3.1.5,60.371407556033546,
8,14,14,999,0.5,0:10,3,Blue,None,0,0,1,15:50,./completed_changuitos/montage_hoety_70.65_81.2.jpg,right,0,0,0,0,,,,,0,3,3,3,,,,,,,,,0,0,0,0,0,33,33,33,,,,,,,,,,,,,,,,,,None,None,None,1,None,None,,,,,,,,,,,,,,,,,,,,,,,,,,,,,,,,,,,,,,,,,,,,,,,,,,,,,,,,,,,,,EstebanL,001,d,2019_Oct_10_1449,Experimento,3.1.5,60.371407556033546,
8,14,14,999,0.5,0:10,3,Green,None,0,0,1,15:50,./completed_changuitos/montage_hoety_70.65_81.2.jpg,right,0,0,0,0,,,,,0,3,3,3,,,,,,,,,0,0,0,0,0,34,34,34,,,,,,,,,,,,,,,,,,None,None,None,1,None,None,,,,,,,,,,,,,,,,,,,,,,,,,,,,,,,,,,,,,,,,,,,,,,,,,,,,,,,,,,,,,EstebanL,001,d,2019_Oct_10_1449,Experimento,3.1.5,60.371407556033546,
8,14,14,999,0.5,0:10,3,,,0,0,1,15:50,./completed_changuitos/montage_hoety_70.65_81.2.jpg,right,0,0,0,0,,,,,0,3,3,3,,,,,,,,,0,0,0,0,,,,,,,,,,,,,,,,,,,,,,,,,,,,,268.60822657300014,None,right,1,2.0622426949994406,268.60822657300014,None,268.60822657300014,None,,,,,,,,,,,,,,,,,,,,,,,,,,,,,,,,,,,,,,,,,,,,,,,,,,,EstebanL,001,d,2019_Oct_10_1449,Experimento,3.1.5,60.371407556033546,
8,14,14,999,0.5,0:10,3,,,0,0,1,15:50,,,0,0,0,0,,,,,0,3,3,3,,,,,,,,,,,,,,,,,,,,,,,,,,,,,,,,,,,,,,,,,,,,,,,,,,,,,,,,,,,,,,,,,,,,,,,,,,,,,,,,,,,,,,,,,,,,,,,,,,,,EstebanL,001,d,2019_Oct_10_1449,Experimento,3.1.5,60.371407556033546,
8,14,14,999,0.5,0:10,3,,,0,1,0,10:50,./completed_changuitos/montage_fsikx_284.09_242.79.jpg,left,0,0,0,0,,,,,0,4,4,4,,,,,0,0,0,0,,,,,,,,,,,,,,,,,,,,,,,,,,,,,,,,,,,,,,,,,,270.92869832999713,272.0112157210024,272.0112157210024,280.01098701199953,280.01098701199953,294.01809751900146,right,0,1.3278512469987618,294.01809751900146,None,294.01809751900146,None,294.01809751900146,None,,,,,,,,,,,,,,,,,,,,,,,,,,,,,,,,,,,,EstebanL,001,d,2019_Oct_10_1449,Experimento,3.1.5,60.371407556033546,
8,14,14,999,0.5,0:10,3,,,0,1,0,10:50,,,0,0,0,0,,,,,0,4,4,4,,,,,,,,,,,,,,,,,,,,,,,,,,,,,,,,,,,,,,,,,,,,,,,,,,,,,,,,,,,,,,,,,,,,,,,,,,,,,,,,,,,,,,,,,,,,,,,,,,,,EstebanL,001,d,2019_Oct_10_1449,Experimento,3.1.5,60.371407556033546,
8,14,14,999,0.5,0:10,3,Red,None,0,0,1,28:50,./completed_changuitos/montage_jutqg_439.05_367.55.jpg,left,0,0,0,0,,,,,0,5,5,5,,,,,,,,,0,0,0,0,0,0,0,0,,,,,,,,,,,,,,295.5713100970024,296.95396597200306,296.95396597200306,None,304.9903596649965,305.4734766449983,None,1,304.9903596649965,None,,,,,,,,,,,,,,,,,,,,,,,,,,,,,,,,,,,,,,,,,,,,,,,,,,,,,,,,,,,,,EstebanL,001,d,2019_Oct_10_1449,Experimento,3.1.5,60.371407556033546,
8,14,14,999,0.5,0:10,3,Magenta,['space'],0,0,1,28:50,./completed_changuitos/montage_jutqg_439.05_367.55.jpg,left,0,0,0,0,,,,,0,5,5,5,,,,,,,,,0,0,0,0,0,1,1,1,,,,,,,,,,,,,,,,,,306.99199653699907,307.4744705569974,None,0,306.99199653699907,None,,,,,,,,,,,,,,,,,,,,,,,,,,,,,,,,,,,,,,,,,,,,,,,,,,,,,,,,,,,,,EstebanL,001,d,2019_Oct_10_1449,Experimento,3.1.5,60.371407556033546,
8,14,14,999,0.5,0:10,3,Green,None,0,0,1,28:50,./completed_changuitos/montage_jutqg_439.05_367.55.jpg,left,0,0,0,0,,,,,0,5,5,5,,,,,,,,,0,0,0,0,0,2,2,2,,,,,,,,,,,,,,,,,,308.9940983639972,309.4750585290021,None,1,308.9940983639972,None,,,,,,,,,,,,,,,,,,,,,,,,,,,,,,,,,,,,,,,,,,,,,,,,,,,,,,,,,,,,,EstebanL,001,d,2019_Oct_10_1449,Experimento,3.1.5,60.371407556033546,
8,14,14,999,0.5,0:10,3,Yellow,['space'],0,0,1,28:50,./completed_changuitos/montage_jutqg_439.05_367.55.jpg,left,0,0,0,0,,,,,0,5,5,5,,,,,,,,,0,0,0,0,0,3,3,3,,,,,,,,,,,,,,,,,,310.99575071399886,311.476289860002,None,0,310.99575071399886,None,,,,,,,,,,,,,,,,,,,,,,,,,,,,,,,,,,,,,,,,,,,,,,,,,,,,,,,,,,,,,EstebanL,001,d,2019_Oct_10_1449,Experimento,3.1.5,60.371407556033546,
8,14,14,999,0.5,0:10,3,Blue,None,0,0,1,28:50,./completed_changuitos/montage_jutqg_439.05_367.55.jpg,left,0,0,0,0,,,,,0,5,5,5,,,,,,,,,0,0,0,0,0,4,4,4,,,,,,,,,,,,,,,,,,312.99649120600225,313.4770315529968,None,1,312.99649120600225,None,,,,,,,,,,,,,,,,,,,,,,,,,,,,,,,,,,,,,,,,,,,,,,,,,,,,,,,,,,,,,EstebanL,001,d,2019_Oct_10_1449,Experimento,3.1.5,60.371407556033546,
8,14,14,999,0.5,0:10,3,Cyan,None,0,0,1,28:50,./completed_changuitos/montage_jutqg_439.05_367.55.jpg,left,0,0,0,0,,,,,0,5,5,5,,,,,,,,,0,0,0,0,0,5,5,5,,,,,,,,,,,,,,,,,,314.9968047470029,315.47825051799737,None,1,314.9968047470029,None,,,,,,,,,,,,,,,,,,,,,,,,,,,,,,,,,,,,,,,,,,,,,,,,,,,,,,,,,,,,,EstebanL,001,d,2019_Oct_10_1449,Experimento,3.1.5,60.371407556033546,
8,14,14,999,0.5,0:10,3,Blue,['space'],0,0,1,28:50,./completed_changuitos/montage_jutqg_439.05_367.55.jpg,left,0,0,0,0,,,,,0,5,5,5,,,,,,,,,0,0,0,0,0,6,6,6,,,,,,,,,,,,,,,,,,317.0004407640008,317.48048710500007,"['return', 'return', 'return']",0,317.0004407640008,None,"[0.6682294229976833, 1.0841227659984725, 1.293168953001441]",,,,,,,,,,,,,,,,,,,,,,,,,,,,,,,,,,,,,,,,,,,,,,,,,,,,,,,,,,,,EstebanL,001,d,2019_Oct_10_1449,Experimento,3.1.5,60.371407556033546,
8,14,14,999,0.5,0:10,3,Yellow,None,0,0,1,28:50,./completed_changuitos/montage_jutqg_439.05_367.55.jpg,left,0,0,0,0,,,,,0,5,5,5,,,,,,,,,0,0,0,0,0,7,7,7,,,,,,,,,,,,,,,,,,None,None,None,1,None,None,,,,,,,,,,,,,,,,,,,,,,,,,,,,,,,,,,,,,,,,,,,,,,,,,,,,,,,,,,,,,EstebanL,001,d,2019_Oct_10_1449,Experimento,3.1.5,60.371407556033546,
8,14,14,999,0.5,0:10,3,Cyan,None,0,0,1,28:50,./completed_changuitos/montage_jutqg_439.05_367.55.jpg,left,0,0,0,0,,,,,0,5,5,5,,,,,,,,,0,0,0,0,0,8,8,8,,,,,,,,,,,,,,,,,,None,None,None,1,None,None,,,,,,,,,,,,,,,,,,,,,,,,,,,,,,,,,,,,,,,,,,,,,,,,,,,,,,,,,,,,,EstebanL,001,d,2019_Oct_10_1449,Experimento,3.1.5,60.371407556033546,
8,14,14,999,0.5,0:10,3,Yellow,['space'],0,0,1,28:50,./completed_changuitos/montage_jutqg_439.05_367.55.jpg,left,0,0,0,0,,,,,0,5,5,5,,,,,,,,,0,0,0,0,0,9,9,9,,,,,,,,,,,,,,,,,,None,None,None,0,None,None,,,,,,,,,,,,,,,,,,,,,,,,,,,,,,,,,,,,,,,,,,,,,,,,,,,,,,,,,,,,,EstebanL,001,d,2019_Oct_10_1449,Experimento,3.1.5,60.371407556033546,
8,14,14,999,0.5,0:10,3,Magenta,None,0,0,1,28:50,./completed_changuitos/montage_jutqg_439.05_367.55.jpg,left,0,0,0,0,,,,,0,5,5,5,,,,,,,,,0,0,0,0,0,10,10,10,,,,,,,,,,,,,,,,,,None,None,None,1,None,None,,,,,,,,,,,,,,,,,,,,,,,,,,,,,,,,,,,,,,,,,,,,,,,,,,,,,,,,,,,,,EstebanL,001,d,2019_Oct_10_1449,Experimento,3.1.5,60.371407556033546,
8,14,14,999,0.5,0:10,3,Red,None,0,0,1,28:50,./completed_changuitos/montage_jutqg_439.05_367.55.jpg,left,0,0,0,0,,,,,0,5,5,5,,,,,,,,,0,0,0,0,0,11,11,11,,,,,,,,,,,,,,,,,,None,None,None,1,None,None,,,,,,,,,,,,,,,,,,,,,,,,,,,,,,,,,,,,,,,,,,,,,,,,,,,,,,,,,,,,,EstebanL,001,d,2019_Oct_10_1449,Experimento,3.1.5,60.371407556033546,
8,14,14,999,0.5,0:10,3,Magenta,['space'],0,0,1,28:50,./completed_changuitos/montage_jutqg_439.05_367.55.jpg,left,0,0,0,0,,,,,0,5,5,5,,,,,,,,,0,0,0,0,0,12,12,12,,,,,,,,,,,,,,,,,,None,None,None,0,None,None,,,,,,,,,,,,,,,,,,,,,,,,,,,,,,,,,,,,,,,,,,,,,,,,,,,,,,,,,,,,,EstebanL,001,d,2019_Oct_10_1449,Experimento,3.1.5,60.371407556033546,
8,14,14,999,0.5,0:10,3,Red,['space'],0,0,1,28:50,./completed_changuitos/montage_jutqg_439.05_367.55.jpg,left,0,0,0,0,,,,,0,5,5,5,,,,,,,,,0,0,0,0,0,13,13,13,,,,,,,,,,,,,,,,,,None,None,None,0,None,None,,,,,,,,,,,,,,,,,,,,,,,,,,,,,,,,,,,,,,,,,,,,,,,,,,,,,,,,,,,,,EstebanL,001,d,2019_Oct_10_1449,Experimento,3.1.5,60.371407556033546,
8,14,14,999,0.5,0:10,3,Yellow,None,0,0,1,28:50,./completed_changuitos/montage_jutqg_439.05_367.55.jpg,left,0,0,0,0,,,,,0,5,5,5,,,,,,,,,0,0,0,0,0,14,14,14,,,,,,,,,,,,,,,,,,None,None,None,1,None,None,,,,,,,,,,,,,,,,,,,,,,,,,,,,,,,,,,,,,,,,,,,,,,,,,,,,,,,,,,,,,EstebanL,001,d,2019_Oct_10_1449,Experimento,3.1.5,60.371407556033546,
8,14,14,999,0.5,0:10,3,Cyan,None,0,0,1,28:50,./completed_changuitos/montage_jutqg_439.05_367.55.jpg,left,0,0,0,0,,,,,0,5,5,5,,,,,,,,,0,0,0,0,0,15,15,15,,,,,,,,,,,,,,,,,,None,None,None,1,None,None,,,,,,,,,,,,,,,,,,,,,,,,,,,,,,,,,,,,,,,,,,,,,,,,,,,,,,,,,,,,,EstebanL,001,d,2019_Oct_10_1449,Experimento,3.1.5,60.371407556033546,
8,14,14,999,0.5,0:10,3,Green,None,0,0,1,28:50,./completed_changuitos/montage_jutqg_439.05_367.55.jpg,left,0,0,0,0,,,,,0,5,5,5,,,,,,,,,0,0,0,0,0,16,16,16,,,,,,,,,,,,,,,,,,None,None,None,1,None,None,,,,,,,,,,,,,,,,,,,,,,,,,,,,,,,,,,,,,,,,,,,,,,,,,,,,,,,,,,,,,EstebanL,001,d,2019_Oct_10_1449,Experimento,3.1.5,60.371407556033546,
8,14,14,999,0.5,0:10,3,White,None,0,0,1,28:50,./completed_changuitos/montage_jutqg_439.05_367.55.jpg,left,0,0,0,0,,,,,0,5,5,5,,,,,,,,,0,0,0,0,0,17,17,17,,,,,,,,,,,,,,,,,,None,None,None,1,None,None,,,,,,,,,,,,,,,,,,,,,,,,,,,,,,,,,,,,,,,,,,,,,,,,,,,,,,,,,,,,,EstebanL,001,d,2019_Oct_10_1449,Experimento,3.1.5,60.371407556033546,
8,14,14,999,0.5,0:10,3,Green,['space'],0,0,1,28:50,./completed_changuitos/montage_jutqg_439.05_367.55.jpg,left,0,0,0,0,,,,,0,5,5,5,,,,,,,,,0,0,0,0,0,18,18,18,,,,,,,,,,,,,,,,,,None,None,None,0,None,None,,,,,,,,,,,,,,,,,,,,,,,,,,,,,,,,,,,,,,,,,,,,,,,,,,,,,,,,,,,,,EstebanL,001,d,2019_Oct_10_1449,Experimento,3.1.5,60.371407556033546,
8,14,14,999,0.5,0:10,3,Red,None,0,0,1,28:50,./completed_changuitos/montage_jutqg_439.05_367.55.jpg,left,0,0,0,0,,,,,0,5,5,5,,,,,,,,,0,0,0,0,0,19,19,19,,,,,,,,,,,,,,,,,,None,None,None,1,None,None,,,,,,,,,,,,,,,,,,,,,,,,,,,,,,,,,,,,,,,,,,,,,,,,,,,,,,,,,,,,,EstebanL,001,d,2019_Oct_10_1449,Experimento,3.1.5,60.371407556033546,
8,14,14,999,0.5,0:10,3,Blue,None,0,0,1,28:50,./completed_changuitos/montage_jutqg_439.05_367.55.jpg,left,0,0,0,0,,,,,0,5,5,5,,,,,,,,,0,0,0,0,0,20,20,20,,,,,,,,,,,,,,,,,,None,None,None,1,None,None,,,,,,,,,,,,,,,,,,,,,,,,,,,,,,,,,,,,,,,,,,,,,,,,,,,,,,,,,,,,,EstebanL,001,d,2019_Oct_10_1449,Experimento,3.1.5,60.371407556033546,
8,14,14,999,0.5,0:10,3,Green,None,0,0,1,28:50,./completed_changuitos/montage_jutqg_439.05_367.55.jpg,left,0,0,0,0,,,,,0,5,5,5,,,,,,,,,0,0,0,0,0,21,21,21,,,,,,,,,,,,,,,,,,None,None,None,1,None,None,,,,,,,,,,,,,,,,,,,,,,,,,,,,,,,,,,,,,,,,,,,,,,,,,,,,,,,,,,,,,EstebanL,001,d,2019_Oct_10_1449,Experimento,3.1.5,60.371407556033546,
8,14,14,999,0.5,0:10,3,,,0,0,1,28:50,./completed_changuitos/montage_jutqg_439.05_367.55.jpg,left,0,0,0,0,,,,,0,5,5,5,,,,,,,,,0,0,0,0,,,,,,,,,,,,,,,,,,,,,,,,,,,,,319.3321341780029,None,right,0,0.9122830520063872,319.3321341780029,None,319.3321341780029,None,,,,,,,,,,,,,,,,,,,,,,,,,,,,,,,,,,,,,,,,,,,,,,,,,,,EstebanL,001,d,2019_Oct_10_1449,Experimento,3.1.5,60.371407556033546,
8,14,14,999,0.5,0:10,3,,,0,0,1,28:50,,,0,0,0,0,,,,,0,5,5,5,,,,,,,,,,,,,,,,,,,,,,,,,,,,,,,,,,,,,,,,,,,,,,,,,,,,,,,,,,,,,,,,,,,,,,,,,,,,,,,,,,,,,,,,,,,,,,,,,,,,EstebanL,001,d,2019_Oct_10_1449,Experimento,3.1.5,60.371407556033546,
8,14,14,999,0.5,0:10,3,,,0,1,0,19:50,./completed_changuitos/montage_voium_46.79_40.95.jpg,left,0,0,0,0,,,,,0,6,6,6,,,,,0,0,0,0,,,,,,,,,,,,,,,,,,,,,,,,,,,,,,,,,,,,,,,,,,320.5318651830021,325.60072021499946,325.60072021499946,333.602805180999,333.602805180999,347.60983281600056,left,1,0.7937352119988645,347.60983281600056,None,347.60983281600056,None,347.60983281600056,None,,,,,,,,,,,,,,,,,,,,,,,,,,,,,,,,,,,,EstebanL,001,d,2019_Oct_10_1449,Experimento,3.1.5,60.371407556033546,
8,14,14,999,0.5,0:10,3,,,0,1,0,19:50,,,0,0,0,0,,,,,0,6,6,6,,,,,,,,,,,,,,,,,,,,,,,,,,,,,,,,,,,,,,,,,,,,,,,,,,,,,,,,,,,,,,,,,,,,,,,,,,,,,,,,,,,,,,,,,,,,,,,,,,,,EstebanL,001,d,2019_Oct_10_1449,Experimento,3.1.5,60.371407556033546,
8,14,14,999,0.5,0:10,3,,,0,1,0,19:50,./completed_changuitos/montage_nxyuf_412.39_354.19.jpg,left,0,0,0,0,,,,,0,7,7,7,,,,,0,0,0,0,,,,,,,,,,,,,,,,,,,,,,,,,,,,,,,,,,,,,,,,,,348.70105581400276,354.7645996200008,354.7645996200008,362.7668035359966,362.7668035359966,376.7740273439995,right,0,0.8615056829949026,376.7740273439995,None,376.7740273439995,None,376.7740273439995,None,,,,,,,,,,,,,,,,,,,,,,,,,,,,,,,,,,,,EstebanL,001,d,2019_Oct_10_1449,Experimento,3.1.5,60.371407556033546,
8,14,14,999,0.5,0:10,3,,,0,1,0,19:50,,,0,0,0,0,,,,,0,7,7,7,,,,,,,,,,,,,,,,,,,,,,,,,,,,,,,,,,,,,,,,,,,,,,,,,,,,,,,,,,,,,,,,,,,,,,,,,,,,,,,,,,,,,,,,,,,,,,,,,,,,EstebanL,001,d,2019_Oct_10_1449,Experimento,3.1.5,60.371407556033546,
8,14,14,999,0.5,0:10,3,Yellow,None,0,0,1,15:50,./completed_changuitos/montage_kriax_151.69_170.15.jpg,right,0,0,0,0,,,,,0,8,8,8,,,,,,,,,0,0,0,0,0,0,0,0,,,,,,,,,,,,,,377.8591729550026,378.8256103379972,378.8256103379972,None,386.8626784320004,387.3456455310006,None,1,386.8626784320004,None,,,,,,,,,,,,,,,,,,,,,,,,,,,,,,,,,,,,,,,,,,,,,,,,,,,,,,,,,,,,,EstebanL,001,d,2019_Oct_10_1449,Experimento,3.1.5,60.371407556033546,
8,14,14,999,0.5,0:10,3,White,['space'],0,0,1,15:50,./completed_changuitos/montage_kriax_151.69_170.15.jpg,right,0,0,0,0,,,,,0,8,8,8,,,,,,,,,0,0,0,0,0,1,1,1,,,,,,,,,,,,,,,,,,388.86565676100145,389.3463067210032,None,0,388.86565676100145,None,,,,,,,,,,,,,,,,,,,,,,,,,,,,,,,,,,,,,,,,,,,,,,,,,,,,,,,,,,,,,EstebanL,001,d,2019_Oct_10_1449,Experimento,3.1.5,60.371407556033546,
8,14,14,999,0.5,0:10,3,Magenta,None,0,0,1,15:50,./completed_changuitos/montage_kriax_151.69_170.15.jpg,right,0,0,0,0,,,,,0,8,8,8,,,,,,,,,0,0,0,0,0,2,2,2,,,,,,,,,,,,,,,,,,390.86446398599946,391.3479360869969,None,1,390.86446398599946,None,,,,,,,,,,,,,,,,,,,,,,,,,,,,,,,,,,,,,,,,,,,,,,,,,,,,,,,,,,,,,EstebanL,001,d,2019_Oct_10_1449,Experimento,3.1.5,60.371407556033546,
8,14,14,999,0.5,0:10,3,Cyan,None,0,0,1,15:50,./completed_changuitos/montage_kriax_151.69_170.15.jpg,right,0,0,0,0,,,,,0,8,8,8,,,,,,,,,0,0,0,0,0,3,3,3,,,,,,,,,,,,,,,,,,392.8659108569991,393.34854399100004,None,1,392.8659108569991,None,,,,,,,,,,,,,,,,,,,,,,,,,,,,,,,,,,,,,,,,,,,,,,,,,,,,,,,,,,,,,EstebanL,001,d,2019_Oct_10_1449,Experimento,3.1.5,60.371407556033546,
8,14,14,999,0.5,0:10,3,Blue,None,0,0,1,15:50,./completed_changuitos/montage_kriax_151.69_170.15.jpg,right,0,0,0,0,,,,,0,8,8,8,,,,,,,,,0,0,0,0,0,4,4,4,,,,,,,,,,,,,,,,,,394.86798868299957,395.34987672600255,None,1,394.86798868299957,None,,,,,,,,,,,,,,,,,,,,,,,,,,,,,,,,,,,,,,,,,,,,,,,,,,,,,,,,,,,,,EstebanL,001,d,2019_Oct_10_1449,Experimento,3.1.5,60.371407556033546,
8,14,14,999,0.5,0:10,3,Magenta,None,0,0,1,15:50,./completed_changuitos/montage_kriax_151.69_170.15.jpg,right,0,0,0,0,,,,,0,8,8,8,,,,,,,,,0,0,0,0,0,5,5,5,,,,,,,,,,,,,,,,,,396.8672671539971,397.3503775019999,None,1,396.8672671539971,None,,,,,,,,,,,,,,,,,,,,,,,,,,,,,,,,,,,,,,,,,,,,,,,,,,,,,,,,,,,,,EstebanL,001,d,2019_Oct_10_1449,Experimento,3.1.5,60.371407556033546,
8,14,14,999,0.5,0:10,3,Blue,['space'],0,0,1,15:50,./completed_changuitos/montage_kriax_151.69_170.15.jpg,right,0,0,0,0,,,,,0,8,8,8,,,,,,,,,0,0,0,0,0,6,6,6,,,,,,,,,,,,,,,,,,398.8700324599995,399.35183955600223,"['return', 'return', 'return']",0,398.8700324599995,None,"[0.33773793900036253, 0.7196862269993289, 0.923812747001648]",,,,,,,,,,,,,,,,,,,,,,,,,,,,,,,,,,,,,,,,,,,,,,,,,,,,,,,,,,,,EstebanL,001,d,2019_Oct_10_1449,Experimento,3.1.5,60.371407556033546,
8,14,14,999,0.5,0:10,3,Cyan,None,0,0,1,15:50,./completed_changuitos/montage_kriax_151.69_170.15.jpg,right,0,0,0,0,,,,,0,8,8,8,,,,,,,,,0,0,0,0,0,7,7,7,,,,,,,,,,,,,,,,,,None,None,None,1,None,None,,,,,,,,,,,,,,,,,,,,,,,,,,,,,,,,,,,,,,,,,,,,,,,,,,,,,,,,,,,,,EstebanL,001,d,2019_Oct_10_1449,Experimento,3.1.5,60.371407556033546,
8,14,14,999,0.5,0:10,3,Yellow,None,0,0,1,15:50,./completed_changuitos/montage_kriax_151.69_170.15.jpg,right,0,0,0,0,,,,,0,8,8,8,,,,,,,,,0,0,0,0,0,8,8,8,,,,,,,,,,,,,,,,,,None,None,None,1,None,None,,,,,,,,,,,,,,,,,,,,,,,,,,,,,,,,,,,,,,,,,,,,,,,,,,,,,,,,,,,,,EstebanL,001,d,2019_Oct_10_1449,Experimento,3.1.5,60.371407556033546,
8,14,14,999,0.5,0:10,3,Cyan,None,0,0,1,15:50,./completed_changuitos/montage_kriax_151.69_170.15.jpg,right,0,0,0,0,,,,,0,8,8,8,,,,,,,,,0,0,0,0,0,9,9,9,,,,,,,,,,,,,,,,,,None,None,None,1,None,None,,,,,,,,,,,,,,,,,,,,,,,,,,,,,,,,,,,,,,,,,,,,,,,,,,,,,,,,,,,,,EstebanL,001,d,2019_Oct_10_1449,Experimento,3.1.5,60.371407556033546,
8,14,14,999,0.5,0:10,3,Blue,None,0,0,1,15:50,./completed_changuitos/montage_kriax_151.69_170.15.jpg,right,0,0,0,0,,,,,0,8,8,8,,,,,,,,,0,0,0,0,0,10,10,10,,,,,,,,,,,,,,,,,,None,None,None,1,None,None,,,,,,,,,,,,,,,,,,,,,,,,,,,,,,,,,,,,,,,,,,,,,,,,,,,,,,,,,,,,,EstebanL,001,d,2019_Oct_10_1449,Experimento,3.1.5,60.371407556033546,
8,14,14,999,0.5,0:10,3,Cyan,['space'],0,0,1,15:50,./completed_changuitos/montage_kriax_151.69_170.15.jpg,right,0,0,0,0,,,,,0,8,8,8,,,,,,,,,0,0,0,0,0,11,11,11,,,,,,,,,,,,,,,,,,None,None,None,0,None,None,,,,,,,,,,,,,,,,,,,,,,,,,,,,,,,,,,,,,,,,,,,,,,,,,,,,,,,,,,,,,EstebanL,001,d,2019_Oct_10_1449,Experimento,3.1.5,60.371407556033546,
8,14,14,999,0.5,0:10,3,Magenta,None,0,0,1,15:50,./completed_changuitos/montage_kriax_151.69_170.15.jpg,right,0,0,0,0,,,,,0,8,8,8,,,,,,,,,0,0,0,0,0,12,12,12,,,,,,,,,,,,,,,,,,None,None,None,1,None,None,,,,,,,,,,,,,,,,,,,,,,,,,,,,,,,,,,,,,,,,,,,,,,,,,,,,,,,,,,,,,EstebanL,001,d,2019_Oct_10_1449,Experimento,3.1.5,60.371407556033546,
8,14,14,999,0.5,0:10,3,Red,None,0,0,1,15:50,./completed_changuitos/montage_kriax_151.69_170.15.jpg,right,0,0,0,0,,,,,0,8,8,8,,,,,,,,,0,0,0,0,0,13,13,13,,,,,,,,,,,,,,,,,,None,None,None,1,None,None,,,,,,,,,,,,,,,,,,,,,,,,,,,,,,,,,,,,,,,,,,,,,,,,,,,,,,,,,,,,,EstebanL,001,d,2019_Oct_10_1449,Experimento,3.1.5,60.371407556033546,
8,14,14,999,0.5,0:10,3,Magenta,['space'],0,0,1,15:50,./completed_changuitos/montage_kriax_151.69_170.15.jpg,right,0,0,0,0,,,,,0,8,8,8,,,,,,,,,0,0,0,0,0,14,14,14,,,,,,,,,,,,,,,,,,None,None,None,0,None,None,,,,,,,,,,,,,,,,,,,,,,,,,,,,,,,,,,,,,,,,,,,,,,,,,,,,,,,,,,,,,EstebanL,001,d,2019_Oct_10_1449,Experimento,3.1.5,60.371407556033546,
8,14,14,999,0.5,0:10,3,Green,None,0,0,1,15:50,./completed_changuitos/montage_kriax_151.69_170.15.jpg,right,0,0,0,0,,,,,0,8,8,8,,,,,,,,,0,0,0,0,0,15,15,15,,,,,,,,,,,,,,,,,,None,None,None,1,None,None,,,,,,,,,,,,,,,,,,,,,,,,,,,,,,,,,,,,,,,,,,,,,,,,,,,,,,,,,,,,,EstebanL,001,d,2019_Oct_10_1449,Experimento,3.1.5,60.371407556033546,
8,14,14,999,0.5,0:10,3,Yellow,['space'],0,0,1,15:50,./completed_changuitos/montage_kriax_151.69_170.15.jpg,right,0,0,0,0,,,,,0,8,8,8,,,,,,,,,0,0,0,0,0,16,16,16,,,,,,,,,,,,,,,,,,None,None,None,0,None,None,,,,,,,,,,,,,,,,,,,,,,,,,,,,,,,,,,,,,,,,,,,,,,,,,,,,,,,,,,,,,EstebanL,001,d,2019_Oct_10_1449,Experimento,3.1.5,60.371407556033546,
8,14,14,999,0.5,0:10,3,Blue,None,0,0,1,15:50,./completed_changuitos/montage_kriax_151.69_170.15.jpg,right,0,0,0,0,,,,,0,8,8,8,,,,,,,,,0,0,0,0,0,17,17,17,,,,,,,,,,,,,,,,,,None,None,None,1,None,None,,,,,,,,,,,,,,,,,,,,,,,,,,,,,,,,,,,,,,,,,,,,,,,,,,,,,,,,,,,,,EstebanL,001,d,2019_Oct_10_1449,Experimento,3.1.5,60.371407556033546,
8,14,14,999,0.5,0:10,3,Cyan,None,0,0,1,15:50,./completed_changuitos/montage_kriax_151.69_170.15.jpg,right,0,0,0,0,,,,,0,8,8,8,,,,,,,,,0,0,0,0,0,18,18,18,,,,,,,,,,,,,,,,,,None,None,None,1,None,None,,,,,,,,,,,,,,,,,,,,,,,,,,,,,,,,,,,,,,,,,,,,,,,,,,,,,,,,,,,,,EstebanL,001,d,2019_Oct_10_1449,Experimento,3.1.5,60.371407556033546,
8,14,14,999,0.5,0:10,3,Blue,['space'],0,0,1,15:50,./completed_changuitos/montage_kriax_151.69_170.15.jpg,right,0,0,0,0,,,,,0,8,8,8,,,,,,,,,0,0,0,0,0,19,19,19,,,,,,,,,,,,,,,,,,None,None,None,0,None,None,,,,,,,,,,,,,,,,,,,,,,,,,,,,,,,,,,,,,,,,,,,,,,,,,,,,,,,,,,,,,EstebanL,001,d,2019_Oct_10_1449,Experimento,3.1.5,60.371407556033546,
8,14,14,999,0.5,0:10,3,Yellow,None,0,0,1,15:50,./completed_changuitos/montage_kriax_151.69_170.15.jpg,right,0,0,0,0,,,,,0,8,8,8,,,,,,,,,0,0,0,0,0,20,20,20,,,,,,,,,,,,,,,,,,None,None,None,1,None,None,,,,,,,,,,,,,,,,,,,,,,,,,,,,,,,,,,,,,,,,,,,,,,,,,,,,,,,,,,,,,EstebanL,001,d,2019_Oct_10_1449,Experimento,3.1.5,60.371407556033546,
8,14,14,999,0.5,0:10,3,Cyan,None,0,0,1,15:50,./completed_changuitos/montage_kriax_151.69_170.15.jpg,right,0,0,0,0,,,,,0,8,8,8,,,,,,,,,0,0,0,0,0,21,21,21,,,,,,,,,,,,,,,,,,None,None,None,1,None,None,,,,,,,,,,,,,,,,,,,,,,,,,,,,,,,,,,,,,,,,,,,,,,,,,,,,,,,,,,,,,EstebanL,001,d,2019_Oct_10_1449,Experimento,3.1.5,60.371407556033546,
8,14,14,999,0.5,0:10,3,Yellow,['space'],0,0,1,15:50,./completed_changuitos/montage_kriax_151.69_170.15.jpg,right,0,0,0,0,,,,,0,8,8,8,,,,,,,,,0,0,0,0,0,22,22,22,,,,,,,,,,,,,,,,,,None,None,None,0,None,None,,,,,,,,,,,,,,,,,,,,,,,,,,,,,,,,,,,,,,,,,,,,,,,,,,,,,,,,,,,,,EstebanL,001,d,2019_Oct_10_1449,Experimento,3.1.5,60.371407556033546,
8,14,14,999,0.5,0:10,3,Magenta,None,0,0,1,15:50,./completed_changuitos/montage_kriax_151.69_170.15.jpg,right,0,0,0,0,,,,,0,8,8,8,,,,,,,,,0,0,0,0,0,23,23,23,,,,,,,,,,,,,,,,,,None,None,None,1,None,None,,,,,,,,,,,,,,,,,,,,,,,,,,,,,,,,,,,,,,,,,,,,,,,,,,,,,,,,,,,,,EstebanL,001,d,2019_Oct_10_1449,Experimento,3.1.5,60.371407556033546,
8,14,14,999,0.5,0:10,3,Red,None,0,0,1,15:50,./completed_changuitos/montage_kriax_151.69_170.15.jpg,right,0,0,0,0,,,,,0,8,8,8,,,,,,,,,0,0,0,0,0,24,24,24,,,,,,,,,,,,,,,,,,None,None,None,1,None,None,,,,,,,,,,,,,,,,,,,,,,,,,,,,,,,,,,,,,,,,,,,,,,,,,,,,,,,,,,,,,EstebanL,001,d,2019_Oct_10_1449,Experimento,3.1.5,60.371407556033546,
8,14,14,999,0.5,0:10,3,Magenta,['space'],0,0,1,15:50,./completed_changuitos/montage_kriax_151.69_170.15.jpg,right,0,0,0,0,,,,,0,8,8,8,,,,,,,,,0,0,0,0,0,25,25,25,,,,,,,,,,,,,,,,,,None,None,None,0,None,None,,,,,,,,,,,,,,,,,,,,,,,,,,,,,,,,,,,,,,,,,,,,,,,,,,,,,,,,,,,,,EstebanL,001,d,2019_Oct_10_1449,Experimento,3.1.5,60.371407556033546,
8,14,14,999,0.5,0:10,3,Red,['space'],0,0,1,15:50,./completed_changuitos/montage_kriax_151.69_170.15.jpg,right,0,0,0,0,,,,,0,8,8,8,,,,,,,,,0,0,0,0,0,26,26,26,,,,,,,,,,,,,,,,,,None,None,None,0,None,None,,,,,,,,,,,,,,,,,,,,,,,,,,,,,,,,,,,,,,,,,,,,,,,,,,,,,,,,,,,,,EstebanL,001,d,2019_Oct_10_1449,Experimento,3.1.5,60.371407556033546,
8,14,14,999,0.5,0:10,3,Yellow,None,0,0,1,15:50,./completed_changuitos/montage_kriax_151.69_170.15.jpg,right,0,0,0,0,,,,,0,8,8,8,,,,,,,,,0,0,0,0,0,27,27,27,,,,,,,,,,,,,,,,,,None,None,None,1,None,None,,,,,,,,,,,,,,,,,,,,,,,,,,,,,,,,,,,,,,,,,,,,,,,,,,,,,,,,,,,,,EstebanL,001,d,2019_Oct_10_1449,Experimento,3.1.5,60.371407556033546,
8,14,14,999,0.5,0:10,3,Cyan,None,0,0,1,15:50,./completed_changuitos/montage_kriax_151.69_170.15.jpg,right,0,0,0,0,,,,,0,8,8,8,,,,,,,,,0,0,0,0,0,28,28,28,,,,,,,,,,,,,,,,,,None,None,None,1,None,None,,,,,,,,,,,,,,,,,,,,,,,,,,,,,,,,,,,,,,,,,,,,,,,,,,,,,,,,,,,,,EstebanL,001,d,2019_Oct_10_1449,Experimento,3.1.5,60.371407556033546,
8,14,14,999,0.5,0:10,3,Green,None,0,0,1,15:50,./completed_changuitos/montage_kriax_151.69_170.15.jpg,right,0,0,0,0,,,,,0,8,8,8,,,,,,,,,0,0,0,0,0,29,29,29,,,,,,,,,,,,,,,,,,None,None,None,1,None,None,,,,,,,,,,,,,,,,,,,,,,,,,,,,,,,,,,,,,,,,,,,,,,,,,,,,,,,,,,,,,EstebanL,001,d,2019_Oct_10_1449,Experimento,3.1.5,60.371407556033546,
8,14,14,999,0.5,0:10,3,White,None,0,0,1,15:50,./completed_changuitos/montage_kriax_151.69_170.15.jpg,right,0,0,0,0,,,,,0,8,8,8,,,,,,,,,0,0,0,0,0,30,30,30,,,,,,,,,,,,,,,,,,None,None,None,1,None,None,,,,,,,,,,,,,,,,,,,,,,,,,,,,,,,,,,,,,,,,,,,,,,,,,,,,,,,,,,,,,EstebanL,001,d,2019_Oct_10_1449,Experimento,3.1.5,60.371407556033546,
8,14,14,999,0.5,0:10,3,Green,['space'],0,0,1,15:50,./completed_changuitos/montage_kriax_151.69_170.15.jpg,right,0,0,0,0,,,,,0,8,8,8,,,,,,,,,0,0,0,0,0,31,31,31,,,,,,,,,,,,,,,,,,None,None,None,0,None,None,,,,,,,,,,,,,,,,,,,,,,,,,,,,,,,,,,,,,,,,,,,,,,,,,,,,,,,,,,,,,EstebanL,001,d,2019_Oct_10_1449,Experimento,3.1.5,60.371407556033546,
8,14,14,999,0.5,0:10,3,Red,None,0,0,1,15:50,./completed_changuitos/montage_kriax_151.69_170.15.jpg,right,0,0,0,0,,,,,0,8,8,8,,,,,,,,,0,0,0,0,0,32,32,32,,,,,,,,,,,,,,,,,,None,None,None,1,None,None,,,,,,,,,,,,,,,,,,,,,,,,,,,,,,,,,,,,,,,,,,,,,,,,,,,,,,,,,,,,,EstebanL,001,d,2019_Oct_10_1449,Experimento,3.1.5,60.371407556033546,
8,14,14,999,0.5,0:10,3,Blue,None,0,0,1,15:50,./completed_changuitos/montage_kriax_151.69_170.15.jpg,right,0,0,0,0,,,,,0,8,8,8,,,,,,,,,0,0,0,0,0,33,33,33,,,,,,,,,,,,,,,,,,None,None,None,1,None,None,,,,,,,,,,,,,,,,,,,,,,,,,,,,,,,,,,,,,,,,,,,,,,,,,,,,,,,,,,,,,EstebanL,001,d,2019_Oct_10_1449,Experimento,3.1.5,60.371407556033546,
8,14,14,999,0.5,0:10,3,Green,None,0,0,1,15:50,./completed_changuitos/montage_kriax_151.69_170.15.jpg,right,0,0,0,0,,,,,0,8,8,8,,,,,,,,,0,0,0,0,0,34,34,34,,,,,,,,,,,,,,,,,,None,None,None,1,None,None,,,,,,,,,,,,,,,,,,,,,,,,,,,,,,,,,,,,,,,,,,,,,,,,,,,,,,,,,,,,,EstebanL,001,d,2019_Oct_10_1449,Experimento,3.1.5,60.371407556033546,
8,14,14,999,0.5,0:10,3,,,0,0,1,15:50,./completed_changuitos/montage_kriax_151.69_170.15.jpg,right,0,0,0,0,,,,,0,8,8,8,,,,,,,,,0,0,0,0,,,,,,,,,,,,,,,,,,,,,,,,,,,,,401.436313461003,None,right,1,1.0199484650001978,401.436313461003,None,401.436313461003,None,,,,,,,,,,,,,,,,,,,,,,,,,,,,,,,,,,,,,,,,,,,,,,,,,,,EstebanL,001,d,2019_Oct_10_1449,Experimento,3.1.5,60.371407556033546,
8,14,14,999,0.5,0:10,3,,,0,0,1,15:50,,,0,0,0,0,,,,,0,8,8,8,,,,,,,,,,,,,,,,,,,,,,,,,,,,,,,,,,,,,,,,,,,,,,,,,,,,,,,,,,,,,,,,,,,,,,,,,,,,,,,,,,,,,,,,,,,,,,,,,,,,EstebanL,001,d,2019_Oct_10_1449,Experimento,3.1.5,60.371407556033546,
8,14,14,999,0.5,0:10,3,,,0,1,0,25:50,./completed_changuitos/montage_hwawr_67.19_57.69.jpg,left,0,0,0,0,,,,,0,9,9,9,,,,,0,0,0,0,,,,,,,,,,,,,,,,,,,,,,,,,,,,,,,,,,,,,,,,,,402.7367437569992,404.638594889002,404.638594889002,412.64033863499935,412.64033863499935,426.64763207599754,right,0,0.6731931100002839,426.64763207599754,None,426.64763207599754,None,426.64763207599754,None,,,,,,,,,,,,,,,,,,,,,,,,,,,,,,,,,,,,EstebanL,001,d,2019_Oct_10_1449,Experimento,3.1.5,60.371407556033546,
8,14,14,999,0.5,0:10,3,,,0,1,0,25:50,,,0,0,0,0,,,,,0,9,9,9,,,,,,,,,,,,,,,,,,,,,,,,,,,,,,,,,,,,,,,,,,,,,,,,,,,,,,,,,,,,,,,,,,,,,,,,,,,,,,,,,,,,,,,,,,,,,,,,,,,,EstebanL,001,d,2019_Oct_10_1449,Experimento,3.1.5,60.371407556033546,
8,14,14,999,0.5,0:10,3,Magenta,None,0,0,1,20:50,./completed_changuitos/montage_cbtsf_135.89_115.99.jpg,left,0,0,0,0,,,,,0,10,10,10,,,,,,,,,0,0,0,0,0,0,0,0,,,,,,,,,,,,,,427.54874307400314,435.5202862389997,435.5202862389997,None,443.556460435997,444.03889481600345,None,1,443.556460435997,None,,,,,,,,,,,,,,,,,,,,,,,,,,,,,,,,,,,,,,,,,,,,,,,,,,,,,,,,,,,,,EstebanL,001,d,2019_Oct_10_1449,Experimento,3.1.5,60.371407556033546,
8,14,14,999,0.5,0:10,3,Blue,['space'],0,0,1,20:50,./completed_changuitos/montage_cbtsf_135.89_115.99.jpg,left,0,0,0,0,,,,,0,10,10,10,,,,,,,,,0,0,0,0,0,1,1,1,,,,,,,,,,,,,,,,,,445.5579378559996,446.0401262079977,None,0,445.5579378559996,None,,,,,,,,,,,,,,,,,,,,,,,,,,,,,,,,,,,,,,,,,,,,,,,,,,,,,,,,,,,,,EstebanL,001,d,2019_Oct_10_1449,Experimento,3.1.5,60.371407556033546,
8,14,14,999,0.5,0:10,3,Cyan,None,0,0,1,20:50,./completed_changuitos/montage_cbtsf_135.89_115.99.jpg,left,0,0,0,0,,,,,0,10,10,10,,,,,,,,,0,0,0,0,0,2,2,2,,,,,,,,,,,,,,,,,,447.5597737650023,448.0411177339993,None,1,447.5597737650023,None,,,,,,,,,,,,,,,,,,,,,,,,,,,,,,,,,,,,,,,,,,,,,,,,,,,,,,,,,,,,,EstebanL,001,d,2019_Oct_10_1449,Experimento,3.1.5,60.371407556033546,
8,14,14,999,0.5,0:10,3,Yellow,None,0,0,1,20:50,./completed_changuitos/montage_cbtsf_135.89_115.99.jpg,left,0,0,0,0,,,,,0,10,10,10,,,,,,,,,0,0,0,0,0,3,3,3,,,,,,,,,,,,,,,,,,449.56042561399954,450.0417324759983,None,1,449.56042561399954,None,,,,,,,,,,,,,,,,,,,,,,,,,,,,,,,,,,,,,,,,,,,,,,,,,,,,,,,,,,,,,EstebanL,001,d,2019_Oct_10_1449,Experimento,3.1.5,60.371407556033546,
8,14,14,999,0.5,0:10,3,Cyan,None,0,0,1,20:50,./completed_changuitos/montage_cbtsf_135.89_115.99.jpg,left,0,0,0,0,,,,,0,10,10,10,,,,,,,,,0,0,0,0,0,4,4,4,,,,,,,,,,,,,,,,,,451.5601788369968,452.0430422110003,"['return', 'return', 'return']",0,451.5601788369968,None,"[0.5366089689996443, 0.8735578249979881, 1.1044527210033266]",,,,,,,,,,,,,,,,,,,,,,,,,,,,,,,,,,,,,,,,,,,,,,,,,,,,,,,,,,,,EstebanL,001,d,2019_Oct_10_1449,Experimento,3.1.5,60.371407556033546,
8,14,14,999,0.5,0:10,3,Blue,None,0,0,1,20:50,./completed_changuitos/montage_cbtsf_135.89_115.99.jpg,left,0,0,0,0,,,,,0,10,10,10,,,,,,,,,0,0,0,0,0,5,5,5,,,,,,,,,,,,,,,,,,453.56300870500127,454.04397064800287,['return'],0,453.56300870500127,None,[1.0525047390037798],,,,,,,,,,,,,,,,,,,,,,,,,,,,,,,,,,,,,,,,,,,,,,,,,,,,,,,,,,,,EstebanL,001,d,2019_Oct_10_1449,Experimento,3.1.5,60.371407556033546,
8,14,14,999,0.5,0:10,3,Cyan,['space'],0,0,1,20:50,./completed_changuitos/montage_cbtsf_135.89_115.99.jpg,left,0,0,0,0,,,,,0,10,10,10,,,,,,,,,0,0,0,0,0,6,6,6,,,,,,,,,,,,,,,,,,455.5636306969973,456.0446078169989,"['return', 'return']",0,455.5636306969973,None,"[1.5667310360004194, 1.9418047399958596]",,,,,,,,,,,,,,,,,,,,,,,,,,,,,,,,,,,,,,,,,,,,,,,,,,,,,,,,,,,,EstebanL,001,d,2019_Oct_10_1449,Experimento,3.1.5,60.371407556033546,
8,14,14,999,0.5,0:10,3,Magenta,None,0,0,1,20:50,./completed_changuitos/montage_cbtsf_135.89_115.99.jpg,left,0,0,0,0,,,,,0,10,10,10,,,,,,,,,0,0,0,0,0,7,7,7,,,,,,,,,,,,,,,,,,None,None,None,1,None,None,,,,,,,,,,,,,,,,,,,,,,,,,,,,,,,,,,,,,,,,,,,,,,,,,,,,,,,,,,,,,EstebanL,001,d,2019_Oct_10_1449,Experimento,3.1.5,60.371407556033546,
8,14,14,999,0.5,0:10,3,Red,None,0,0,1,20:50,./completed_changuitos/montage_cbtsf_135.89_115.99.jpg,left,0,0,0,0,,,,,0,10,10,10,,,,,,,,,0,0,0,0,0,8,8,8,,,,,,,,,,,,,,,,,,None,None,None,1,None,None,,,,,,,,,,,,,,,,,,,,,,,,,,,,,,,,,,,,,,,,,,,,,,,,,,,,,,,,,,,,,EstebanL,001,d,2019_Oct_10_1449,Experimento,3.1.5,60.371407556033546,
8,14,14,999,0.5,0:10,3,Magenta,['space'],0,0,1,20:50,./completed_changuitos/montage_cbtsf_135.89_115.99.jpg,left,0,0,0,0,,,,,0,10,10,10,,,,,,,,,0,0,0,0,0,9,9,9,,,,,,,,,,,,,,,,,,None,None,None,0,None,None,,,,,,,,,,,,,,,,,,,,,,,,,,,,,,,,,,,,,,,,,,,,,,,,,,,,,,,,,,,,,EstebanL,001,d,2019_Oct_10_1449,Experimento,3.1.5,60.371407556033546,
8,14,14,999,0.5,0:10,3,Green,None,0,0,1,20:50,./completed_changuitos/montage_cbtsf_135.89_115.99.jpg,left,0,0,0,0,,,,,0,10,10,10,,,,,,,,,0,0,0,0,0,10,10,10,,,,,,,,,,,,,,,,,,None,None,None,1,None,None,,,,,,,,,,,,,,,,,,,,,,,,,,,,,,,,,,,,,,,,,,,,,,,,,,,,,,,,,,,,,EstebanL,001,d,2019_Oct_10_1449,Experimento,3.1.5,60.371407556033546,
8,14,14,999,0.5,0:10,3,Yellow,['space'],0,0,1,20:50,./completed_changuitos/montage_cbtsf_135.89_115.99.jpg,left,0,0,0,0,,,,,0,10,10,10,,,,,,,,,0,0,0,0,0,11,11,11,,,,,,,,,,,,,,,,,,None,None,None,0,None,None,,,,,,,,,,,,,,,,,,,,,,,,,,,,,,,,,,,,,,,,,,,,,,,,,,,,,,,,,,,,,EstebanL,001,d,2019_Oct_10_1449,Experimento,3.1.5,60.371407556033546,
8,14,14,999,0.5,0:10,3,Blue,None,0,0,1,20:50,./completed_changuitos/montage_cbtsf_135.89_115.99.jpg,left,0,0,0,0,,,,,0,10,10,10,,,,,,,,,0,0,0,0,0,12,12,12,,,,,,,,,,,,,,,,,,None,None,None,1,None,None,,,,,,,,,,,,,,,,,,,,,,,,,,,,,,,,,,,,,,,,,,,,,,,,,,,,,,,,,,,,,EstebanL,001,d,2019_Oct_10_1449,Experimento,3.1.5,60.371407556033546,
8,14,14,999,0.5,0:10,3,Cyan,None,0,0,1,20:50,./completed_changuitos/montage_cbtsf_135.89_115.99.jpg,left,0,0,0,0,,,,,0,10,10,10,,,,,,,,,0,0,0,0,0,13,13,13,,,,,,,,,,,,,,,,,,None,None,None,1,None,None,,,,,,,,,,,,,,,,,,,,,,,,,,,,,,,,,,,,,,,,,,,,,,,,,,,,,,,,,,,,,EstebanL,001,d,2019_Oct_10_1449,Experimento,3.1.5,60.371407556033546,
8,14,14,999,0.5,0:10,3,Blue,['space'],0,0,1,20:50,./completed_changuitos/montage_cbtsf_135.89_115.99.jpg,left,0,0,0,0,,,,,0,10,10,10,,,,,,,,,0,0,0,0,0,14,14,14,,,,,,,,,,,,,,,,,,None,None,None,0,None,None,,,,,,,,,,,,,,,,,,,,,,,,,,,,,,,,,,,,,,,,,,,,,,,,,,,,,,,,,,,,,EstebanL,001,d,2019_Oct_10_1449,Experimento,3.1.5,60.371407556033546,
8,14,14,999,0.5,0:10,3,Yellow,None,0,0,1,20:50,./completed_changuitos/montage_cbtsf_135.89_115.99.jpg,left,0,0,0,0,,,,,0,10,10,10,,,,,,,,,0,0,0,0,0,15,15,15,,,,,,,,,,,,,,,,,,None,None,None,1,None,None,,,,,,,,,,,,,,,,,,,,,,,,,,,,,,,,,,,,,,,,,,,,,,,,,,,,,,,,,,,,,EstebanL,001,d,2019_Oct_10_1449,Experimento,3.1.5,60.371407556033546,
8,14,14,999,0.5,0:10,3,Cyan,None,0,0,1,20:50,./completed_changuitos/montage_cbtsf_135.89_115.99.jpg,left,0,0,0,0,,,,,0,10,10,10,,,,,,,,,0,0,0,0,0,16,16,16,,,,,,,,,,,,,,,,,,None,None,None,1,None,None,,,,,,,,,,,,,,,,,,,,,,,,,,,,,,,,,,,,,,,,,,,,,,,,,,,,,,,,,,,,,EstebanL,001,d,2019_Oct_10_1449,Experimento,3.1.5,60.371407556033546,
8,14,14,999,0.5,0:10,3,Yellow,['space'],0,0,1,20:50,./completed_changuitos/montage_cbtsf_135.89_115.99.jpg,left,0,0,0,0,,,,,0,10,10,10,,,,,,,,,0,0,0,0,0,17,17,17,,,,,,,,,,,,,,,,,,None,None,None,0,None,None,,,,,,,,,,,,,,,,,,,,,,,,,,,,,,,,,,,,,,,,,,,,,,,,,,,,,,,,,,,,,EstebanL,001,d,2019_Oct_10_1449,Experimento,3.1.5,60.371407556033546,
8,14,14,999,0.5,0:10,3,Magenta,None,0,0,1,20:50,./completed_changuitos/montage_cbtsf_135.89_115.99.jpg,left,0,0,0,0,,,,,0,10,10,10,,,,,,,,,0,0,0,0,0,18,18,18,,,,,,,,,,,,,,,,,,None,None,None,1,None,None,,,,,,,,,,,,,,,,,,,,,,,,,,,,,,,,,,,,,,,,,,,,,,,,,,,,,,,,,,,,,EstebanL,001,d,2019_Oct_10_1449,Experimento,3.1.5,60.371407556033546,
8,14,14,999,0.5,0:10,3,Red,None,0,0,1,20:50,./completed_changuitos/montage_cbtsf_135.89_115.99.jpg,left,0,0,0,0,,,,,0,10,10,10,,,,,,,,,0,0,0,0,0,19,19,19,,,,,,,,,,,,,,,,,,None,None,None,1,None,None,,,,,,,,,,,,,,,,,,,,,,,,,,,,,,,,,,,,,,,,,,,,,,,,,,,,,,,,,,,,,EstebanL,001,d,2019_Oct_10_1449,Experimento,3.1.5,60.371407556033546,
8,14,14,999,0.5,0:10,3,Magenta,['space'],0,0,1,20:50,./completed_changuitos/montage_cbtsf_135.89_115.99.jpg,left,0,0,0,0,,,,,0,10,10,10,,,,,,,,,0,0,0,0,0,20,20,20,,,,,,,,,,,,,,,,,,None,None,None,0,None,None,,,,,,,,,,,,,,,,,,,,,,,,,,,,,,,,,,,,,,,,,,,,,,,,,,,,,,,,,,,,,EstebanL,001,d,2019_Oct_10_1449,Experimento,3.1.5,60.371407556033546,
8,14,14,999,0.5,0:10,3,Red,['space'],0,0,1,20:50,./completed_changuitos/montage_cbtsf_135.89_115.99.jpg,left,0,0,0,0,,,,,0,10,10,10,,,,,,,,,0,0,0,0,0,21,21,21,,,,,,,,,,,,,,,,,,None,None,None,0,None,None,,,,,,,,,,,,,,,,,,,,,,,,,,,,,,,,,,,,,,,,,,,,,,,,,,,,,,,,,,,,,EstebanL,001,d,2019_Oct_10_1449,Experimento,3.1.5,60.371407556033546,
8,14,14,999,0.5,0:10,3,Yellow,None,0,0,1,20:50,./completed_changuitos/montage_cbtsf_135.89_115.99.jpg,left,0,0,0,0,,,,,0,10,10,10,,,,,,,,,0,0,0,0,0,22,22,22,,,,,,,,,,,,,,,,,,None,None,None,1,None,None,,,,,,,,,,,,,,,,,,,,,,,,,,,,,,,,,,,,,,,,,,,,,,,,,,,,,,,,,,,,,EstebanL,001,d,2019_Oct_10_1449,Experimento,3.1.5,60.371407556033546,
8,14,14,999,0.5,0:10,3,Cyan,None,0,0,1,20:50,./completed_changuitos/montage_cbtsf_135.89_115.99.jpg,left,0,0,0,0,,,,,0,10,10,10,,,,,,,,,0,0,0,0,0,23,23,23,,,,,,,,,,,,,,,,,,None,None,None,1,None,None,,,,,,,,,,,,,,,,,,,,,,,,,,,,,,,,,,,,,,,,,,,,,,,,,,,,,,,,,,,,,EstebanL,001,d,2019_Oct_10_1449,Experimento,3.1.5,60.371407556033546,
8,14,14,999,0.5,0:10,3,Green,None,0,0,1,20:50,./completed_changuitos/montage_cbtsf_135.89_115.99.jpg,left,0,0,0,0,,,,,0,10,10,10,,,,,,,,,0,0,0,0,0,24,24,24,,,,,,,,,,,,,,,,,,None,None,None,1,None,None,,,,,,,,,,,,,,,,,,,,,,,,,,,,,,,,,,,,,,,,,,,,,,,,,,,,,,,,,,,,,EstebanL,001,d,2019_Oct_10_1449,Experimento,3.1.5,60.371407556033546,
8,14,14,999,0.5,0:10,3,White,None,0,0,1,20:50,./completed_changuitos/montage_cbtsf_135.89_115.99.jpg,left,0,0,0,0,,,,,0,10,10,10,,,,,,,,,0,0,0,0,0,25,25,25,,,,,,,,,,,,,,,,,,None,None,None,1,None,None,,,,,,,,,,,,,,,,,,,,,,,,,,,,,,,,,,,,,,,,,,,,,,,,,,,,,,,,,,,,,EstebanL,001,d,2019_Oct_10_1449,Experimento,3.1.5,60.371407556033546,
8,14,14,999,0.5,0:10,3,Green,['space'],0,0,1,20:50,./completed_changuitos/montage_cbtsf_135.89_115.99.jpg,left,0,0,0,0,,,,,0,10,10,10,,,,,,,,,0,0,0,0,0,26,26,26,,,,,,,,,,,,,,,,,,None,None,None,0,None,None,,,,,,,,,,,,,,,,,,,,,,,,,,,,,,,,,,,,,,,,,,,,,,,,,,,,,,,,,,,,,EstebanL,001,d,2019_Oct_10_1449,Experimento,3.1.5,60.371407556033546,
8,14,14,999,0.5,0:10,3,Red,None,0,0,1,20:50,./completed_changuitos/montage_cbtsf_135.89_115.99.jpg,left,0,0,0,0,,,,,0,10,10,10,,,,,,,,,0,0,0,0,0,27,27,27,,,,,,,,,,,,,,,,,,None,None,None,1,None,None,,,,,,,,,,,,,,,,,,,,,,,,,,,,,,,,,,,,,,,,,,,,,,,,,,,,,,,,,,,,,EstebanL,001,d,2019_Oct_10_1449,Experimento,3.1.5,60.371407556033546,
8,14,14,999,0.5,0:10,3,Blue,None,0,0,1,20:50,./completed_changuitos/montage_cbtsf_135.89_115.99.jpg,left,0,0,0,0,,,,,0,10,10,10,,,,,,,,,0,0,0,0,0,28,28,28,,,,,,,,,,,,,,,,,,None,None,None,1,None,None,,,,,,,,,,,,,,,,,,,,,,,,,,,,,,,,,,,,,,,,,,,,,,,,,,,,,,,,,,,,,EstebanL,001,d,2019_Oct_10_1449,Experimento,3.1.5,60.371407556033546,
8,14,14,999,0.5,0:10,3,Green,None,0,0,1,20:50,./completed_changuitos/montage_cbtsf_135.89_115.99.jpg,left,0,0,0,0,,,,,0,10,10,10,,,,,,,,,0,0,0,0,0,29,29,29,,,,,,,,,,,,,,,,,,None,None,None,1,None,None,,,,,,,,,,,,,,,,,,,,,,,,,,,,,,,,,,,,,,,,,,,,,,,,,,,,,,,,,,,,,EstebanL,001,d,2019_Oct_10_1449,Experimento,3.1.5,60.371407556033546,
8,14,14,999,0.5,0:10,3,,,0,0,1,20:50,./completed_changuitos/montage_cbtsf_135.89_115.99.jpg,left,0,0,0,0,,,,,0,10,10,10,,,,,,,,,0,0,0,0,,,,,,,,,,,,,,,,,,,,,,,,,,,,,458.03011885700107,None,left,1,0.9730340509995585,458.03011885700107,None,458.03011885700107,None,,,,,,,,,,,,,,,,,,,,,,,,,,,,,,,,,,,,,,,,,,,,,,,,,,,EstebanL,001,d,2019_Oct_10_1449,Experimento,3.1.5,60.371407556033546,
8,14,14,999,0.5,0:10,3,,,0,0,1,20:50,,,0,0,0,0,,,,,0,10,10,10,,,,,,,,,,,,,,,,,,,,,,,,,,,,,,,,,,,,,,,,,,,,,,,,,,,,,,,,,,,,,,,,,,,,,,,,,,,,,,,,,,,,,,,,,,,,,,,,,,,,EstebanL,001,d,2019_Oct_10_1449,Experimento,3.1.5,60.371407556033546,
8,14,14,999,0.5,0:10,3,Red,None,0,0,1,28:50,./completed_changuitos/montage_noqou_90.95_80.25.jpg,left,0,0,0,0,,,,,0,11,11,11,,,,,,,,,0,0,0,0,0,0,0,0,,,,,,,,,,,,,,459.215063566,461.248534477003,461.248534477003,None,469.2849844739976,469.76775165899744,None,1,469.2849844739976,None,,,,,,,,,,,,,,,,,,,,,,,,,,,,,,,,,,,,,,,,,,,,,,,,,,,,,,,,,,,,,EstebanL,001,d,2019_Oct_10_1449,Experimento,3.1.5,60.371407556033546,
8,14,14,999,0.5,0:10,3,Magenta,['space'],0,0,1,28:50,./completed_changuitos/montage_noqou_90.95_80.25.jpg,left,0,0,0,0,,,,,0,11,11,11,,,,,,,,,0,0,0,0,0,1,1,1,,,,,,,,,,,,,,,,,,471.28835428399907,471.76916078900103,None,0,471.28835428399907,None,,,,,,,,,,,,,,,,,,,,,,,,,,,,,,,,,,,,,,,,,,,,,,,,,,,,,,,,,,,,,EstebanL,001,d,2019_Oct_10_1449,Experimento,3.1.5,60.371407556033546,
8,14,14,999,0.5,0:10,3,Green,None,0,0,1,28:50,./completed_changuitos/montage_noqou_90.95_80.25.jpg,left,0,0,0,0,,,,,0,11,11,11,,,,,,,,,0,0,0,0,0,2,2,2,,,,,,,,,,,,,,,,,,473.28868824899837,473.77000989200315,None,1,473.28868824899837,None,,,,,,,,,,,,,,,,,,,,,,,,,,,,,,,,,,,,,,,,,,,,,,,,,,,,,,,,,,,,,EstebanL,001,d,2019_Oct_10_1449,Experimento,3.1.5,60.371407556033546,
8,14,14,999,0.5,0:10,3,Yellow,['space'],0,0,1,28:50,./completed_changuitos/montage_noqou_90.95_80.25.jpg,left,0,0,0,0,,,,,0,11,11,11,,,,,,,,,0,0,0,0,0,3,3,3,,,,,,,,,,,,,,,,,,475.2894868509975,475.77058970899816,None,0,475.2894868509975,None,,,,,,,,,,,,,,,,,,,,,,,,,,,,,,,,,,,,,,,,,,,,,,,,,,,,,,,,,,,,,EstebanL,001,d,2019_Oct_10_1449,Experimento,3.1.5,60.371407556033546,
8,14,14,999,0.5,0:10,3,Blue,None,0,0,1,28:50,./completed_changuitos/montage_noqou_90.95_80.25.jpg,left,0,0,0,0,,,,,0,11,11,11,,,,,,,,,0,0,0,0,0,4,4,4,,,,,,,,,,,,,,,,,,477.2904307350036,477.77187345900165,None,1,477.2904307350036,None,,,,,,,,,,,,,,,,,,,,,,,,,,,,,,,,,,,,,,,,,,,,,,,,,,,,,,,,,,,,,EstebanL,001,d,2019_Oct_10_1449,Experimento,3.1.5,60.371407556033546,
8,14,14,999,0.5,0:10,3,Cyan,None,0,0,1,28:50,./completed_changuitos/montage_noqou_90.95_80.25.jpg,left,0,0,0,0,,,,,0,11,11,11,,,,,,,,,0,0,0,0,0,5,5,5,,,,,,,,,,,,,,,,,,479.29023519500333,479.77281838499766,None,1,479.29023519500333,None,,,,,,,,,,,,,,,,,,,,,,,,,,,,,,,,,,,,,,,,,,,,,,,,,,,,,,,,,,,,,EstebanL,001,d,2019_Oct_10_1449,Experimento,3.1.5,60.371407556033546,
8,14,14,999,0.5,0:10,3,Blue,['space'],0,0,1,28:50,./completed_changuitos/montage_noqou_90.95_80.25.jpg,left,0,0,0,0,,,,,0,11,11,11,,,,,,,,,0,0,0,0,0,6,6,6,,,,,,,,,,,,,,,,,,481.2923409610012,481.7734549520028,"['return', 'return', 'return', 'return', 'return']",0,481.2923409610012,None,"[0.2919595359999221, 0.48740120999718783, 0.704354143999808, 0.9043343579978682, 1.0873961769975722]",,,,,,,,,,,,,,,,,,,,,,,,,,,,,,,,,,,,,,,,,,,,,,,,,,,,,,,,,,,,EstebanL,001,d,2019_Oct_10_1449,Experimento,3.1.5,60.371407556033546,
8,14,14,999,0.5,0:10,3,Yellow,None,0,0,1,28:50,./completed_changuitos/montage_noqou_90.95_80.25.jpg,left,0,0,0,0,,,,,0,11,11,11,,,,,,,,,0,0,0,0,0,7,7,7,,,,,,,,,,,,,,,,,,None,None,None,1,None,None,,,,,,,,,,,,,,,,,,,,,,,,,,,,,,,,,,,,,,,,,,,,,,,,,,,,,,,,,,,,,EstebanL,001,d,2019_Oct_10_1449,Experimento,3.1.5,60.371407556033546,
8,14,14,999,0.5,0:10,3,Cyan,None,0,0,1,28:50,./completed_changuitos/montage_noqou_90.95_80.25.jpg,left,0,0,0,0,,,,,0,11,11,11,,,,,,,,,0,0,0,0,0,8,8,8,,,,,,,,,,,,,,,,,,None,None,None,1,None,None,,,,,,,,,,,,,,,,,,,,,,,,,,,,,,,,,,,,,,,,,,,,,,,,,,,,,,,,,,,,,EstebanL,001,d,2019_Oct_10_1449,Experimento,3.1.5,60.371407556033546,
8,14,14,999,0.5,0:10,3,Yellow,['space'],0,0,1,28:50,./completed_changuitos/montage_noqou_90.95_80.25.jpg,left,0,0,0,0,,,,,0,11,11,11,,,,,,,,,0,0,0,0,0,9,9,9,,,,,,,,,,,,,,,,,,None,None,None,0,None,None,,,,,,,,,,,,,,,,,,,,,,,,,,,,,,,,,,,,,,,,,,,,,,,,,,,,,,,,,,,,,EstebanL,001,d,2019_Oct_10_1449,Experimento,3.1.5,60.371407556033546,
8,14,14,999,0.5,0:10,3,Magenta,None,0,0,1,28:50,./completed_changuitos/montage_noqou_90.95_80.25.jpg,left,0,0,0,0,,,,,0,11,11,11,,,,,,,,,0,0,0,0,0,10,10,10,,,,,,,,,,,,,,,,,,None,None,None,1,None,None,,,,,,,,,,,,,,,,,,,,,,,,,,,,,,,,,,,,,,,,,,,,,,,,,,,,,,,,,,,,,EstebanL,001,d,2019_Oct_10_1449,Experimento,3.1.5,60.371407556033546,
8,14,14,999,0.5,0:10,3,Red,None,0,0,1,28:50,./completed_changuitos/montage_noqou_90.95_80.25.jpg,left,0,0,0,0,,,,,0,11,11,11,,,,,,,,,0,0,0,0,0,11,11,11,,,,,,,,,,,,,,,,,,None,None,None,1,None,None,,,,,,,,,,,,,,,,,,,,,,,,,,,,,,,,,,,,,,,,,,,,,,,,,,,,,,,,,,,,,EstebanL,001,d,2019_Oct_10_1449,Experimento,3.1.5,60.371407556033546,
8,14,14,999,0.5,0:10,3,Magenta,['space'],0,0,1,28:50,./completed_changuitos/montage_noqou_90.95_80.25.jpg,left,0,0,0,0,,,,,0,11,11,11,,,,,,,,,0,0,0,0,0,12,12,12,,,,,,,,,,,,,,,,,,None,None,None,0,None,None,,,,,,,,,,,,,,,,,,,,,,,,,,,,,,,,,,,,,,,,,,,,,,,,,,,,,,,,,,,,,EstebanL,001,d,2019_Oct_10_1449,Experimento,3.1.5,60.371407556033546,
8,14,14,999,0.5,0:10,3,Red,['space'],0,0,1,28:50,./completed_changuitos/montage_noqou_90.95_80.25.jpg,left,0,0,0,0,,,,,0,11,11,11,,,,,,,,,0,0,0,0,0,13,13,13,,,,,,,,,,,,,,,,,,None,None,None,0,None,None,,,,,,,,,,,,,,,,,,,,,,,,,,,,,,,,,,,,,,,,,,,,,,,,,,,,,,,,,,,,,EstebanL,001,d,2019_Oct_10_1449,Experimento,3.1.5,60.371407556033546,
8,14,14,999,0.5,0:10,3,Yellow,None,0,0,1,28:50,./completed_changuitos/montage_noqou_90.95_80.25.jpg,left,0,0,0,0,,,,,0,11,11,11,,,,,,,,,0,0,0,0,0,14,14,14,,,,,,,,,,,,,,,,,,None,None,None,1,None,None,,,,,,,,,,,,,,,,,,,,,,,,,,,,,,,,,,,,,,,,,,,,,,,,,,,,,,,,,,,,,EstebanL,001,d,2019_Oct_10_1449,Experimento,3.1.5,60.371407556033546,
8,14,14,999,0.5,0:10,3,Cyan,None,0,0,1,28:50,./completed_changuitos/montage_noqou_90.95_80.25.jpg,left,0,0,0,0,,,,,0,11,11,11,,,,,,,,,0,0,0,0,0,15,15,15,,,,,,,,,,,,,,,,,,None,None,None,1,None,None,,,,,,,,,,,,,,,,,,,,,,,,,,,,,,,,,,,,,,,,,,,,,,,,,,,,,,,,,,,,,EstebanL,001,d,2019_Oct_10_1449,Experimento,3.1.5,60.371407556033546,
8,14,14,999,0.5,0:10,3,Green,None,0,0,1,28:50,./completed_changuitos/montage_noqou_90.95_80.25.jpg,left,0,0,0,0,,,,,0,11,11,11,,,,,,,,,0,0,0,0,0,16,16,16,,,,,,,,,,,,,,,,,,None,None,None,1,None,None,,,,,,,,,,,,,,,,,,,,,,,,,,,,,,,,,,,,,,,,,,,,,,,,,,,,,,,,,,,,,EstebanL,001,d,2019_Oct_10_1449,Experimento,3.1.5,60.371407556033546,
8,14,14,999,0.5,0:10,3,White,None,0,0,1,28:50,./completed_changuitos/montage_noqou_90.95_80.25.jpg,left,0,0,0,0,,,,,0,11,11,11,,,,,,,,,0,0,0,0,0,17,17,17,,,,,,,,,,,,,,,,,,None,None,None,1,None,None,,,,,,,,,,,,,,,,,,,,,,,,,,,,,,,,,,,,,,,,,,,,,,,,,,,,,,,,,,,,,EstebanL,001,d,2019_Oct_10_1449,Experimento,3.1.5,60.371407556033546,
8,14,14,999,0.5,0:10,3,Green,['space'],0,0,1,28:50,./completed_changuitos/montage_noqou_90.95_80.25.jpg,left,0,0,0,0,,,,,0,11,11,11,,,,,,,,,0,0,0,0,0,18,18,18,,,,,,,,,,,,,,,,,,None,None,None,0,None,None,,,,,,,,,,,,,,,,,,,,,,,,,,,,,,,,,,,,,,,,,,,,,,,,,,,,,,,,,,,,,EstebanL,001,d,2019_Oct_10_1449,Experimento,3.1.5,60.371407556033546,
8,14,14,999,0.5,0:10,3,Red,None,0,0,1,28:50,./completed_changuitos/montage_noqou_90.95_80.25.jpg,left,0,0,0,0,,,,,0,11,11,11,,,,,,,,,0,0,0,0,0,19,19,19,,,,,,,,,,,,,,,,,,None,None,None,1,None,None,,,,,,,,,,,,,,,,,,,,,,,,,,,,,,,,,,,,,,,,,,,,,,,,,,,,,,,,,,,,,EstebanL,001,d,2019_Oct_10_1449,Experimento,3.1.5,60.371407556033546,
8,14,14,999,0.5,0:10,3,Blue,None,0,0,1,28:50,./completed_changuitos/montage_noqou_90.95_80.25.jpg,left,0,0,0,0,,,,,0,11,11,11,,,,,,,,,0,0,0,0,0,20,20,20,,,,,,,,,,,,,,,,,,None,None,None,1,None,None,,,,,,,,,,,,,,,,,,,,,,,,,,,,,,,,,,,,,,,,,,,,,,,,,,,,,,,,,,,,,EstebanL,001,d,2019_Oct_10_1449,Experimento,3.1.5,60.371407556033546,
8,14,14,999,0.5,0:10,3,Green,None,0,0,1,28:50,./completed_changuitos/montage_noqou_90.95_80.25.jpg,left,0,0,0,0,,,,,0,11,11,11,,,,,,,,,0,0,0,0,0,21,21,21,,,,,,,,,,,,,,,,,,None,None,None,1,None,None,,,,,,,,,,,,,,,,,,,,,,,,,,,,,,,,,,,,,,,,,,,,,,,,,,,,,,,,,,,,,EstebanL,001,d,2019_Oct_10_1449,Experimento,3.1.5,60.371407556033546,
8,14,14,999,0.5,0:10,3,,,0,0,1,28:50,./completed_changuitos/montage_noqou_90.95_80.25.jpg,left,0,0,0,0,,,,,0,11,11,11,,,,,,,,,0,0,0,0,,,,,,,,,,,,,,,,,,,,,,,,,,,,,483.62602701799915,None,left,1,0.6626100380017306,483.62602701799915,None,483.62602701799915,None,,,,,,,,,,,,,,,,,,,,,,,,,,,,,,,,,,,,,,,,,,,,,,,,,,,EstebanL,001,d,2019_Oct_10_1449,Experimento,3.1.5,60.371407556033546,
8,14,14,999,0.5,0:10,3,,,0,0,1,28:50,,,0,0,0,0,,,,,0,11,11,11,,,,,,,,,,,,,,,,,,,,,,,,,,,,,,,,,,,,,,,,,,,,,,,,,,,,,,,,,,,,,,,,,,,,,,,,,,,,,,,,,,,,,,,,,,,,,,,,,,,,EstebanL,001,d,2019_Oct_10_1449,Experimento,3.1.5,60.371407556033546,
8,14,14,999,0.5,0:10,3,,,1,0,0,30:50,./completed_changuitos/montage_majoi_114.49_102.65.jpg,left,0,0,0,0,,,,,0,12,12,12,0,0,0,0,,,,,,,,,,,,,,,,,,,,,,,,,,,,,,,,,,,,,,,,,,,,,,,,,,,,,,,,,,,,,484.8419204009988,485.94670621299883,485.94670621299883,493.945622954001,right,0,0.8115565549960593,493.945622954001,None,493.945622954001,None,493.945622954001,None,,,,,,,,,,,,,,,,,,,,,,,EstebanL,001,d,2019_Oct_10_1449,Experimento,3.1.5,60.371407556033546,
8,14,14,999,0.5,0:10,3,,,1,0,0,30:50,,,0,0,0,0,,,,,0,12,12,12,,,,,,,,,,,,,,,,,,,,,,,,,,,,,,,,,,,,,,,,,,,,,,,,,,,,,,,,,,,,,,,,,,,,,,,,,,,,,,,,,,,,,,,,,,,,,,,,,,,,EstebanL,001,d,2019_Oct_10_1449,Experimento,3.1.5,60.371407556033546,
8,14,14,999,0.5,0:10,3,,,1,0,0,32:50,./completed_changuitos/montage_htgif_109.69_125.85.jpg,right,0,0,0,0,,,,,0,13,13,13,0,0,0,0,,,,,,,,,,,,,,,,,,,,,,,,,,,,,,,,,,,,,,,,,,,,,,,,,,,,,,,,,,,,,495.3632443230017,496.28261391400156,496.28261391400156,504.2839819630026,right,1,0.8362713769965922,504.2839819630026,None,504.2839819630026,None,504.2839819630026,None,,,,,,,,,,,,,,,,,,,,,,,EstebanL,001,d,2019_Oct_10_1449,Experimento,3.1.5,60.371407556033546,
8,14,14,999,0.5,0:10,3,,,1,0,0,32:50,,,0,0,0,0,,,,,0,13,13,13,,,,,,,,,,,,,,,,,,,,,,,,,,,,,,,,,,,,,,,,,,,,,,,,,,,,,,,,,,,,,,,,,,,,,,,,,,,,,,,,,,,,,,,,,,,,,,,,,,,,EstebanL,001,d,2019_Oct_10_1449,Experimento,3.1.5,60.371407556033546,
8,14,14,999,0.5,0:10,3,,,1,0,0,34:50,./completed_changuitos/montage_gemxx_90.85_79.0.jpg,left,0,0,0,0,,,,,0,14,14,14,0,0,0,0,,,,,,,,,,,,,,,,,,,,,,,,,,,,,,,,,,,,,,,,,,,,,,,,,,,,,,,,,,,,,505.7351696370024,506.4031221330006,506.4031221330006,514.4052307200036,left,1,0.41148927099857247,514.4052307200036,None,514.4052307200036,None,514.4052307200036,None,,,,,,,,,,,,,,,,,,,,,,,EstebanL,001,d,2019_Oct_10_1449,Experimento,3.1.5,60.371407556033546,
8,14,14,999,0.5,0:10,3,,,1,0,0,34:50,,,0,0,0,0,,,,,0,14,14,14,,,,,,,,,,,,,,,,,,,,,,,,,,,,,,,,,,,,,,,,,,,,,,,,,,,,,,,,,,,,,,,,,,,,,,,,,,,,,,,,,,,,,,,,,,,,,,,,,,,,EstebanL,001,d,2019_Oct_10_1449,Experimento,3.1.5,60.371407556033546,
8,14,14,999,0.5,0:10,3,,,1,0,0,30:50,./completed_changuitos/montage_bpamj_27.39_32.1.jpg,right,0,0,0,0,,,,,0,15,15,15,0,0,0,0,,,,,,,,,,,,,,,,,,,,,,,,,,,,,,,,,,,,,,,,,,,,,,,,,,,,,,,,,,,,,515.4227512119978,516.0914184889989,516.0914184889989,524.0933559900004,left,0,0.7032888419998926,524.0933559900004,None,524.0933559900004,None,524.0933559900004,None,,,,,,,,,,,,,,,,,,,,,,,EstebanL,001,d,2019_Oct_10_1449,Experimento,3.1.5,60.371407556033546,
8,14,14,999,0.5,0:10,3,,,1,0,0,30:50,,,0,0,0,0,,,,,0,15,15,15,,,,,,,,,,,,,,,,,,,,,,,,,,,,,,,,,,,,,,,,,,,,,,,,,,,,,,,,,,,,,,,,,,,,,,,,,,,,,,,,,,,,,,,,,,,,,,,,,,,,EstebanL,001,d,2019_Oct_10_1449,Experimento,3.1.5,60.371407556033546,
8,14,14,999,0.5,0:10,3,,,1,0,0,32:50,./completed_changuitos/montage_fxsgl_82.39_95.25.jpg,right,0,0,0,0,,,,,0,16,16,16,0,0,0,0,,,,,,,,,,,,,,,,,,,,,,,,,,,,,,,,,,,,,,,,,,,,,,,,,,,,,,,,,,,,,525.4108882790024,526.0959236810013,526.0959236810013,534.0983698089985,right,1,0.7235980139957974,534.0983698089985,None,534.0983698089985,None,534.0983698089985,None,,,,,,,,,,,,,,,,,,,,,,,EstebanL,001,d,2019_Oct_10_1449,Experimento,3.1.5,60.371407556033546,
8,14,14,999,0.5,0:10,3,,,1,0,0,32:50,,,0,0,0,0,,,,,0,16,16,16,,,,,,,,,,,,,,,,,,,,,,,,,,,,,,,,,,,,,,,,,,,,,,,,,,,,,,,,,,,,,,,,,,,,,,,,,,,,,,,,,,,,,,,,,,,,,,,,,,,,EstebanL,001,d,2019_Oct_10_1449,Experimento,3.1.5,60.371407556033546,
8,14,14,999,0.5,0:10,3,,,1,0,0,34:50,./completed_changuitos/montage_kbnqt_425.85_370.25.jpg,left,0,0,0,0,,,,,0,17,17,17,0,0,0,0,,,,,,,,,,,,,,,,,,,,,,,,,,,,,,,,,,,,,,,,,,,,,,,,,,,,,,,,,,,,,535.4322097569966,536.434533808002,536.434533808002,544.4362667250025,right,0,1.6353556319954805,544.4362667250025,None,544.4362667250025,None,544.4362667250025,None,,,,,,,,,,,,,,,,,,,,,,,EstebanL,001,d,2019_Oct_10_1449,Experimento,3.1.5,60.371407556033546,
8,14,14,999,0.5,0:10,3,,,1,0,0,34:50,,,0,0,0,0,,,,,0,17,17,17,,,,,,,,,,,,,,,,,,,,,,,,,,,,,,,,,,,,,,,,,,,,,,,,,,,,,,,,,,,,,,,,,,,,,,,,,,,,,,,,,,,,,,,,,,,,,,,,,,,,EstebanL,001,d,2019_Oct_10_1449,Experimento,3.1.5,60.371407556033546,
8,14,14,999,0.5,0:10,3,,,,,,,,,0,0,0,0,,,,,,,,,,,,,,,,,,,,,,,,,,,,,,,,,,,,,,,,,,,,,,,,,,,,,,,,,,,,,,,,,,,,,,,,,,,,,,,,,,,,,,546.1745115829981,547.3883708590001,3,6.35179891900043,547.3883708590001,None,547.3883708590001,None,c,9.833236496000609,553.7922313140007,None,553.7922313140007,None,553.7922313140007,None,563.6635119470011,None,7,6.999715304002166,563.6635119470011,None,EstebanL,001,d,2019_Oct_10_1449,Experimento,3.1.5,60.371407556033546,
