changuito_time_to_show,time_to_think,time_to_play,total_items,nback_stimulus_time,nback_training,time_to_show_tiny_stimulus,colourtest,corresp,inmediato,consciente,inconsciente,nback_slice,imagen,correcta,trials_5.thisRepN,trials_5.thisTrialN,trials_5.thisN,trials_5.thisIndex,nback_train.thisRepN,nback_train.thisTrialN,nback_train.thisN,nback_train.thisIndex,treatment_order.thisRepN,treatment_order.thisTrialN,treatment_order.thisN,treatment_order.thisIndex,trials.thisRepN,trials.thisTrialN,trials.thisN,trials.thisIndex,trials_2.thisRepN,trials_2.thisTrialN,trials_2.thisN,trials_2.thisIndex,trials_3.thisRepN,trials_3.thisTrialN,trials_3.thisN,trials_3.thisIndex,trials_4.thisRepN,trials_4.thisTrialN,trials_4.thisN,trials_4.thisIndex,Presentacion.started,Presentacion.stopped,Juego.started,Juego.stopped,image_6.started,image_6.stopped,polygon.started,polygon.stopped,nback_train_resp.keys,nback_train_resp.corr,nback_train_resp.started,nback_train_resp.stopped,nback_train_resp.rt,holi.started,holi.stopped,image_3.started,image_3.stopped,polygon_2.started,polygon_2.stopped,nback_train_resp_2.keys,nback_train_resp_2.corr,nback_train_resp_2.started,nback_train_resp_2.stopped,nback_train_resp_2.rt,text_2.started,text_2.stopped,key_resp.keys,key_resp.corr,key_resp.rt,key_resp.started,key_resp.stopped,image_5.started,image_5.stopped,hola.started,hola.stopped,image_2.started,image_2.stopped,tiempo_para_pensar.started,tiempo_para_pensar.stopped,respuesta_consciente.keys,respuesta_consciente.corr,respuesta_consciente.rt,respuesta_consciente.started,respuesta_consciente.stopped,cual_es_la_mas_barata.started,cual_es_la_mas_barata.stopped,image_4.started,image_4.stopped,text.started,text.stopped,image.started,image.stopped,respuesta_inmediato.keys,respuesta_inmediato.corr,respuesta_inmediato.rt,respuesta_inmediato.started,respuesta_inmediato.stopped,pregunta_cual_es_el_mas_barato.started,pregunta_cual_es_el_mas_barato.stopped,short_stim1.started,short_stim1.stopped,gracias.started,gracias.stopped,respuesta1.keys,respuesta1.rt,respuesta1.started,respuesta1.stopped,pregunta1.started,pregunta1.stopped,respuesta3bis_3.keys,respuesta3bis_3.rt,respuesta3bis_3.started,respuesta3bis_3.stopped,pregunta3_3.started,pregunta3_3.stopped,productoCon3RANGOSabc_3.started,productoCon3RANGOSabc_3.stopped,text_3.started,text_3.stopped,key_resp_2.keys,key_resp_2.rt,key_resp_2.started,key_resp_2.stopped,participant,session,group,date,expName,psychopyVersion,frameRate,
8,14,14,999,0.5,0:10,3,White,None,,,,,,,0,0,0,0,0,0,0,0,,,,,,,,,,,,,,,,,,,,,59.235207966004964,None,81.89236861700192,None,81.89236861700192,None,99.27235397699405,99.78649338899413,None,1,99.27235397699405,None,,,,,,,,,,,,,,,,,,,,,,,,,,,,,,,,,,,,,,,,,,,,,,,,,,,,,,,,,,,,,,,,,,,,,,,,ezequielV,001,b,2019_Oct_10_1402,Experimento,3.2.3,60.13299578564849,
8,14,14,999,0.5,0:10,3,Red,None,,,,,,,0,0,0,0,0,1,1,1,,,,,,,,,,,,,,,,,,,,,,,,,,,101.28589957299118,101.78587203500501,None,1,101.28589957299118,101.28589957299118,,,,,,,,,,,,,,,,,,,,,,,,,,,,,,,,,,,,,,,,,,,,,,,,,,,,,,,,,,,,,,,,,,,,,,,,ezequielV,001,b,2019_Oct_10_1402,Experimento,3.2.3,60.13299578564849,
8,14,14,999,0.5,0:10,3,Magenta,None,,,,,,,0,0,0,0,0,2,2,2,,,,,,,,,,,,,,,,,,,,,,,,,,,103.28520769999886,103.78509518200008,None,1,103.28520769999886,103.28520769999886,,,,,,,,,,,,,,,,,,,,,,,,,,,,,,,,,,,,,,,,,,,,,,,,,,,,,,,,,,,,,,,,,,,,,,,,ezequielV,001,b,2019_Oct_10_1402,Experimento,3.2.3,60.13299578564849,
8,14,14,999,0.5,0:10,3,Cyan,None,,,,,,,0,0,0,0,0,3,3,3,,,,,,,,,,,,,,,,,,,,,,,,,,,105.28457991499454,105.78442216099938,None,1,105.28457991499454,105.28457991499454,,,,,,,,,,,,,,,,,,,,,,,,,,,,,,,,,,,,,,,,,,,,,,,,,,,,,,,,,,,,,,,,,,,,,,,,ezequielV,001,b,2019_Oct_10_1402,Experimento,3.2.3,60.13299578564849,
8,14,14,999,0.5,0:10,3,Magenta,['space'],,,,,,,0,0,0,0,0,4,4,4,,,,,,,,,,,,,,,,,,,,,,,,,,,107.28379167799721,107.78371454699663,['return'],0,107.28379167799721,107.28379167799721,[0.9504035789868794],,,,,,,,,,,,,,,,,,,,,,,,,,,,,,,,,,,,,,,,,,,,,,,,,,,,,,,,,,,,,,,,,,,,,,,ezequielV,001,b,2019_Oct_10_1402,Experimento,3.2.3,60.13299578564849,
8,14,14,999,0.5,0:10,3,Green,None,,,,,,,0,0,0,0,0,5,5,5,,,,,,,,,,,,,,,,,,,,,,,,,,,109.28281126799993,109.78307640299317,None,1,109.28281126799993,109.28281126799993,,,,,,,,,,,,,,,,,,,,,,,,,,,,,,,,,,,,,,,,,,,,,,,,,,,,,,,,,,,,,,,,,,,,,,,,ezequielV,001,b,2019_Oct_10_1402,Experimento,3.2.3,60.13299578564849,
8,14,14,999,0.5,0:10,3,White,None,,,,,,,0,0,0,0,0,6,6,6,,,,,,,,,,,,,,,,,,,,,,,,,,,111.28253077900445,111.78231297699676,['return'],0,111.28253077900445,111.28253077900445,[0.3504066440073075],,,,,,,,,,,,,,,,,,,,,,,,,,,,,,,,,,,,,,,,,,,,,,,,,,,,,,,,,,,,,,,,,,,,,,,ezequielV,001,b,2019_Oct_10_1402,Experimento,3.2.3,60.13299578564849,
8,14,14,999,0.5,0:10,3,Green,['space'],,,,,,,0,0,0,0,0,7,7,7,,,,,,,,,,,,,,,,,,,,,,,,,,,113.28166907699779,113.7816695770016,None,0,113.28166907699779,113.28166907699779,,,,,,,,,,,,,,,,,,,,,,,,,,,,,,,,,,,,,,,,,,,,,,,,,,,,,,,,,,,,,,,,,,,,,,,,ezequielV,001,b,2019_Oct_10_1402,Experimento,3.2.3,60.13299578564849,
8,14,14,999,0.5,0:10,3,Blue,None,,,,,,,0,0,0,0,0,8,8,8,,,,,,,,,,,,,,,,,,,,,,,,,,,115.28107494999131,115.7809718609933,None,1,115.28107494999131,115.28107494999131,,,,,,,,,,,,,,,,,,,,,,,,,,,,,,,,,,,,,,,,,,,,,,,,,,,,,,,,,,,,,,,,,,,,,,,,ezequielV,001,b,2019_Oct_10_1402,Experimento,3.2.3,60.13299578564849,
8,14,14,999,0.5,0:10,3,Green,['space'],,,,,,,0,0,0,0,0,9,9,9,,,,,,,,,,,,,,,,,,,,,,,,,,,117.28009351200308,117.78029132599477,['return'],0,117.28009351200308,117.28009351200308,[0.6008253800100647],,,,,,,,,,,,,,,,,,,,,,,,,,,,,,,,,,,,,,,,,,,,,,,,,,,,,,,,,,,,,,,,,,,,,,,ezequielV,001,b,2019_Oct_10_1402,Experimento,3.2.3,60.13299578564849,
8,14,14,999,0.5,0:10,3,Yellow,None,0,0,1,15:50,./completed_changuitos/montage_yyvyr_123.05_106.99.jpg,left,0,0,0,0,,,,,0,0,0,0,,,,,,,,,0,0,0,0,0,0,0,0,,,,,,,,,,,,,,119.3831368329993,128.87654349100194,128.87654349100194,None,136.91589772999578,137.42364237600123,None,1,136.91589772999578,None,,,,,,,,,,,,,,,,,,,,,,,,,,,,,,,,,,,,,,,,,,,,,,,,,,,,,,,,,,,,,ezequielV,001,b,2019_Oct_10_1402,Experimento,3.2.3,60.13299578564849,
8,14,14,999,0.5,0:10,3,White,['space'],0,0,1,15:50,./completed_changuitos/montage_yyvyr_123.05_106.99.jpg,left,0,0,0,0,,,,,0,0,0,0,,,,,,,,,0,0,0,0,0,1,1,1,,,,,,,,,,,,,,,,,,138.92306780299987,139.42248503699375,None,0,138.92306780299987,138.92306780299987,,,,,,,,,,,,,,,,,,,,,,,,,,,,,,,,,,,,,,,,,,,,,,,,,,,,,,,,,,,,,ezequielV,001,b,2019_Oct_10_1402,Experimento,3.2.3,60.13299578564849,
8,14,14,999,0.5,0:10,3,Magenta,None,0,0,1,15:50,./completed_changuitos/montage_yyvyr_123.05_106.99.jpg,left,0,0,0,0,,,,,0,0,0,0,,,,,,,,,0,0,0,0,0,2,2,2,,,,,,,,,,,,,,,,,,140.92234750099306,141.42204702399613,None,1,140.92234750099306,140.92234750099306,,,,,,,,,,,,,,,,,,,,,,,,,,,,,,,,,,,,,,,,,,,,,,,,,,,,,,,,,,,,,ezequielV,001,b,2019_Oct_10_1402,Experimento,3.2.3,60.13299578564849,
8,14,14,999,0.5,0:10,3,Cyan,None,0,0,1,15:50,./completed_changuitos/montage_yyvyr_123.05_106.99.jpg,left,0,0,0,0,,,,,0,0,0,0,,,,,,,,,0,0,0,0,0,3,3,3,,,,,,,,,,,,,,,,,,142.92170500700013,143.42153217000305,None,1,142.92170500700013,142.92170500700013,,,,,,,,,,,,,,,,,,,,,,,,,,,,,,,,,,,,,,,,,,,,,,,,,,,,,,,,,,,,,ezequielV,001,b,2019_Oct_10_1402,Experimento,3.2.3,60.13299578564849,
8,14,14,999,0.5,0:10,3,Blue,None,0,0,1,15:50,./completed_changuitos/montage_yyvyr_123.05_106.99.jpg,left,0,0,0,0,,,,,0,0,0,0,,,,,,,,,0,0,0,0,0,4,4,4,,,,,,,,,,,,,,,,,,144.9209430280025,145.42085259300075,None,1,144.9209430280025,144.9209430280025,,,,,,,,,,,,,,,,,,,,,,,,,,,,,,,,,,,,,,,,,,,,,,,,,,,,,,,,,,,,,ezequielV,001,b,2019_Oct_10_1402,Experimento,3.2.3,60.13299578564849,
8,14,14,999,0.5,0:10,3,Magenta,None,0,0,1,15:50,./completed_changuitos/montage_yyvyr_123.05_106.99.jpg,left,0,0,0,0,,,,,0,0,0,0,,,,,,,,,0,0,0,0,0,5,5,5,,,,,,,,,,,,,,,,,,146.92029761399317,147.4201955860044,['return'],0,146.92029761399317,146.92029761399317,[0.6007227719965158],,,,,,,,,,,,,,,,,,,,,,,,,,,,,,,,,,,,,,,,,,,,,,,,,,,,,,,,,,,,ezequielV,001,b,2019_Oct_10_1402,Experimento,3.2.3,60.13299578564849,
8,14,14,999,0.5,0:10,3,Blue,['space'],0,0,1,15:50,./completed_changuitos/montage_yyvyr_123.05_106.99.jpg,left,0,0,0,0,,,,,0,0,0,0,,,,,,,,,0,0,0,0,0,6,6,6,,,,,,,,,,,,,,,,,,148.91959858400514,149.41953258599096,None,0,148.91959858400514,148.91959858400514,,,,,,,,,,,,,,,,,,,,,,,,,,,,,,,,,,,,,,,,,,,,,,,,,,,,,,,,,,,,,ezequielV,001,b,2019_Oct_10_1402,Experimento,3.2.3,60.13299578564849,
8,14,14,999,0.5,0:10,3,Cyan,None,0,0,1,15:50,./completed_changuitos/montage_yyvyr_123.05_106.99.jpg,left,0,0,0,0,,,,,0,0,0,0,,,,,,,,,0,0,0,0,0,7,7,7,,,,,,,,,,,,,,,,,,150.90230899730085,None,None,1,150.90230899730085,None,,,,,,,,,,,,,,,,,,,,,,,,,,,,,,,,,,,,,,,,,,,,,,,,,,,,,,,,,,,,,ezequielV,001,b,2019_Oct_10_1402,Experimento,3.2.3,60.13299578564849,
8,14,14,999,0.5,0:10,3,Yellow,None,0,0,1,15:50,./completed_changuitos/montage_yyvyr_123.05_106.99.jpg,left,0,0,0,0,,,,,0,0,0,0,,,,,,,,,0,0,0,0,0,8,8,8,,,,,,,,,,,,,,,,,,150.90230899730085,None,None,1,150.90230899730085,None,,,,,,,,,,,,,,,,,,,,,,,,,,,,,,,,,,,,,,,,,,,,,,,,,,,,,,,,,,,,,ezequielV,001,b,2019_Oct_10_1402,Experimento,3.2.3,60.13299578564849,
8,14,14,999,0.5,0:10,3,Cyan,None,0,0,1,15:50,./completed_changuitos/montage_yyvyr_123.05_106.99.jpg,left,0,0,0,0,,,,,0,0,0,0,,,,,,,,,0,0,0,0,0,9,9,9,,,,,,,,,,,,,,,,,,150.90230899730085,None,None,1,150.90230899730085,None,,,,,,,,,,,,,,,,,,,,,,,,,,,,,,,,,,,,,,,,,,,,,,,,,,,,,,,,,,,,,ezequielV,001,b,2019_Oct_10_1402,Experimento,3.2.3,60.13299578564849,
8,14,14,999,0.5,0:10,3,Blue,None,0,0,1,15:50,./completed_changuitos/montage_yyvyr_123.05_106.99.jpg,left,0,0,0,0,,,,,0,0,0,0,,,,,,,,,0,0,0,0,0,10,10,10,,,,,,,,,,,,,,,,,,150.90230899730085,None,None,1,150.90230899730085,None,,,,,,,,,,,,,,,,,,,,,,,,,,,,,,,,,,,,,,,,,,,,,,,,,,,,,,,,,,,,,ezequielV,001,b,2019_Oct_10_1402,Experimento,3.2.3,60.13299578564849,
8,14,14,999,0.5,0:10,3,Cyan,['space'],0,0,1,15:50,./completed_changuitos/montage_yyvyr_123.05_106.99.jpg,left,0,0,0,0,,,,,0,0,0,0,,,,,,,,,0,0,0,0,0,11,11,11,,,,,,,,,,,,,,,,,,150.918974021601,None,None,0,150.918974021601,None,,,,,,,,,,,,,,,,,,,,,,,,,,,,,,,,,,,,,,,,,,,,,,,,,,,,,,,,,,,,,ezequielV,001,b,2019_Oct_10_1402,Experimento,3.2.3,60.13299578564849,
8,14,14,999,0.5,0:10,3,Magenta,None,0,0,1,15:50,./completed_changuitos/montage_yyvyr_123.05_106.99.jpg,left,0,0,0,0,,,,,0,0,0,0,,,,,,,,,0,0,0,0,0,12,12,12,,,,,,,,,,,,,,,,,,150.918974021601,None,None,1,150.918974021601,None,,,,,,,,,,,,,,,,,,,,,,,,,,,,,,,,,,,,,,,,,,,,,,,,,,,,,,,,,,,,,ezequielV,001,b,2019_Oct_10_1402,Experimento,3.2.3,60.13299578564849,
8,14,14,999,0.5,0:10,3,Red,None,0,0,1,15:50,./completed_changuitos/montage_yyvyr_123.05_106.99.jpg,left,0,0,0,0,,,,,0,0,0,0,,,,,,,,,0,0,0,0,0,13,13,13,,,,,,,,,,,,,,,,,,150.918974021601,None,None,1,150.918974021601,None,,,,,,,,,,,,,,,,,,,,,,,,,,,,,,,,,,,,,,,,,,,,,,,,,,,,,,,,,,,,,ezequielV,001,b,2019_Oct_10_1402,Experimento,3.2.3,60.13299578564849,
8,14,14,999,0.5,0:10,3,Magenta,['space'],0,0,1,15:50,./completed_changuitos/montage_yyvyr_123.05_106.99.jpg,left,0,0,0,0,,,,,0,0,0,0,,,,,,,,,0,0,0,0,0,14,14,14,,,,,,,,,,,,,,,,,,150.918974021601,None,None,0,150.918974021601,None,,,,,,,,,,,,,,,,,,,,,,,,,,,,,,,,,,,,,,,,,,,,,,,,,,,,,,,,,,,,,ezequielV,001,b,2019_Oct_10_1402,Experimento,3.2.3,60.13299578564849,
8,14,14,999,0.5,0:10,3,Green,None,0,0,1,15:50,./completed_changuitos/montage_yyvyr_123.05_106.99.jpg,left,0,0,0,0,,,,,0,0,0,0,,,,,,,,,0,0,0,0,0,15,15,15,,,,,,,,,,,,,,,,,,150.918974021601,None,None,1,150.918974021601,None,,,,,,,,,,,,,,,,,,,,,,,,,,,,,,,,,,,,,,,,,,,,,,,,,,,,,,,,,,,,,ezequielV,001,b,2019_Oct_10_1402,Experimento,3.2.3,60.13299578564849,
8,14,14,999,0.5,0:10,3,Yellow,['space'],0,0,1,15:50,./completed_changuitos/montage_yyvyr_123.05_106.99.jpg,left,0,0,0,0,,,,,0,0,0,0,,,,,,,,,0,0,0,0,0,16,16,16,,,,,,,,,,,,,,,,,,150.918974021601,None,None,0,150.918974021601,None,,,,,,,,,,,,,,,,,,,,,,,,,,,,,,,,,,,,,,,,,,,,,,,,,,,,,,,,,,,,,ezequielV,001,b,2019_Oct_10_1402,Experimento,3.2.3,60.13299578564849,
8,14,14,999,0.5,0:10,3,Blue,None,0,0,1,15:50,./completed_changuitos/montage_yyvyr_123.05_106.99.jpg,left,0,0,0,0,,,,,0,0,0,0,,,,,,,,,0,0,0,0,0,17,17,17,,,,,,,,,,,,,,,,,,150.93563904590118,None,None,1,150.93563904590118,None,,,,,,,,,,,,,,,,,,,,,,,,,,,,,,,,,,,,,,,,,,,,,,,,,,,,,,,,,,,,,ezequielV,001,b,2019_Oct_10_1402,Experimento,3.2.3,60.13299578564849,
8,14,14,999,0.5,0:10,3,Cyan,None,0,0,1,15:50,./completed_changuitos/montage_yyvyr_123.05_106.99.jpg,left,0,0,0,0,,,,,0,0,0,0,,,,,,,,,0,0,0,0,0,18,18,18,,,,,,,,,,,,,,,,,,150.93563904590118,None,None,1,150.93563904590118,None,,,,,,,,,,,,,,,,,,,,,,,,,,,,,,,,,,,,,,,,,,,,,,,,,,,,,,,,,,,,,ezequielV,001,b,2019_Oct_10_1402,Experimento,3.2.3,60.13299578564849,
8,14,14,999,0.5,0:10,3,Blue,['space'],0,0,1,15:50,./completed_changuitos/montage_yyvyr_123.05_106.99.jpg,left,0,0,0,0,,,,,0,0,0,0,,,,,,,,,0,0,0,0,0,19,19,19,,,,,,,,,,,,,,,,,,150.93563904590118,None,None,0,150.93563904590118,None,,,,,,,,,,,,,,,,,,,,,,,,,,,,,,,,,,,,,,,,,,,,,,,,,,,,,,,,,,,,,ezequielV,001,b,2019_Oct_10_1402,Experimento,3.2.3,60.13299578564849,
8,14,14,999,0.5,0:10,3,Yellow,None,0,0,1,15:50,./completed_changuitos/montage_yyvyr_123.05_106.99.jpg,left,0,0,0,0,,,,,0,0,0,0,,,,,,,,,0,0,0,0,0,20,20,20,,,,,,,,,,,,,,,,,,150.93563904590118,None,None,1,150.93563904590118,None,,,,,,,,,,,,,,,,,,,,,,,,,,,,,,,,,,,,,,,,,,,,,,,,,,,,,,,,,,,,,ezequielV,001,b,2019_Oct_10_1402,Experimento,3.2.3,60.13299578564849,
8,14,14,999,0.5,0:10,3,Cyan,None,0,0,1,15:50,./completed_changuitos/montage_yyvyr_123.05_106.99.jpg,left,0,0,0,0,,,,,0,0,0,0,,,,,,,,,0,0,0,0,0,21,21,21,,,,,,,,,,,,,,,,,,150.93563904590118,None,None,1,150.93563904590118,None,,,,,,,,,,,,,,,,,,,,,,,,,,,,,,,,,,,,,,,,,,,,,,,,,,,,,,,,,,,,,ezequielV,001,b,2019_Oct_10_1402,Experimento,3.2.3,60.13299578564849,
8,14,14,999,0.5,0:10,3,Yellow,['space'],0,0,1,15:50,./completed_changuitos/montage_yyvyr_123.05_106.99.jpg,left,0,0,0,0,,,,,0,0,0,0,,,,,,,,,0,0,0,0,0,22,22,22,,,,,,,,,,,,,,,,,,150.93563904590118,None,None,0,150.93563904590118,None,,,,,,,,,,,,,,,,,,,,,,,,,,,,,,,,,,,,,,,,,,,,,,,,,,,,,,,,,,,,,ezequielV,001,b,2019_Oct_10_1402,Experimento,3.2.3,60.13299578564849,
8,14,14,999,0.5,0:10,3,Magenta,None,0,0,1,15:50,./completed_changuitos/montage_yyvyr_123.05_106.99.jpg,left,0,0,0,0,,,,,0,0,0,0,,,,,,,,,0,0,0,0,0,23,23,23,,,,,,,,,,,,,,,,,,150.93563904590118,None,None,1,150.93563904590118,None,,,,,,,,,,,,,,,,,,,,,,,,,,,,,,,,,,,,,,,,,,,,,,,,,,,,,,,,,,,,,ezequielV,001,b,2019_Oct_10_1402,Experimento,3.2.3,60.13299578564849,
8,14,14,999,0.5,0:10,3,Red,None,0,0,1,15:50,./completed_changuitos/montage_yyvyr_123.05_106.99.jpg,left,0,0,0,0,,,,,0,0,0,0,,,,,,,,,0,0,0,0,0,24,24,24,,,,,,,,,,,,,,,,,,150.93563904590118,None,None,1,150.93563904590118,None,,,,,,,,,,,,,,,,,,,,,,,,,,,,,,,,,,,,,,,,,,,,,,,,,,,,,,,,,,,,,ezequielV,001,b,2019_Oct_10_1402,Experimento,3.2.3,60.13299578564849,
8,14,14,999,0.5,0:10,3,Magenta,['space'],0,0,1,15:50,./completed_changuitos/montage_yyvyr_123.05_106.99.jpg,left,0,0,0,0,,,,,0,0,0,0,,,,,,,,,0,0,0,0,0,25,25,25,,,,,,,,,,,,,,,,,,150.93563904590118,None,None,0,150.93563904590118,None,,,,,,,,,,,,,,,,,,,,,,,,,,,,,,,,,,,,,,,,,,,,,,,,,,,,,,,,,,,,,ezequielV,001,b,2019_Oct_10_1402,Experimento,3.2.3,60.13299578564849,
8,14,14,999,0.5,0:10,3,Red,['space'],0,0,1,15:50,./completed_changuitos/montage_yyvyr_123.05_106.99.jpg,left,0,0,0,0,,,,,0,0,0,0,,,,,,,,,0,0,0,0,0,26,26,26,,,,,,,,,,,,,,,,,,150.93563904590118,None,None,0,150.93563904590118,None,,,,,,,,,,,,,,,,,,,,,,,,,,,,,,,,,,,,,,,,,,,,,,,,,,,,,,,,,,,,,ezequielV,001,b,2019_Oct_10_1402,Experimento,3.2.3,60.13299578564849,
8,14,14,999,0.5,0:10,3,Yellow,None,0,0,1,15:50,./completed_changuitos/montage_yyvyr_123.05_106.99.jpg,left,0,0,0,0,,,,,0,0,0,0,,,,,,,,,0,0,0,0,0,27,27,27,,,,,,,,,,,,,,,,,,150.93563904590118,None,None,1,150.93563904590118,None,,,,,,,,,,,,,,,,,,,,,,,,,,,,,,,,,,,,,,,,,,,,,,,,,,,,,,,,,,,,,ezequielV,001,b,2019_Oct_10_1402,Experimento,3.2.3,60.13299578564849,
8,14,14,999,0.5,0:10,3,Cyan,None,0,0,1,15:50,./completed_changuitos/montage_yyvyr_123.05_106.99.jpg,left,0,0,0,0,,,,,0,0,0,0,,,,,,,,,0,0,0,0,0,28,28,28,,,,,,,,,,,,,,,,,,150.93563904590118,None,None,1,150.93563904590118,None,,,,,,,,,,,,,,,,,,,,,,,,,,,,,,,,,,,,,,,,,,,,,,,,,,,,,,,,,,,,,ezequielV,001,b,2019_Oct_10_1402,Experimento,3.2.3,60.13299578564849,
8,14,14,999,0.5,0:10,3,Green,None,0,0,1,15:50,./completed_changuitos/montage_yyvyr_123.05_106.99.jpg,left,0,0,0,0,,,,,0,0,0,0,,,,,,,,,0,0,0,0,0,29,29,29,,,,,,,,,,,,,,,,,,150.95230407020134,None,None,1,150.95230407020134,None,,,,,,,,,,,,,,,,,,,,,,,,,,,,,,,,,,,,,,,,,,,,,,,,,,,,,,,,,,,,,ezequielV,001,b,2019_Oct_10_1402,Experimento,3.2.3,60.13299578564849,
8,14,14,999,0.5,0:10,3,White,None,0,0,1,15:50,./completed_changuitos/montage_yyvyr_123.05_106.99.jpg,left,0,0,0,0,,,,,0,0,0,0,,,,,,,,,0,0,0,0,0,30,30,30,,,,,,,,,,,,,,,,,,150.95230407020134,None,None,1,150.95230407020134,None,,,,,,,,,,,,,,,,,,,,,,,,,,,,,,,,,,,,,,,,,,,,,,,,,,,,,,,,,,,,,ezequielV,001,b,2019_Oct_10_1402,Experimento,3.2.3,60.13299578564849,
8,14,14,999,0.5,0:10,3,Green,['space'],0,0,1,15:50,./completed_changuitos/montage_yyvyr_123.05_106.99.jpg,left,0,0,0,0,,,,,0,0,0,0,,,,,,,,,0,0,0,0,0,31,31,31,,,,,,,,,,,,,,,,,,150.95230407020134,None,None,0,150.95230407020134,None,,,,,,,,,,,,,,,,,,,,,,,,,,,,,,,,,,,,,,,,,,,,,,,,,,,,,,,,,,,,,ezequielV,001,b,2019_Oct_10_1402,Experimento,3.2.3,60.13299578564849,
8,14,14,999,0.5,0:10,3,Red,None,0,0,1,15:50,./completed_changuitos/montage_yyvyr_123.05_106.99.jpg,left,0,0,0,0,,,,,0,0,0,0,,,,,,,,,0,0,0,0,0,32,32,32,,,,,,,,,,,,,,,,,,150.95230407020134,None,None,1,150.95230407020134,None,,,,,,,,,,,,,,,,,,,,,,,,,,,,,,,,,,,,,,,,,,,,,,,,,,,,,,,,,,,,,ezequielV,001,b,2019_Oct_10_1402,Experimento,3.2.3,60.13299578564849,
8,14,14,999,0.5,0:10,3,Blue,None,0,0,1,15:50,./completed_changuitos/montage_yyvyr_123.05_106.99.jpg,left,0,0,0,0,,,,,0,0,0,0,,,,,,,,,0,0,0,0,0,33,33,33,,,,,,,,,,,,,,,,,,150.95230407020134,None,None,1,150.95230407020134,None,,,,,,,,,,,,,,,,,,,,,,,,,,,,,,,,,,,,,,,,,,,,,,,,,,,,,,,,,,,,,ezequielV,001,b,2019_Oct_10_1402,Experimento,3.2.3,60.13299578564849,
8,14,14,999,0.5,0:10,3,Green,None,0,0,1,15:50,./completed_changuitos/montage_yyvyr_123.05_106.99.jpg,left,0,0,0,0,,,,,0,0,0,0,,,,,,,,,0,0,0,0,0,34,34,34,,,,,,,,,,,,,,,,,,150.95230407020134,None,None,1,150.95230407020134,None,,,,,,,,,,,,,,,,,,,,,,,,,,,,,,,,,,,,,,,,,,,,,,,,,,,,,,,,,,,,,ezequielV,001,b,2019_Oct_10_1402,Experimento,3.2.3,60.13299578564849,
8,14,14,999,0.5,0:10,3,,,0,0,1,15:50,./completed_changuitos/montage_yyvyr_123.05_106.99.jpg,left,0,0,0,0,,,,,0,0,0,0,,,,,,,,,0,0,0,0,,,,,,,,,,,,,,,,,,,,,,,,,,,,,150.9869787810021,None,left,1,2.7134330260014394,150.9869787810021,None,150.9869787810021,None,,,,,,,,,,,,,,,,,,,,,,,,,,,,,,,,,,,,,,,,,,,,,,,,,,,ezequielV,001,b,2019_Oct_10_1402,Experimento,3.2.3,60.13299578564849,
8,14,14,999,0.5,0:10,3,,,0,0,1,15:50,,,0,0,0,0,,,,,0,0,0,0,,,,,,,,,,,,,,,,,,,,,,,,,,,,,,,,,,,,,,,,,,,,,,,,,,,,,,,,,,,,,,,,,,,,,,,,,,,,,,,,,,,,,,,,,,,,,,,,,,,,ezequielV,001,b,2019_Oct_10_1402,Experimento,3.2.3,60.13299578564849,
8,14,14,999,0.5,0:10,3,,,0,1,0,19:50,./completed_changuitos/montage_yudlz_150.89_133.75.jpg,left,0,0,0,0,,,,,0,1,1,1,,,,,0,0,0,0,,,,,,,,,,,,,,,,,,,,,,,,,,,,,,,,,,,,,,,,,,153.84423305100063,155.98390178200498,155.98390178200498,163.99780461999762,163.99780461999762,178.00969710999925,left,1,1.633371169999009,178.00969710999925,None,178.00969710999925,None,178.00969710999925,None,,,,,,,,,,,,,,,,,,,,,,,,,,,,,,,,,,,,ezequielV,001,b,2019_Oct_10_1402,Experimento,3.2.3,60.13299578564849,
8,14,14,999,0.5,0:10,3,,,0,1,0,19:50,,,0,0,0,0,,,,,0,1,1,1,,,,,,,,,,,,,,,,,,,,,,,,,,,,,,,,,,,,,,,,,,,,,,,,,,,,,,,,,,,,,,,,,,,,,,,,,,,,,,,,,,,,,,,,,,,,,,,,,,,,ezequielV,001,b,2019_Oct_10_1402,Experimento,3.2.3,60.13299578564849,
8,14,14,999,0.5,0:10,3,Magenta,None,0,0,1,20:50,./completed_changuitos/montage_ylkqi_89.89_103.0.jpg,right,0,0,0,0,,,,,0,2,2,2,,,,,,,,,0,0,0,0,0,0,0,0,,,,,,,,,,,,,,179.78011847699236,181.8250821410038,181.8250821410038,None,189.86618683500274,190.37218085299537,None,1,189.86618683500274,None,,,,,,,,,,,,,,,,,,,,,,,,,,,,,,,,,,,,,,,,,,,,,,,,,,,,,,,,,,,,,ezequielV,001,b,2019_Oct_10_1402,Experimento,3.2.3,60.13299578564849,
8,14,14,999,0.5,0:10,3,Blue,['space'],0,0,1,20:50,./completed_changuitos/montage_ylkqi_89.89_103.0.jpg,right,0,0,0,0,,,,,0,2,2,2,,,,,,,,,0,0,0,0,0,1,1,1,,,,,,,,,,,,,,,,,,191.8716640969942,192.371496836,None,0,191.8716640969942,191.8716640969942,,,,,,,,,,,,,,,,,,,,,,,,,,,,,,,,,,,,,,,,,,,,,,,,,,,,,,,,,,,,,ezequielV,001,b,2019_Oct_10_1402,Experimento,3.2.3,60.13299578564849,
8,14,14,999,0.5,0:10,3,Cyan,None,0,0,1,20:50,./completed_changuitos/montage_ylkqi_89.89_103.0.jpg,right,0,0,0,0,,,,,0,2,2,2,,,,,,,,,0,0,0,0,0,2,2,2,,,,,,,,,,,,,,,,,,193.870901606002,194.37080208100087,None,1,193.870901606002,193.870901606002,,,,,,,,,,,,,,,,,,,,,,,,,,,,,,,,,,,,,,,,,,,,,,,,,,,,,,,,,,,,,ezequielV,001,b,2019_Oct_10_1402,Experimento,3.2.3,60.13299578564849,
8,14,14,999,0.5,0:10,3,Yellow,None,0,0,1,20:50,./completed_changuitos/montage_ylkqi_89.89_103.0.jpg,right,0,0,0,0,,,,,0,2,2,2,,,,,,,,,0,0,0,0,0,3,3,3,,,,,,,,,,,,,,,,,,195.88655774400104,196.38642188999802,None,1,195.88655774400104,195.88655774400104,,,,,,,,,,,,,,,,,,,,,,,,,,,,,,,,,,,,,,,,,,,,,,,,,,,,,,,,,,,,,ezequielV,001,b,2019_Oct_10_1402,Experimento,3.2.3,60.13299578564849,
8,14,14,999,0.5,0:10,3,Cyan,None,0,0,1,20:50,./completed_changuitos/montage_ylkqi_89.89_103.0.jpg,right,0,0,0,0,,,,,0,2,2,2,,,,,,,,,0,0,0,0,0,4,4,4,,,,,,,,,,,,,,,,,,197.88620958599495,198.38607157299703,['return'],0,197.88620958599495,197.88620958599495,[0.5671316200023284],,,,,,,,,,,,,,,,,,,,,,,,,,,,,,,,,,,,,,,,,,,,,,,,,,,,,,,,,,,,ezequielV,001,b,2019_Oct_10_1402,Experimento,3.2.3,60.13299578564849,
8,14,14,999,0.5,0:10,3,Blue,None,0,0,1,20:50,./completed_changuitos/montage_ylkqi_89.89_103.0.jpg,right,0,0,0,0,,,,,0,2,2,2,,,,,,,,,0,0,0,0,0,5,5,5,,,,,,,,,,,,,,,,,,199.902191339992,200.4021369080001,None,1,199.902191339992,199.902191339992,,,,,,,,,,,,,,,,,,,,,,,,,,,,,,,,,,,,,,,,,,,,,,,,,,,,,,,,,,,,,ezequielV,001,b,2019_Oct_10_1402,Experimento,3.2.3,60.13299578564849,
8,14,14,999,0.5,0:10,3,Cyan,['space'],0,0,1,20:50,./completed_changuitos/montage_ylkqi_89.89_103.0.jpg,right,0,0,0,0,,,,,0,2,2,2,,,,,,,,,0,0,0,0,0,6,6,6,,,,,,,,,,,,,,,,,,201.90153754000494,202.40137354699255,['return'],0,201.90153754000494,201.90153754000494,[0.9669486229977338],,,,,,,,,,,,,,,,,,,,,,,,,,,,,,,,,,,,,,,,,,,,,,,,,,,,,,,,,,,,ezequielV,001,b,2019_Oct_10_1402,Experimento,3.2.3,60.13299578564849,
8,14,14,999,0.5,0:10,3,Magenta,None,0,0,1,20:50,./completed_changuitos/montage_ylkqi_89.89_103.0.jpg,right,0,0,0,0,,,,,0,2,2,2,,,,,,,,,0,0,0,0,0,7,7,7,,,,,,,,,,,,,,,,,,203.8508998493009,None,None,1,203.8508998493009,None,,,,,,,,,,,,,,,,,,,,,,,,,,,,,,,,,,,,,,,,,,,,,,,,,,,,,,,,,,,,,ezequielV,001,b,2019_Oct_10_1402,Experimento,3.2.3,60.13299578564849,
8,14,14,999,0.5,0:10,3,Red,None,0,0,1,20:50,./completed_changuitos/montage_ylkqi_89.89_103.0.jpg,right,0,0,0,0,,,,,0,2,2,2,,,,,,,,,0,0,0,0,0,8,8,8,,,,,,,,,,,,,,,,,,203.8508998493009,None,None,1,203.8508998493009,None,,,,,,,,,,,,,,,,,,,,,,,,,,,,,,,,,,,,,,,,,,,,,,,,,,,,,,,,,,,,,ezequielV,001,b,2019_Oct_10_1402,Experimento,3.2.3,60.13299578564849,
8,14,14,999,0.5,0:10,3,Magenta,['space'],0,0,1,20:50,./completed_changuitos/montage_ylkqi_89.89_103.0.jpg,right,0,0,0,0,,,,,0,2,2,2,,,,,,,,,0,0,0,0,0,9,9,9,,,,,,,,,,,,,,,,,,203.8508998493009,None,None,0,203.8508998493009,None,,,,,,,,,,,,,,,,,,,,,,,,,,,,,,,,,,,,,,,,,,,,,,,,,,,,,,,,,,,,,ezequielV,001,b,2019_Oct_10_1402,Experimento,3.2.3,60.13299578564849,
8,14,14,999,0.5,0:10,3,Green,None,0,0,1,20:50,./completed_changuitos/montage_ylkqi_89.89_103.0.jpg,right,0,0,0,0,,,,,0,2,2,2,,,,,,,,,0,0,0,0,0,10,10,10,,,,,,,,,,,,,,,,,,203.8508998493009,None,None,1,203.8508998493009,None,,,,,,,,,,,,,,,,,,,,,,,,,,,,,,,,,,,,,,,,,,,,,,,,,,,,,,,,,,,,,ezequielV,001,b,2019_Oct_10_1402,Experimento,3.2.3,60.13299578564849,
8,14,14,999,0.5,0:10,3,Yellow,['space'],0,0,1,20:50,./completed_changuitos/montage_ylkqi_89.89_103.0.jpg,right,0,0,0,0,,,,,0,2,2,2,,,,,,,,,0,0,0,0,0,11,11,11,,,,,,,,,,,,,,,,,,203.86756487360105,None,None,0,203.86756487360105,None,,,,,,,,,,,,,,,,,,,,,,,,,,,,,,,,,,,,,,,,,,,,,,,,,,,,,,,,,,,,,ezequielV,001,b,2019_Oct_10_1402,Experimento,3.2.3,60.13299578564849,
8,14,14,999,0.5,0:10,3,Blue,None,0,0,1,20:50,./completed_changuitos/montage_ylkqi_89.89_103.0.jpg,right,0,0,0,0,,,,,0,2,2,2,,,,,,,,,0,0,0,0,0,12,12,12,,,,,,,,,,,,,,,,,,203.86756487360105,None,None,1,203.86756487360105,None,,,,,,,,,,,,,,,,,,,,,,,,,,,,,,,,,,,,,,,,,,,,,,,,,,,,,,,,,,,,,ezequielV,001,b,2019_Oct_10_1402,Experimento,3.2.3,60.13299578564849,
8,14,14,999,0.5,0:10,3,Cyan,None,0,0,1,20:50,./completed_changuitos/montage_ylkqi_89.89_103.0.jpg,right,0,0,0,0,,,,,0,2,2,2,,,,,,,,,0,0,0,0,0,13,13,13,,,,,,,,,,,,,,,,,,203.86756487360105,None,None,1,203.86756487360105,None,,,,,,,,,,,,,,,,,,,,,,,,,,,,,,,,,,,,,,,,,,,,,,,,,,,,,,,,,,,,,ezequielV,001,b,2019_Oct_10_1402,Experimento,3.2.3,60.13299578564849,
8,14,14,999,0.5,0:10,3,Blue,['space'],0,0,1,20:50,./completed_changuitos/montage_ylkqi_89.89_103.0.jpg,right,0,0,0,0,,,,,0,2,2,2,,,,,,,,,0,0,0,0,0,14,14,14,,,,,,,,,,,,,,,,,,203.86756487360105,None,None,0,203.86756487360105,None,,,,,,,,,,,,,,,,,,,,,,,,,,,,,,,,,,,,,,,,,,,,,,,,,,,,,,,,,,,,,ezequielV,001,b,2019_Oct_10_1402,Experimento,3.2.3,60.13299578564849,
8,14,14,999,0.5,0:10,3,Yellow,None,0,0,1,20:50,./completed_changuitos/montage_ylkqi_89.89_103.0.jpg,right,0,0,0,0,,,,,0,2,2,2,,,,,,,,,0,0,0,0,0,15,15,15,,,,,,,,,,,,,,,,,,203.86756487360105,None,None,1,203.86756487360105,None,,,,,,,,,,,,,,,,,,,,,,,,,,,,,,,,,,,,,,,,,,,,,,,,,,,,,,,,,,,,,ezequielV,001,b,2019_Oct_10_1402,Experimento,3.2.3,60.13299578564849,
8,14,14,999,0.5,0:10,3,Cyan,None,0,0,1,20:50,./completed_changuitos/montage_ylkqi_89.89_103.0.jpg,right,0,0,0,0,,,,,0,2,2,2,,,,,,,,,0,0,0,0,0,16,16,16,,,,,,,,,,,,,,,,,,203.86756487360105,None,None,1,203.86756487360105,None,,,,,,,,,,,,,,,,,,,,,,,,,,,,,,,,,,,,,,,,,,,,,,,,,,,,,,,,,,,,,ezequielV,001,b,2019_Oct_10_1402,Experimento,3.2.3,60.13299578564849,
8,14,14,999,0.5,0:10,3,Yellow,['space'],0,0,1,20:50,./completed_changuitos/montage_ylkqi_89.89_103.0.jpg,right,0,0,0,0,,,,,0,2,2,2,,,,,,,,,0,0,0,0,0,17,17,17,,,,,,,,,,,,,,,,,,203.86756487360105,None,None,0,203.86756487360105,None,,,,,,,,,,,,,,,,,,,,,,,,,,,,,,,,,,,,,,,,,,,,,,,,,,,,,,,,,,,,,ezequielV,001,b,2019_Oct_10_1402,Experimento,3.2.3,60.13299578564849,
8,14,14,999,0.5,0:10,3,Magenta,None,0,0,1,20:50,./completed_changuitos/montage_ylkqi_89.89_103.0.jpg,right,0,0,0,0,,,,,0,2,2,2,,,,,,,,,0,0,0,0,0,18,18,18,,,,,,,,,,,,,,,,,,203.86756487360105,None,None,1,203.86756487360105,None,,,,,,,,,,,,,,,,,,,,,,,,,,,,,,,,,,,,,,,,,,,,,,,,,,,,,,,,,,,,,ezequielV,001,b,2019_Oct_10_1402,Experimento,3.2.3,60.13299578564849,
8,14,14,999,0.5,0:10,3,Red,None,0,0,1,20:50,./completed_changuitos/montage_ylkqi_89.89_103.0.jpg,right,0,0,0,0,,,,,0,2,2,2,,,,,,,,,0,0,0,0,0,19,19,19,,,,,,,,,,,,,,,,,,203.88422989790124,None,None,1,203.88422989790124,None,,,,,,,,,,,,,,,,,,,,,,,,,,,,,,,,,,,,,,,,,,,,,,,,,,,,,,,,,,,,,ezequielV,001,b,2019_Oct_10_1402,Experimento,3.2.3,60.13299578564849,
8,14,14,999,0.5,0:10,3,Magenta,['space'],0,0,1,20:50,./completed_changuitos/montage_ylkqi_89.89_103.0.jpg,right,0,0,0,0,,,,,0,2,2,2,,,,,,,,,0,0,0,0,0,20,20,20,,,,,,,,,,,,,,,,,,203.88422989790124,None,None,0,203.88422989790124,None,,,,,,,,,,,,,,,,,,,,,,,,,,,,,,,,,,,,,,,,,,,,,,,,,,,,,,,,,,,,,ezequielV,001,b,2019_Oct_10_1402,Experimento,3.2.3,60.13299578564849,
8,14,14,999,0.5,0:10,3,Red,['space'],0,0,1,20:50,./completed_changuitos/montage_ylkqi_89.89_103.0.jpg,right,0,0,0,0,,,,,0,2,2,2,,,,,,,,,0,0,0,0,0,21,21,21,,,,,,,,,,,,,,,,,,203.88422989790124,None,None,0,203.88422989790124,None,,,,,,,,,,,,,,,,,,,,,,,,,,,,,,,,,,,,,,,,,,,,,,,,,,,,,,,,,,,,,ezequielV,001,b,2019_Oct_10_1402,Experimento,3.2.3,60.13299578564849,
8,14,14,999,0.5,0:10,3,Yellow,None,0,0,1,20:50,./completed_changuitos/montage_ylkqi_89.89_103.0.jpg,right,0,0,0,0,,,,,0,2,2,2,,,,,,,,,0,0,0,0,0,22,22,22,,,,,,,,,,,,,,,,,,203.88422989790124,None,None,1,203.88422989790124,None,,,,,,,,,,,,,,,,,,,,,,,,,,,,,,,,,,,,,,,,,,,,,,,,,,,,,,,,,,,,,ezequielV,001,b,2019_Oct_10_1402,Experimento,3.2.3,60.13299578564849,
8,14,14,999,0.5,0:10,3,Cyan,None,0,0,1,20:50,./completed_changuitos/montage_ylkqi_89.89_103.0.jpg,right,0,0,0,0,,,,,0,2,2,2,,,,,,,,,0,0,0,0,0,23,23,23,,,,,,,,,,,,,,,,,,203.88422989790124,None,None,1,203.88422989790124,None,,,,,,,,,,,,,,,,,,,,,,,,,,,,,,,,,,,,,,,,,,,,,,,,,,,,,,,,,,,,,ezequielV,001,b,2019_Oct_10_1402,Experimento,3.2.3,60.13299578564849,
8,14,14,999,0.5,0:10,3,Green,None,0,0,1,20:50,./completed_changuitos/montage_ylkqi_89.89_103.0.jpg,right,0,0,0,0,,,,,0,2,2,2,,,,,,,,,0,0,0,0,0,24,24,24,,,,,,,,,,,,,,,,,,203.88422989790124,None,None,1,203.88422989790124,None,,,,,,,,,,,,,,,,,,,,,,,,,,,,,,,,,,,,,,,,,,,,,,,,,,,,,,,,,,,,,ezequielV,001,b,2019_Oct_10_1402,Experimento,3.2.3,60.13299578564849,
8,14,14,999,0.5,0:10,3,White,None,0,0,1,20:50,./completed_changuitos/montage_ylkqi_89.89_103.0.jpg,right,0,0,0,0,,,,,0,2,2,2,,,,,,,,,0,0,0,0,0,25,25,25,,,,,,,,,,,,,,,,,,203.88422989790124,None,None,1,203.88422989790124,None,,,,,,,,,,,,,,,,,,,,,,,,,,,,,,,,,,,,,,,,,,,,,,,,,,,,,,,,,,,,,ezequielV,001,b,2019_Oct_10_1402,Experimento,3.2.3,60.13299578564849,
8,14,14,999,0.5,0:10,3,Green,['space'],0,0,1,20:50,./completed_changuitos/montage_ylkqi_89.89_103.0.jpg,right,0,0,0,0,,,,,0,2,2,2,,,,,,,,,0,0,0,0,0,26,26,26,,,,,,,,,,,,,,,,,,203.88422989790124,None,None,0,203.88422989790124,None,,,,,,,,,,,,,,,,,,,,,,,,,,,,,,,,,,,,,,,,,,,,,,,,,,,,,,,,,,,,,ezequielV,001,b,2019_Oct_10_1402,Experimento,3.2.3,60.13299578564849,
8,14,14,999,0.5,0:10,3,Red,None,0,0,1,20:50,./completed_changuitos/montage_ylkqi_89.89_103.0.jpg,right,0,0,0,0,,,,,0,2,2,2,,,,,,,,,0,0,0,0,0,27,27,27,,,,,,,,,,,,,,,,,,203.88422989790124,None,None,1,203.88422989790124,None,,,,,,,,,,,,,,,,,,,,,,,,,,,,,,,,,,,,,,,,,,,,,,,,,,,,,,,,,,,,,ezequielV,001,b,2019_Oct_10_1402,Experimento,3.2.3,60.13299578564849,
8,14,14,999,0.5,0:10,3,Blue,None,0,0,1,20:50,./completed_changuitos/montage_ylkqi_89.89_103.0.jpg,right,0,0,0,0,,,,,0,2,2,2,,,,,,,,,0,0,0,0,0,28,28,28,,,,,,,,,,,,,,,,,,203.88422989790124,None,None,1,203.88422989790124,None,,,,,,,,,,,,,,,,,,,,,,,,,,,,,,,,,,,,,,,,,,,,,,,,,,,,,,,,,,,,,ezequielV,001,b,2019_Oct_10_1402,Experimento,3.2.3,60.13299578564849,
8,14,14,999,0.5,0:10,3,Green,None,0,0,1,20:50,./completed_changuitos/montage_ylkqi_89.89_103.0.jpg,right,0,0,0,0,,,,,0,2,2,2,,,,,,,,,0,0,0,0,0,29,29,29,,,,,,,,,,,,,,,,,,203.88422989790124,None,None,1,203.88422989790124,None,,,,,,,,,,,,,,,,,,,,,,,,,,,,,,,,,,,,,,,,,,,,,,,,,,,,,,,,,,,,,ezequielV,001,b,2019_Oct_10_1402,Experimento,3.2.3,60.13299578564849,
8,14,14,999,0.5,0:10,3,,,0,0,1,20:50,./completed_changuitos/montage_ylkqi_89.89_103.0.jpg,right,0,0,0,0,,,,,0,2,2,2,,,,,,,,,0,0,0,0,,,,,,,,,,,,,,,,,,,,,,,,,,,,,203.92379995300143,None,left,0,2.209705518995179,203.92379995300143,None,203.92379995300143,None,,,,,,,,,,,,,,,,,,,,,,,,,,,,,,,,,,,,,,,,,,,,,,,,,,,ezequielV,001,b,2019_Oct_10_1402,Experimento,3.2.3,60.13299578564849,
8,14,14,999,0.5,0:10,3,,,0,0,1,20:50,,,0,0,0,0,,,,,0,2,2,2,,,,,,,,,,,,,,,,,,,,,,,,,,,,,,,,,,,,,,,,,,,,,,,,,,,,,,,,,,,,,,,,,,,,,,,,,,,,,,,,,,,,,,,,,,,,,,,,,,,,ezequielV,001,b,2019_Oct_10_1402,Experimento,3.2.3,60.13299578564849,
8,14,14,999,0.5,0:10,3,,,0,1,0,25:50,./completed_changuitos/montage_dhnnx_103.79_117.7.jpg,right,0,0,0,0,,,,,0,3,3,3,,,,,0,0,0,0,,,,,,,,,,,,,,,,,,,,,,,,,,,,,,,,,,,,,,,,,,206.27519418500015,209.748916646,209.748916646,217.76276326499647,217.76276326499647,231.77466258099594,left,0,1.733972640009597,231.77466258099594,None,231.77466258099594,None,231.77466258099594,None,,,,,,,,,,,,,,,,,,,,,,,,,,,,,,,,,,,,ezequielV,001,b,2019_Oct_10_1402,Experimento,3.2.3,60.13299578564849,
8,14,14,999,0.5,0:10,3,,,0,1,0,25:50,,,0,0,0,0,,,,,0,3,3,3,,,,,,,,,,,,,,,,,,,,,,,,,,,,,,,,,,,,,,,,,,,,,,,,,,,,,,,,,,,,,,,,,,,,,,,,,,,,,,,,,,,,,,,,,,,,,,,,,,,,ezequielV,001,b,2019_Oct_10_1402,Experimento,3.2.3,60.13299578564849,
8,14,14,999,0.5,0:10,3,Red,None,0,0,1,28:50,./completed_changuitos/montage_ejiim_131.6_116.65.jpg,left,0,0,0,0,,,,,0,4,4,4,,,,,,,,,0,0,0,0,0,0,0,0,,,,,,,,,,,,,,233.64363792499353,238.0225198519911,238.0225198519911,None,246.06441491900478,246.56950932099426,None,1,246.06441491900478,None,,,,,,,,,,,,,,,,,,,,,,,,,,,,,,,,,,,,,,,,,,,,,,,,,,,,,,,,,,,,,ezequielV,001,b,2019_Oct_10_1402,Experimento,3.2.3,60.13299578564849,
8,14,14,999,0.5,0:10,3,Magenta,['space'],0,0,1,28:50,./completed_changuitos/montage_ejiim_131.6_116.65.jpg,left,0,0,0,0,,,,,0,4,4,4,,,,,,,,,0,0,0,0,0,1,1,1,,,,,,,,,,,,,,,,,,248.06894348700007,248.56887577699672,None,0,248.06894348700007,248.06894348700007,,,,,,,,,,,,,,,,,,,,,,,,,,,,,,,,,,,,,,,,,,,,,,,,,,,,,,,,,,,,,ezequielV,001,b,2019_Oct_10_1402,Experimento,3.2.3,60.13299578564849,
8,14,14,999,0.5,0:10,3,Green,None,0,0,1,28:50,./completed_changuitos/montage_ejiim_131.6_116.65.jpg,left,0,0,0,0,,,,,0,4,4,4,,,,,,,,,0,0,0,0,0,2,2,2,,,,,,,,,,,,,,,,,,250.06800361299247,250.56824630699703,None,1,250.06800361299247,250.06800361299247,,,,,,,,,,,,,,,,,,,,,,,,,,,,,,,,,,,,,,,,,,,,,,,,,,,,,,,,,,,,,ezequielV,001,b,2019_Oct_10_1402,Experimento,3.2.3,60.13299578564849,
8,14,14,999,0.5,0:10,3,Yellow,['space'],0,0,1,28:50,./completed_changuitos/montage_ejiim_131.6_116.65.jpg,left,0,0,0,0,,,,,0,4,4,4,,,,,,,,,0,0,0,0,0,3,3,3,,,,,,,,,,,,,,,,,,252.06769378999888,252.56754543200077,None,0,252.06769378999888,252.06769378999888,,,,,,,,,,,,,,,,,,,,,,,,,,,,,,,,,,,,,,,,,,,,,,,,,,,,,,,,,,,,,ezequielV,001,b,2019_Oct_10_1402,Experimento,3.2.3,60.13299578564849,
8,14,14,999,0.5,0:10,3,Blue,None,0,0,1,28:50,./completed_changuitos/montage_ejiim_131.6_116.65.jpg,left,0,0,0,0,,,,,0,4,4,4,,,,,,,,,0,0,0,0,0,4,4,4,,,,,,,,,,,,,,,,,,254.066977451992,254.56686623199494,None,1,254.066977451992,254.066977451992,,,,,,,,,,,,,,,,,,,,,,,,,,,,,,,,,,,,,,,,,,,,,,,,,,,,,,,,,,,,,ezequielV,001,b,2019_Oct_10_1402,Experimento,3.2.3,60.13299578564849,
8,14,14,999,0.5,0:10,3,Cyan,None,0,0,1,28:50,./completed_changuitos/montage_ejiim_131.6_116.65.jpg,left,0,0,0,0,,,,,0,4,4,4,,,,,,,,,0,0,0,0,0,5,5,5,,,,,,,,,,,,,,,,,,256.0663225239987,256.5661572569952,None,1,256.0663225239987,256.0663225239987,,,,,,,,,,,,,,,,,,,,,,,,,,,,,,,,,,,,,,,,,,,,,,,,,,,,,,,,,,,,,ezequielV,001,b,2019_Oct_10_1402,Experimento,3.2.3,60.13299578564849,
8,14,14,999,0.5,0:10,3,Blue,['space'],0,0,1,28:50,./completed_changuitos/montage_ejiim_131.6_116.65.jpg,left,0,0,0,0,,,,,0,4,4,4,,,,,,,,,0,0,0,0,0,6,6,6,,,,,,,,,,,,,,,,,,258.06561042899557,258.56549128799816,['return'],0,258.06561042899557,258.06561042899557,[1.1496247580071213],,,,,,,,,,,,,,,,,,,,,,,,,,,,,,,,,,,,,,,,,,,,,,,,,,,,,,,,,,,,ezequielV,001,b,2019_Oct_10_1402,Experimento,3.2.3,60.13299578564849,
8,14,14,999,0.5,0:10,3,Yellow,None,0,0,1,28:50,./completed_changuitos/montage_ejiim_131.6_116.65.jpg,left,0,0,0,0,,,,,0,4,4,4,,,,,,,,,0,0,0,0,0,7,7,7,,,,,,,,,,,,,,,,,,260.048090025298,None,None,1,260.048090025298,None,,,,,,,,,,,,,,,,,,,,,,,,,,,,,,,,,,,,,,,,,,,,,,,,,,,,,,,,,,,,,ezequielV,001,b,2019_Oct_10_1402,Experimento,3.2.3,60.13299578564849,
8,14,14,999,0.5,0:10,3,Cyan,None,0,0,1,28:50,./completed_changuitos/montage_ejiim_131.6_116.65.jpg,left,0,0,0,0,,,,,0,4,4,4,,,,,,,,,0,0,0,0,0,8,8,8,,,,,,,,,,,,,,,,,,260.048090025298,None,None,1,260.048090025298,None,,,,,,,,,,,,,,,,,,,,,,,,,,,,,,,,,,,,,,,,,,,,,,,,,,,,,,,,,,,,,ezequielV,001,b,2019_Oct_10_1402,Experimento,3.2.3,60.13299578564849,
8,14,14,999,0.5,0:10,3,Yellow,['space'],0,0,1,28:50,./completed_changuitos/montage_ejiim_131.6_116.65.jpg,left,0,0,0,0,,,,,0,4,4,4,,,,,,,,,0,0,0,0,0,9,9,9,,,,,,,,,,,,,,,,,,260.048090025298,None,None,0,260.048090025298,None,,,,,,,,,,,,,,,,,,,,,,,,,,,,,,,,,,,,,,,,,,,,,,,,,,,,,,,,,,,,,ezequielV,001,b,2019_Oct_10_1402,Experimento,3.2.3,60.13299578564849,
8,14,14,999,0.5,0:10,3,Magenta,None,0,0,1,28:50,./completed_changuitos/montage_ejiim_131.6_116.65.jpg,left,0,0,0,0,,,,,0,4,4,4,,,,,,,,,0,0,0,0,0,10,10,10,,,,,,,,,,,,,,,,,,260.048090025298,None,None,1,260.048090025298,None,,,,,,,,,,,,,,,,,,,,,,,,,,,,,,,,,,,,,,,,,,,,,,,,,,,,,,,,,,,,,ezequielV,001,b,2019_Oct_10_1402,Experimento,3.2.3,60.13299578564849,
8,14,14,999,0.5,0:10,3,Red,None,0,0,1,28:50,./completed_changuitos/montage_ejiim_131.6_116.65.jpg,left,0,0,0,0,,,,,0,4,4,4,,,,,,,,,0,0,0,0,0,11,11,11,,,,,,,,,,,,,,,,,,260.048090025298,None,None,1,260.048090025298,None,,,,,,,,,,,,,,,,,,,,,,,,,,,,,,,,,,,,,,,,,,,,,,,,,,,,,,,,,,,,,ezequielV,001,b,2019_Oct_10_1402,Experimento,3.2.3,60.13299578564849,
8,14,14,999,0.5,0:10,3,Magenta,['space'],0,0,1,28:50,./completed_changuitos/montage_ejiim_131.6_116.65.jpg,left,0,0,0,0,,,,,0,4,4,4,,,,,,,,,0,0,0,0,0,12,12,12,,,,,,,,,,,,,,,,,,260.048090025298,None,None,0,260.048090025298,None,,,,,,,,,,,,,,,,,,,,,,,,,,,,,,,,,,,,,,,,,,,,,,,,,,,,,,,,,,,,,ezequielV,001,b,2019_Oct_10_1402,Experimento,3.2.3,60.13299578564849,
8,14,14,999,0.5,0:10,3,Red,['space'],0,0,1,28:50,./completed_changuitos/montage_ejiim_131.6_116.65.jpg,left,0,0,0,0,,,,,0,4,4,4,,,,,,,,,0,0,0,0,0,13,13,13,,,,,,,,,,,,,,,,,,260.048090025298,None,None,0,260.048090025298,None,,,,,,,,,,,,,,,,,,,,,,,,,,,,,,,,,,,,,,,,,,,,,,,,,,,,,,,,,,,,,ezequielV,001,b,2019_Oct_10_1402,Experimento,3.2.3,60.13299578564849,
8,14,14,999,0.5,0:10,3,Yellow,None,0,0,1,28:50,./completed_changuitos/montage_ejiim_131.6_116.65.jpg,left,0,0,0,0,,,,,0,4,4,4,,,,,,,,,0,0,0,0,0,14,14,14,,,,,,,,,,,,,,,,,,260.048090025298,None,None,1,260.048090025298,None,,,,,,,,,,,,,,,,,,,,,,,,,,,,,,,,,,,,,,,,,,,,,,,,,,,,,,,,,,,,,ezequielV,001,b,2019_Oct_10_1402,Experimento,3.2.3,60.13299578564849,
8,14,14,999,0.5,0:10,3,Cyan,None,0,0,1,28:50,./completed_changuitos/montage_ejiim_131.6_116.65.jpg,left,0,0,0,0,,,,,0,4,4,4,,,,,,,,,0,0,0,0,0,15,15,15,,,,,,,,,,,,,,,,,,260.048090025298,None,None,1,260.048090025298,None,,,,,,,,,,,,,,,,,,,,,,,,,,,,,,,,,,,,,,,,,,,,,,,,,,,,,,,,,,,,,ezequielV,001,b,2019_Oct_10_1402,Experimento,3.2.3,60.13299578564849,
8,14,14,999,0.5,0:10,3,Green,None,0,0,1,28:50,./completed_changuitos/montage_ejiim_131.6_116.65.jpg,left,0,0,0,0,,,,,0,4,4,4,,,,,,,,,0,0,0,0,0,16,16,16,,,,,,,,,,,,,,,,,,260.048090025298,None,None,1,260.048090025298,None,,,,,,,,,,,,,,,,,,,,,,,,,,,,,,,,,,,,,,,,,,,,,,,,,,,,,,,,,,,,,ezequielV,001,b,2019_Oct_10_1402,Experimento,3.2.3,60.13299578564849,
8,14,14,999,0.5,0:10,3,White,None,0,0,1,28:50,./completed_changuitos/montage_ejiim_131.6_116.65.jpg,left,0,0,0,0,,,,,0,4,4,4,,,,,,,,,0,0,0,0,0,17,17,17,,,,,,,,,,,,,,,,,,260.048090025298,None,None,1,260.048090025298,None,,,,,,,,,,,,,,,,,,,,,,,,,,,,,,,,,,,,,,,,,,,,,,,,,,,,,,,,,,,,,ezequielV,001,b,2019_Oct_10_1402,Experimento,3.2.3,60.13299578564849,
8,14,14,999,0.5,0:10,3,Green,['space'],0,0,1,28:50,./completed_changuitos/montage_ejiim_131.6_116.65.jpg,left,0,0,0,0,,,,,0,4,4,4,,,,,,,,,0,0,0,0,0,18,18,18,,,,,,,,,,,,,,,,,,260.048090025298,None,None,0,260.048090025298,None,,,,,,,,,,,,,,,,,,,,,,,,,,,,,,,,,,,,,,,,,,,,,,,,,,,,,,,,,,,,,ezequielV,001,b,2019_Oct_10_1402,Experimento,3.2.3,60.13299578564849,
8,14,14,999,0.5,0:10,3,Red,None,0,0,1,28:50,./completed_changuitos/montage_ejiim_131.6_116.65.jpg,left,0,0,0,0,,,,,0,4,4,4,,,,,,,,,0,0,0,0,0,19,19,19,,,,,,,,,,,,,,,,,,260.048090025298,None,None,1,260.048090025298,None,,,,,,,,,,,,,,,,,,,,,,,,,,,,,,,,,,,,,,,,,,,,,,,,,,,,,,,,,,,,,ezequielV,001,b,2019_Oct_10_1402,Experimento,3.2.3,60.13299578564849,
8,14,14,999,0.5,0:10,3,Blue,None,0,0,1,28:50,./completed_changuitos/montage_ejiim_131.6_116.65.jpg,left,0,0,0,0,,,,,0,4,4,4,,,,,,,,,0,0,0,0,0,20,20,20,,,,,,,,,,,,,,,,,,260.048090025298,None,None,1,260.048090025298,None,,,,,,,,,,,,,,,,,,,,,,,,,,,,,,,,,,,,,,,,,,,,,,,,,,,,,,,,,,,,,ezequielV,001,b,2019_Oct_10_1402,Experimento,3.2.3,60.13299578564849,
8,14,14,999,0.5,0:10,3,Green,None,0,0,1,28:50,./completed_changuitos/montage_ejiim_131.6_116.65.jpg,left,0,0,0,0,,,,,0,4,4,4,,,,,,,,,0,0,0,0,0,21,21,21,,,,,,,,,,,,,,,,,,260.06475504959815,None,None,1,260.06475504959815,None,,,,,,,,,,,,,,,,,,,,,,,,,,,,,,,,,,,,,,,,,,,,,,,,,,,,,,,,,,,,,ezequielV,001,b,2019_Oct_10_1402,Experimento,3.2.3,60.13299578564849,
8,14,14,999,0.5,0:10,3,,,0,0,1,28:50,./completed_changuitos/montage_ejiim_131.6_116.65.jpg,left,0,0,0,0,,,,,0,4,4,4,,,,,,,,,0,0,0,0,,,,,,,,,,,,,,,,,,,,,,,,,,,,,260.0938786140032,None,left,1,1.7866030750010395,260.0938786140032,None,260.0938786140032,None,,,,,,,,,,,,,,,,,,,,,,,,,,,,,,,,,,,,,,,,,,,,,,,,,,,ezequielV,001,b,2019_Oct_10_1402,Experimento,3.2.3,60.13299578564849,
8,14,14,999,0.5,0:10,3,,,0,0,1,28:50,,,0,0,0,0,,,,,0,4,4,4,,,,,,,,,,,,,,,,,,,,,,,,,,,,,,,,,,,,,,,,,,,,,,,,,,,,,,,,,,,,,,,,,,,,,,,,,,,,,,,,,,,,,,,,,,,,,,,,,,,,ezequielV,001,b,2019_Oct_10_1402,Experimento,3.2.3,60.13299578564849,
8,14,14,999,0.5,0:10,3,,,0,1,0,10:50,./completed_changuitos/montage_ljgfg_307.65_264.19.jpg,left,0,0,0,0,,,,,0,5,5,5,,,,,0,0,0,0,,,,,,,,,,,,,,,,,,,,,,,,,,,,,,,,,,,,,,,,,,262.00714315900404,264.6964257619984,264.6964257619984,272.7106725719932,272.7106725719932,286.72260824499244,left,1,1.6331910820008488,286.72260824499244,None,286.72260824499244,None,286.72260824499244,None,,,,,,,,,,,,,,,,,,,,,,,,,,,,,,,,,,,,ezequielV,001,b,2019_Oct_10_1402,Experimento,3.2.3,60.13299578564849,
8,14,14,999,0.5,0:10,3,,,0,1,0,10:50,,,0,0,0,0,,,,,0,5,5,5,,,,,,,,,,,,,,,,,,,,,,,,,,,,,,,,,,,,,,,,,,,,,,,,,,,,,,,,,,,,,,,,,,,,,,,,,,,,,,,,,,,,,,,,,,,,,,,,,,,,ezequielV,001,b,2019_Oct_10_1402,Experimento,3.2.3,60.13299578564849,
8,14,14,999,0.5,0:10,3,Yellow,None,0,0,1,15:50,./completed_changuitos/montage_xmosp_55.65_64.9.jpg,right,0,0,0,0,,,,,0,6,6,6,,,,,,,,,0,0,0,0,0,0,0,0,,,,,,,,,,,,,,288.48738743799913,290.4712939750025,290.4712939750025,None,298.51218767299724,299.0185312359972,None,1,298.51218767299724,None,,,,,,,,,,,,,,,,,,,,,,,,,,,,,,,,,,,,,,,,,,,,,,,,,,,,,,,,,,,,,ezequielV,001,b,2019_Oct_10_1402,Experimento,3.2.3,60.13299578564849,
8,14,14,999,0.5,0:10,3,White,['space'],0,0,1,15:50,./completed_changuitos/montage_xmosp_55.65_64.9.jpg,right,0,0,0,0,,,,,0,6,6,6,,,,,,,,,0,0,0,0,0,1,1,1,,,,,,,,,,,,,,,,,,300.5175179959915,301.01765444000193,None,0,300.5175179959915,300.5175179959915,,,,,,,,,,,,,,,,,,,,,,,,,,,,,,,,,,,,,,,,,,,,,,,,,,,,,,,,,,,,,ezequielV,001,b,2019_Oct_10_1402,Experimento,3.2.3,60.13299578564849,
8,14,14,999,0.5,0:10,3,Magenta,None,0,0,1,15:50,./completed_changuitos/montage_xmosp_55.65_64.9.jpg,right,0,0,0,0,,,,,0,6,6,6,,,,,,,,,0,0,0,0,0,2,2,2,,,,,,,,,,,,,,,,,,302.5171235919988,303.01696281699697,None,1,302.5171235919988,302.5171235919988,,,,,,,,,,,,,,,,,,,,,,,,,,,,,,,,,,,,,,,,,,,,,,,,,,,,,,,,,,,,,ezequielV,001,b,2019_Oct_10_1402,Experimento,3.2.3,60.13299578564849,
8,14,14,999,0.5,0:10,3,Cyan,None,0,0,1,15:50,./completed_changuitos/montage_xmosp_55.65_64.9.jpg,right,0,0,0,0,,,,,0,6,6,6,,,,,,,,,0,0,0,0,0,3,3,3,,,,,,,,,,,,,,,,,,304.5163906789967,305.01628358100425,None,1,304.5163906789967,304.5163906789967,,,,,,,,,,,,,,,,,,,,,,,,,,,,,,,,,,,,,,,,,,,,,,,,,,,,,,,,,,,,,ezequielV,001,b,2019_Oct_10_1402,Experimento,3.2.3,60.13299578564849,
8,14,14,999,0.5,0:10,3,Blue,None,0,0,1,15:50,./completed_changuitos/montage_xmosp_55.65_64.9.jpg,right,0,0,0,0,,,,,0,6,6,6,,,,,,,,,0,0,0,0,0,4,4,4,,,,,,,,,,,,,,,,,,306.515713781002,307.0156506380008,None,1,306.515713781002,306.515713781002,,,,,,,,,,,,,,,,,,,,,,,,,,,,,,,,,,,,,,,,,,,,,,,,,,,,,,,,,,,,,ezequielV,001,b,2019_Oct_10_1402,Experimento,3.2.3,60.13299578564849,
8,14,14,999,0.5,0:10,3,Magenta,None,0,0,1,15:50,./completed_changuitos/montage_xmosp_55.65_64.9.jpg,right,0,0,0,0,,,,,0,6,6,6,,,,,,,,,0,0,0,0,0,5,5,5,,,,,,,,,,,,,,,,,,308.5150684149994,309.01491253900167,None,1,308.5150684149994,308.5150684149994,,,,,,,,,,,,,,,,,,,,,,,,,,,,,,,,,,,,,,,,,,,,,,,,,,,,,,,,,,,,,ezequielV,001,b,2019_Oct_10_1402,Experimento,3.2.3,60.13299578564849,
8,14,14,999,0.5,0:10,3,Blue,['space'],0,0,1,15:50,./completed_changuitos/montage_xmosp_55.65_64.9.jpg,right,0,0,0,0,,,,,0,6,6,6,,,,,,,,,0,0,0,0,0,6,6,6,,,,,,,,,,,,,,,,,,310.5143748209957,311.01423283899203,['return'],0,310.5143748209957,310.5143748209957,[0.9003620959992986],,,,,,,,,,,,,,,,,,,,,,,,,,,,,,,,,,,,,,,,,,,,,,,,,,,,,,,,,,,,ezequielV,001,b,2019_Oct_10_1402,Experimento,3.2.3,60.13299578564849,
8,14,14,999,0.5,0:10,3,Cyan,None,0,0,1,15:50,./completed_changuitos/montage_xmosp_55.65_64.9.jpg,right,0,0,0,0,,,,,0,6,6,6,,,,,,,,,0,0,0,0,0,7,7,7,,,,,,,,,,,,,,,,,,312.4970504182958,None,None,1,312.4970504182958,None,,,,,,,,,,,,,,,,,,,,,,,,,,,,,,,,,,,,,,,,,,,,,,,,,,,,,,,,,,,,,ezequielV,001,b,2019_Oct_10_1402,Experimento,3.2.3,60.13299578564849,
8,14,14,999,0.5,0:10,3,Yellow,None,0,0,1,15:50,./completed_changuitos/montage_xmosp_55.65_64.9.jpg,right,0,0,0,0,,,,,0,6,6,6,,,,,,,,,0,0,0,0,0,8,8,8,,,,,,,,,,,,,,,,,,312.4970504182958,None,None,1,312.4970504182958,None,,,,,,,,,,,,,,,,,,,,,,,,,,,,,,,,,,,,,,,,,,,,,,,,,,,,,,,,,,,,,ezequielV,001,b,2019_Oct_10_1402,Experimento,3.2.3,60.13299578564849,
8,14,14,999,0.5,0:10,3,Cyan,None,0,0,1,15:50,./completed_changuitos/montage_xmosp_55.65_64.9.jpg,right,0,0,0,0,,,,,0,6,6,6,,,,,,,,,0,0,0,0,0,9,9,9,,,,,,,,,,,,,,,,,,312.4970504182958,None,None,1,312.4970504182958,None,,,,,,,,,,,,,,,,,,,,,,,,,,,,,,,,,,,,,,,,,,,,,,,,,,,,,,,,,,,,,ezequielV,001,b,2019_Oct_10_1402,Experimento,3.2.3,60.13299578564849,
8,14,14,999,0.5,0:10,3,Blue,None,0,0,1,15:50,./completed_changuitos/montage_xmosp_55.65_64.9.jpg,right,0,0,0,0,,,,,0,6,6,6,,,,,,,,,0,0,0,0,0,10,10,10,,,,,,,,,,,,,,,,,,312.4970504182958,None,None,1,312.4970504182958,None,,,,,,,,,,,,,,,,,,,,,,,,,,,,,,,,,,,,,,,,,,,,,,,,,,,,,,,,,,,,,ezequielV,001,b,2019_Oct_10_1402,Experimento,3.2.3,60.13299578564849,
8,14,14,999,0.5,0:10,3,Cyan,['space'],0,0,1,15:50,./completed_changuitos/montage_xmosp_55.65_64.9.jpg,right,0,0,0,0,,,,,0,6,6,6,,,,,,,,,0,0,0,0,0,11,11,11,,,,,,,,,,,,,,,,,,312.513715442596,None,None,0,312.513715442596,None,,,,,,,,,,,,,,,,,,,,,,,,,,,,,,,,,,,,,,,,,,,,,,,,,,,,,,,,,,,,,ezequielV,001,b,2019_Oct_10_1402,Experimento,3.2.3,60.13299578564849,
8,14,14,999,0.5,0:10,3,Magenta,None,0,0,1,15:50,./completed_changuitos/montage_xmosp_55.65_64.9.jpg,right,0,0,0,0,,,,,0,6,6,6,,,,,,,,,0,0,0,0,0,12,12,12,,,,,,,,,,,,,,,,,,312.513715442596,None,None,1,312.513715442596,None,,,,,,,,,,,,,,,,,,,,,,,,,,,,,,,,,,,,,,,,,,,,,,,,,,,,,,,,,,,,,ezequielV,001,b,2019_Oct_10_1402,Experimento,3.2.3,60.13299578564849,
8,14,14,999,0.5,0:10,3,Red,None,0,0,1,15:50,./completed_changuitos/montage_xmosp_55.65_64.9.jpg,right,0,0,0,0,,,,,0,6,6,6,,,,,,,,,0,0,0,0,0,13,13,13,,,,,,,,,,,,,,,,,,312.513715442596,None,None,1,312.513715442596,None,,,,,,,,,,,,,,,,,,,,,,,,,,,,,,,,,,,,,,,,,,,,,,,,,,,,,,,,,,,,,ezequielV,001,b,2019_Oct_10_1402,Experimento,3.2.3,60.13299578564849,
8,14,14,999,0.5,0:10,3,Magenta,['space'],0,0,1,15:50,./completed_changuitos/montage_xmosp_55.65_64.9.jpg,right,0,0,0,0,,,,,0,6,6,6,,,,,,,,,0,0,0,0,0,14,14,14,,,,,,,,,,,,,,,,,,312.513715442596,None,None,0,312.513715442596,None,,,,,,,,,,,,,,,,,,,,,,,,,,,,,,,,,,,,,,,,,,,,,,,,,,,,,,,,,,,,,ezequielV,001,b,2019_Oct_10_1402,Experimento,3.2.3,60.13299578564849,
8,14,14,999,0.5,0:10,3,Green,None,0,0,1,15:50,./completed_changuitos/montage_xmosp_55.65_64.9.jpg,right,0,0,0,0,,,,,0,6,6,6,,,,,,,,,0,0,0,0,0,15,15,15,,,,,,,,,,,,,,,,,,312.513715442596,None,None,1,312.513715442596,None,,,,,,,,,,,,,,,,,,,,,,,,,,,,,,,,,,,,,,,,,,,,,,,,,,,,,,,,,,,,,ezequielV,001,b,2019_Oct_10_1402,Experimento,3.2.3,60.13299578564849,
8,14,14,999,0.5,0:10,3,Yellow,['space'],0,0,1,15:50,./completed_changuitos/montage_xmosp_55.65_64.9.jpg,right,0,0,0,0,,,,,0,6,6,6,,,,,,,,,0,0,0,0,0,16,16,16,,,,,,,,,,,,,,,,,,312.53038046689613,None,None,0,312.53038046689613,None,,,,,,,,,,,,,,,,,,,,,,,,,,,,,,,,,,,,,,,,,,,,,,,,,,,,,,,,,,,,,ezequielV,001,b,2019_Oct_10_1402,Experimento,3.2.3,60.13299578564849,
8,14,14,999,0.5,0:10,3,Blue,None,0,0,1,15:50,./completed_changuitos/montage_xmosp_55.65_64.9.jpg,right,0,0,0,0,,,,,0,6,6,6,,,,,,,,,0,0,0,0,0,17,17,17,,,,,,,,,,,,,,,,,,312.53038046689613,None,None,1,312.53038046689613,None,,,,,,,,,,,,,,,,,,,,,,,,,,,,,,,,,,,,,,,,,,,,,,,,,,,,,,,,,,,,,ezequielV,001,b,2019_Oct_10_1402,Experimento,3.2.3,60.13299578564849,
8,14,14,999,0.5,0:10,3,Cyan,None,0,0,1,15:50,./completed_changuitos/montage_xmosp_55.65_64.9.jpg,right,0,0,0,0,,,,,0,6,6,6,,,,,,,,,0,0,0,0,0,18,18,18,,,,,,,,,,,,,,,,,,312.53038046689613,None,None,1,312.53038046689613,None,,,,,,,,,,,,,,,,,,,,,,,,,,,,,,,,,,,,,,,,,,,,,,,,,,,,,,,,,,,,,ezequielV,001,b,2019_Oct_10_1402,Experimento,3.2.3,60.13299578564849,
8,14,14,999,0.5,0:10,3,Blue,['space'],0,0,1,15:50,./completed_changuitos/montage_xmosp_55.65_64.9.jpg,right,0,0,0,0,,,,,0,6,6,6,,,,,,,,,0,0,0,0,0,19,19,19,,,,,,,,,,,,,,,,,,312.53038046689613,None,None,0,312.53038046689613,None,,,,,,,,,,,,,,,,,,,,,,,,,,,,,,,,,,,,,,,,,,,,,,,,,,,,,,,,,,,,,ezequielV,001,b,2019_Oct_10_1402,Experimento,3.2.3,60.13299578564849,
8,14,14,999,0.5,0:10,3,Yellow,None,0,0,1,15:50,./completed_changuitos/montage_xmosp_55.65_64.9.jpg,right,0,0,0,0,,,,,0,6,6,6,,,,,,,,,0,0,0,0,0,20,20,20,,,,,,,,,,,,,,,,,,312.53038046689613,None,None,1,312.53038046689613,None,,,,,,,,,,,,,,,,,,,,,,,,,,,,,,,,,,,,,,,,,,,,,,,,,,,,,,,,,,,,,ezequielV,001,b,2019_Oct_10_1402,Experimento,3.2.3,60.13299578564849,
8,14,14,999,0.5,0:10,3,Cyan,None,0,0,1,15:50,./completed_changuitos/montage_xmosp_55.65_64.9.jpg,right,0,0,0,0,,,,,0,6,6,6,,,,,,,,,0,0,0,0,0,21,21,21,,,,,,,,,,,,,,,,,,312.53038046689613,None,None,1,312.53038046689613,None,,,,,,,,,,,,,,,,,,,,,,,,,,,,,,,,,,,,,,,,,,,,,,,,,,,,,,,,,,,,,ezequielV,001,b,2019_Oct_10_1402,Experimento,3.2.3,60.13299578564849,
8,14,14,999,0.5,0:10,3,Yellow,['space'],0,0,1,15:50,./completed_changuitos/montage_xmosp_55.65_64.9.jpg,right,0,0,0,0,,,,,0,6,6,6,,,,,,,,,0,0,0,0,0,22,22,22,,,,,,,,,,,,,,,,,,312.53038046689613,None,None,0,312.53038046689613,None,,,,,,,,,,,,,,,,,,,,,,,,,,,,,,,,,,,,,,,,,,,,,,,,,,,,,,,,,,,,,ezequielV,001,b,2019_Oct_10_1402,Experimento,3.2.3,60.13299578564849,
8,14,14,999,0.5,0:10,3,Magenta,None,0,0,1,15:50,./completed_changuitos/montage_xmosp_55.65_64.9.jpg,right,0,0,0,0,,,,,0,6,6,6,,,,,,,,,0,0,0,0,0,23,23,23,,,,,,,,,,,,,,,,,,312.53038046689613,None,None,1,312.53038046689613,None,,,,,,,,,,,,,,,,,,,,,,,,,,,,,,,,,,,,,,,,,,,,,,,,,,,,,,,,,,,,,ezequielV,001,b,2019_Oct_10_1402,Experimento,3.2.3,60.13299578564849,
8,14,14,999,0.5,0:10,3,Red,None,0,0,1,15:50,./completed_changuitos/montage_xmosp_55.65_64.9.jpg,right,0,0,0,0,,,,,0,6,6,6,,,,,,,,,0,0,0,0,0,24,24,24,,,,,,,,,,,,,,,,,,312.53038046689613,None,None,1,312.53038046689613,None,,,,,,,,,,,,,,,,,,,,,,,,,,,,,,,,,,,,,,,,,,,,,,,,,,,,,,,,,,,,,ezequielV,001,b,2019_Oct_10_1402,Experimento,3.2.3,60.13299578564849,
8,14,14,999,0.5,0:10,3,Magenta,['space'],0,0,1,15:50,./completed_changuitos/montage_xmosp_55.65_64.9.jpg,right,0,0,0,0,,,,,0,6,6,6,,,,,,,,,0,0,0,0,0,25,25,25,,,,,,,,,,,,,,,,,,312.53038046689613,None,None,0,312.53038046689613,None,,,,,,,,,,,,,,,,,,,,,,,,,,,,,,,,,,,,,,,,,,,,,,,,,,,,,,,,,,,,,ezequielV,001,b,2019_Oct_10_1402,Experimento,3.2.3,60.13299578564849,
8,14,14,999,0.5,0:10,3,Red,['space'],0,0,1,15:50,./completed_changuitos/montage_xmosp_55.65_64.9.jpg,right,0,0,0,0,,,,,0,6,6,6,,,,,,,,,0,0,0,0,0,26,26,26,,,,,,,,,,,,,,,,,,312.53038046689613,None,None,0,312.53038046689613,None,,,,,,,,,,,,,,,,,,,,,,,,,,,,,,,,,,,,,,,,,,,,,,,,,,,,,,,,,,,,,ezequielV,001,b,2019_Oct_10_1402,Experimento,3.2.3,60.13299578564849,
8,14,14,999,0.5,0:10,3,Yellow,None,0,0,1,15:50,./completed_changuitos/montage_xmosp_55.65_64.9.jpg,right,0,0,0,0,,,,,0,6,6,6,,,,,,,,,0,0,0,0,0,27,27,27,,,,,,,,,,,,,,,,,,312.53038046689613,None,None,1,312.53038046689613,None,,,,,,,,,,,,,,,,,,,,,,,,,,,,,,,,,,,,,,,,,,,,,,,,,,,,,,,,,,,,,ezequielV,001,b,2019_Oct_10_1402,Experimento,3.2.3,60.13299578564849,
8,14,14,999,0.5,0:10,3,Cyan,None,0,0,1,15:50,./completed_changuitos/montage_xmosp_55.65_64.9.jpg,right,0,0,0,0,,,,,0,6,6,6,,,,,,,,,0,0,0,0,0,28,28,28,,,,,,,,,,,,,,,,,,312.53038046689613,None,None,1,312.53038046689613,None,,,,,,,,,,,,,,,,,,,,,,,,,,,,,,,,,,,,,,,,,,,,,,,,,,,,,,,,,,,,,ezequielV,001,b,2019_Oct_10_1402,Experimento,3.2.3,60.13299578564849,
8,14,14,999,0.5,0:10,3,Green,None,0,0,1,15:50,./completed_changuitos/montage_xmosp_55.65_64.9.jpg,right,0,0,0,0,,,,,0,6,6,6,,,,,,,,,0,0,0,0,0,29,29,29,,,,,,,,,,,,,,,,,,312.54704549119634,None,None,1,312.54704549119634,None,,,,,,,,,,,,,,,,,,,,,,,,,,,,,,,,,,,,,,,,,,,,,,,,,,,,,,,,,,,,,ezequielV,001,b,2019_Oct_10_1402,Experimento,3.2.3,60.13299578564849,
8,14,14,999,0.5,0:10,3,White,None,0,0,1,15:50,./completed_changuitos/montage_xmosp_55.65_64.9.jpg,right,0,0,0,0,,,,,0,6,6,6,,,,,,,,,0,0,0,0,0,30,30,30,,,,,,,,,,,,,,,,,,312.54704549119634,None,None,1,312.54704549119634,None,,,,,,,,,,,,,,,,,,,,,,,,,,,,,,,,,,,,,,,,,,,,,,,,,,,,,,,,,,,,,ezequielV,001,b,2019_Oct_10_1402,Experimento,3.2.3,60.13299578564849,
8,14,14,999,0.5,0:10,3,Green,['space'],0,0,1,15:50,./completed_changuitos/montage_xmosp_55.65_64.9.jpg,right,0,0,0,0,,,,,0,6,6,6,,,,,,,,,0,0,0,0,0,31,31,31,,,,,,,,,,,,,,,,,,312.54704549119634,None,None,0,312.54704549119634,None,,,,,,,,,,,,,,,,,,,,,,,,,,,,,,,,,,,,,,,,,,,,,,,,,,,,,,,,,,,,,ezequielV,001,b,2019_Oct_10_1402,Experimento,3.2.3,60.13299578564849,
8,14,14,999,0.5,0:10,3,Red,None,0,0,1,15:50,./completed_changuitos/montage_xmosp_55.65_64.9.jpg,right,0,0,0,0,,,,,0,6,6,6,,,,,,,,,0,0,0,0,0,32,32,32,,,,,,,,,,,,,,,,,,312.54704549119634,None,None,1,312.54704549119634,None,,,,,,,,,,,,,,,,,,,,,,,,,,,,,,,,,,,,,,,,,,,,,,,,,,,,,,,,,,,,,ezequielV,001,b,2019_Oct_10_1402,Experimento,3.2.3,60.13299578564849,
8,14,14,999,0.5,0:10,3,Blue,None,0,0,1,15:50,./completed_changuitos/montage_xmosp_55.65_64.9.jpg,right,0,0,0,0,,,,,0,6,6,6,,,,,,,,,0,0,0,0,0,33,33,33,,,,,,,,,,,,,,,,,,312.54704549119634,None,None,1,312.54704549119634,None,,,,,,,,,,,,,,,,,,,,,,,,,,,,,,,,,,,,,,,,,,,,,,,,,,,,,,,,,,,,,ezequielV,001,b,2019_Oct_10_1402,Experimento,3.2.3,60.13299578564849,
8,14,14,999,0.5,0:10,3,Green,None,0,0,1,15:50,./completed_changuitos/montage_xmosp_55.65_64.9.jpg,right,0,0,0,0,,,,,0,6,6,6,,,,,,,,,0,0,0,0,0,34,34,34,,,,,,,,,,,,,,,,,,312.54704549119634,None,None,1,312.54704549119634,None,,,,,,,,,,,,,,,,,,,,,,,,,,,,,,,,,,,,,,,,,,,,,,,,,,,,,,,,,,,,,ezequielV,001,b,2019_Oct_10_1402,Experimento,3.2.3,60.13299578564849,
8,14,14,999,0.5,0:10,3,,,0,0,1,15:50,./completed_changuitos/montage_xmosp_55.65_64.9.jpg,right,0,0,0,0,,,,,0,6,6,6,,,,,,,,,0,0,0,0,,,,,,,,,,,,,,,,,,,,,,,,,,,,,312.57776428399666,None,left,0,1.6844580739998491,312.57776428399666,None,312.57776428399666,None,,,,,,,,,,,,,,,,,,,,,,,,,,,,,,,,,,,,,,,,,,,,,,,,,,,ezequielV,001,b,2019_Oct_10_1402,Experimento,3.2.3,60.13299578564849,
8,14,14,999,0.5,0:10,3,,,0,0,1,15:50,,,0,0,0,0,,,,,0,6,6,6,,,,,,,,,,,,,,,,,,,,,,,,,,,,,,,,,,,,,,,,,,,,,,,,,,,,,,,,,,,,,,,,,,,,,,,,,,,,,,,,,,,,,,,,,,,,,,,,,,,,ezequielV,001,b,2019_Oct_10_1402,Experimento,3.2.3,60.13299578564849,
8,14,14,999,0.5,0:10,3,,,0,1,0,19:50,./completed_changuitos/montage_elllj_294.25_258.95.jpg,left,0,0,0,0,,,,,0,7,7,7,,,,,0,0,0,0,,,,,,,,,,,,,,,,,,,,,,,,,,,,,,,,,,,,,,,,,,314.40564204800467,315.77891226200154,315.77891226200154,323.79317951800476,323.79317951800476,337.80507179799315,right,0,1.983940279998933,337.80507179799315,None,337.80507179799315,None,337.80507179799315,None,,,,,,,,,,,,,,,,,,,,,,,,,,,,,,,,,,,,ezequielV,001,b,2019_Oct_10_1402,Experimento,3.2.3,60.13299578564849,
8,14,14,999,0.5,0:10,3,,,0,1,0,19:50,,,0,0,0,0,,,,,0,7,7,7,,,,,,,,,,,,,,,,,,,,,,,,,,,,,,,,,,,,,,,,,,,,,,,,,,,,,,,,,,,,,,,,,,,,,,,,,,,,,,,,,,,,,,,,,,,,,,,,,,,,ezequielV,001,b,2019_Oct_10_1402,Experimento,3.2.3,60.13299578564849,
8,14,14,999,0.5,0:10,3,Magenta,None,0,0,1,20:50,./completed_changuitos/montage_jantr_75.45_88.99.jpg,right,0,0,0,0,,,,,0,8,8,8,,,,,,,,,0,0,0,0,0,0,0,0,,,,,,,,,,,,,,339.92021975699754,341.3872212309943,341.3872212309943,None,349.4291219959996,349.93429029399704,None,1,349.4291219959996,None,,,,,,,,,,,,,,,,,,,,,,,,,,,,,,,,,,,,,,,,,,,,,,,,,,,,,,,,,,,,,ezequielV,001,b,2019_Oct_10_1402,Experimento,3.2.3,60.13299578564849,
8,14,14,999,0.5,0:10,3,Blue,['space'],0,0,1,20:50,./completed_changuitos/montage_jantr_75.45_88.99.jpg,right,0,0,0,0,,,,,0,8,8,8,,,,,,,,,0,0,0,0,0,1,1,1,,,,,,,,,,,,,,,,,,351.4336779000005,351.933587099993,None,0,351.4336779000005,351.4336779000005,,,,,,,,,,,,,,,,,,,,,,,,,,,,,,,,,,,,,,,,,,,,,,,,,,,,,,,,,,,,,ezequielV,001,b,2019_Oct_10_1402,Experimento,3.2.3,60.13299578564849,
8,14,14,999,0.5,0:10,3,Cyan,None,0,0,1,20:50,./completed_changuitos/montage_jantr_75.45_88.99.jpg,right,0,0,0,0,,,,,0,8,8,8,,,,,,,,,0,0,0,0,0,2,2,2,,,,,,,,,,,,,,,,,,353.4330613420025,353.9329079570016,None,1,353.4330613420025,353.4330613420025,,,,,,,,,,,,,,,,,,,,,,,,,,,,,,,,,,,,,,,,,,,,,,,,,,,,,,,,,,,,,ezequielV,001,b,2019_Oct_10_1402,Experimento,3.2.3,60.13299578564849,
8,14,14,999,0.5,0:10,3,Yellow,None,0,0,1,20:50,./completed_changuitos/montage_jantr_75.45_88.99.jpg,right,0,0,0,0,,,,,0,8,8,8,,,,,,,,,0,0,0,0,0,3,3,3,,,,,,,,,,,,,,,,,,355.43231813599414,355.9318427029939,None,1,355.43231813599414,355.43231813599414,,,,,,,,,,,,,,,,,,,,,,,,,,,,,,,,,,,,,,,,,,,,,,,,,,,,,,,,,,,,,ezequielV,001,b,2019_Oct_10_1402,Experimento,3.2.3,60.13299578564849,
8,14,14,999,0.5,0:10,3,Cyan,None,0,0,1,20:50,./completed_changuitos/montage_jantr_75.45_88.99.jpg,right,0,0,0,0,,,,,0,8,8,8,,,,,,,,,0,0,0,0,0,4,4,4,,,,,,,,,,,,,,,,,,357.43167350499425,357.9311899460008,['return'],0,357.43167350499425,357.43167350499425,[0.617094225002802],,,,,,,,,,,,,,,,,,,,,,,,,,,,,,,,,,,,,,,,,,,,,,,,,,,,,,,,,,,,ezequielV,001,b,2019_Oct_10_1402,Experimento,3.2.3,60.13299578564849,
8,14,14,999,0.5,0:10,3,Blue,None,0,0,1,20:50,./completed_changuitos/montage_jantr_75.45_88.99.jpg,right,0,0,0,0,,,,,0,8,8,8,,,,,,,,,0,0,0,0,0,5,5,5,,,,,,,,,,,,,,,,,,359.4308564209932,359.93084024300333,None,1,359.4308564209932,359.4308564209932,,,,,,,,,,,,,,,,,,,,,,,,,,,,,,,,,,,,,,,,,,,,,,,,,,,,,,,,,,,,,ezequielV,001,b,2019_Oct_10_1402,Experimento,3.2.3,60.13299578564849,
8,14,14,999,0.5,0:10,3,Cyan,['space'],0,0,1,20:50,./completed_changuitos/montage_jantr_75.45_88.99.jpg,right,0,0,0,0,,,,,0,8,8,8,,,,,,,,,0,0,0,0,0,6,6,6,,,,,,,,,,,,,,,,,,361.43029158900026,361.9301797859953,None,0,361.43029158900026,361.43029158900026,,,,,,,,,,,,,,,,,,,,,,,,,,,,,,,,,,,,,,,,,,,,,,,,,,,,,,,,,,,,,ezequielV,001,b,2019_Oct_10_1402,Experimento,3.2.3,60.13299578564849,
8,14,14,999,0.5,0:10,3,Magenta,None,0,0,1,20:50,./completed_changuitos/montage_jantr_75.45_88.99.jpg,right,0,0,0,0,,,,,0,8,8,8,,,,,,,,,0,0,0,0,0,7,7,7,,,,,,,,,,,,,,,,,,363.4129844482915,None,None,1,363.4129844482915,None,,,,,,,,,,,,,,,,,,,,,,,,,,,,,,,,,,,,,,,,,,,,,,,,,,,,,,,,,,,,,ezequielV,001,b,2019_Oct_10_1402,Experimento,3.2.3,60.13299578564849,
8,14,14,999,0.5,0:10,3,Red,None,0,0,1,20:50,./completed_changuitos/montage_jantr_75.45_88.99.jpg,right,0,0,0,0,,,,,0,8,8,8,,,,,,,,,0,0,0,0,0,8,8,8,,,,,,,,,,,,,,,,,,363.4129844482915,None,None,1,363.4129844482915,None,,,,,,,,,,,,,,,,,,,,,,,,,,,,,,,,,,,,,,,,,,,,,,,,,,,,,,,,,,,,,ezequielV,001,b,2019_Oct_10_1402,Experimento,3.2.3,60.13299578564849,
8,14,14,999,0.5,0:10,3,Magenta,['space'],0,0,1,20:50,./completed_changuitos/montage_jantr_75.45_88.99.jpg,right,0,0,0,0,,,,,0,8,8,8,,,,,,,,,0,0,0,0,0,9,9,9,,,,,,,,,,,,,,,,,,363.4129844482915,None,None,0,363.4129844482915,None,,,,,,,,,,,,,,,,,,,,,,,,,,,,,,,,,,,,,,,,,,,,,,,,,,,,,,,,,,,,,ezequielV,001,b,2019_Oct_10_1402,Experimento,3.2.3,60.13299578564849,
8,14,14,999,0.5,0:10,3,Green,None,0,0,1,20:50,./completed_changuitos/montage_jantr_75.45_88.99.jpg,right,0,0,0,0,,,,,0,8,8,8,,,,,,,,,0,0,0,0,0,10,10,10,,,,,,,,,,,,,,,,,,363.4129844482915,None,None,1,363.4129844482915,None,,,,,,,,,,,,,,,,,,,,,,,,,,,,,,,,,,,,,,,,,,,,,,,,,,,,,,,,,,,,,ezequielV,001,b,2019_Oct_10_1402,Experimento,3.2.3,60.13299578564849,
8,14,14,999,0.5,0:10,3,Yellow,['space'],0,0,1,20:50,./completed_changuitos/montage_jantr_75.45_88.99.jpg,right,0,0,0,0,,,,,0,8,8,8,,,,,,,,,0,0,0,0,0,11,11,11,,,,,,,,,,,,,,,,,,363.4296494725917,None,None,0,363.4296494725917,None,,,,,,,,,,,,,,,,,,,,,,,,,,,,,,,,,,,,,,,,,,,,,,,,,,,,,,,,,,,,,ezequielV,001,b,2019_Oct_10_1402,Experimento,3.2.3,60.13299578564849,
8,14,14,999,0.5,0:10,3,Blue,None,0,0,1,20:50,./completed_changuitos/montage_jantr_75.45_88.99.jpg,right,0,0,0,0,,,,,0,8,8,8,,,,,,,,,0,0,0,0,0,12,12,12,,,,,,,,,,,,,,,,,,363.4296494725917,None,None,1,363.4296494725917,None,,,,,,,,,,,,,,,,,,,,,,,,,,,,,,,,,,,,,,,,,,,,,,,,,,,,,,,,,,,,,ezequielV,001,b,2019_Oct_10_1402,Experimento,3.2.3,60.13299578564849,
8,14,14,999,0.5,0:10,3,Cyan,None,0,0,1,20:50,./completed_changuitos/montage_jantr_75.45_88.99.jpg,right,0,0,0,0,,,,,0,8,8,8,,,,,,,,,0,0,0,0,0,13,13,13,,,,,,,,,,,,,,,,,,363.4296494725917,None,None,1,363.4296494725917,None,,,,,,,,,,,,,,,,,,,,,,,,,,,,,,,,,,,,,,,,,,,,,,,,,,,,,,,,,,,,,ezequielV,001,b,2019_Oct_10_1402,Experimento,3.2.3,60.13299578564849,
8,14,14,999,0.5,0:10,3,Blue,['space'],0,0,1,20:50,./completed_changuitos/montage_jantr_75.45_88.99.jpg,right,0,0,0,0,,,,,0,8,8,8,,,,,,,,,0,0,0,0,0,14,14,14,,,,,,,,,,,,,,,,,,363.4296494725917,None,None,0,363.4296494725917,None,,,,,,,,,,,,,,,,,,,,,,,,,,,,,,,,,,,,,,,,,,,,,,,,,,,,,,,,,,,,,ezequielV,001,b,2019_Oct_10_1402,Experimento,3.2.3,60.13299578564849,
8,14,14,999,0.5,0:10,3,Yellow,None,0,0,1,20:50,./completed_changuitos/montage_jantr_75.45_88.99.jpg,right,0,0,0,0,,,,,0,8,8,8,,,,,,,,,0,0,0,0,0,15,15,15,,,,,,,,,,,,,,,,,,363.4296494725917,None,None,1,363.4296494725917,None,,,,,,,,,,,,,,,,,,,,,,,,,,,,,,,,,,,,,,,,,,,,,,,,,,,,,,,,,,,,,ezequielV,001,b,2019_Oct_10_1402,Experimento,3.2.3,60.13299578564849,
8,14,14,999,0.5,0:10,3,Cyan,None,0,0,1,20:50,./completed_changuitos/montage_jantr_75.45_88.99.jpg,right,0,0,0,0,,,,,0,8,8,8,,,,,,,,,0,0,0,0,0,16,16,16,,,,,,,,,,,,,,,,,,363.44631449689183,None,None,1,363.44631449689183,None,,,,,,,,,,,,,,,,,,,,,,,,,,,,,,,,,,,,,,,,,,,,,,,,,,,,,,,,,,,,,ezequielV,001,b,2019_Oct_10_1402,Experimento,3.2.3,60.13299578564849,
8,14,14,999,0.5,0:10,3,Yellow,['space'],0,0,1,20:50,./completed_changuitos/montage_jantr_75.45_88.99.jpg,right,0,0,0,0,,,,,0,8,8,8,,,,,,,,,0,0,0,0,0,17,17,17,,,,,,,,,,,,,,,,,,363.44631449689183,None,None,0,363.44631449689183,None,,,,,,,,,,,,,,,,,,,,,,,,,,,,,,,,,,,,,,,,,,,,,,,,,,,,,,,,,,,,,ezequielV,001,b,2019_Oct_10_1402,Experimento,3.2.3,60.13299578564849,
8,14,14,999,0.5,0:10,3,Magenta,None,0,0,1,20:50,./completed_changuitos/montage_jantr_75.45_88.99.jpg,right,0,0,0,0,,,,,0,8,8,8,,,,,,,,,0,0,0,0,0,18,18,18,,,,,,,,,,,,,,,,,,363.44631449689183,None,None,1,363.44631449689183,None,,,,,,,,,,,,,,,,,,,,,,,,,,,,,,,,,,,,,,,,,,,,,,,,,,,,,,,,,,,,,ezequielV,001,b,2019_Oct_10_1402,Experimento,3.2.3,60.13299578564849,
8,14,14,999,0.5,0:10,3,Red,None,0,0,1,20:50,./completed_changuitos/montage_jantr_75.45_88.99.jpg,right,0,0,0,0,,,,,0,8,8,8,,,,,,,,,0,0,0,0,0,19,19,19,,,,,,,,,,,,,,,,,,363.44631449689183,None,None,1,363.44631449689183,None,,,,,,,,,,,,,,,,,,,,,,,,,,,,,,,,,,,,,,,,,,,,,,,,,,,,,,,,,,,,,ezequielV,001,b,2019_Oct_10_1402,Experimento,3.2.3,60.13299578564849,
8,14,14,999,0.5,0:10,3,Magenta,['space'],0,0,1,20:50,./completed_changuitos/montage_jantr_75.45_88.99.jpg,right,0,0,0,0,,,,,0,8,8,8,,,,,,,,,0,0,0,0,0,20,20,20,,,,,,,,,,,,,,,,,,363.44631449689183,None,None,0,363.44631449689183,None,,,,,,,,,,,,,,,,,,,,,,,,,,,,,,,,,,,,,,,,,,,,,,,,,,,,,,,,,,,,,ezequielV,001,b,2019_Oct_10_1402,Experimento,3.2.3,60.13299578564849,
8,14,14,999,0.5,0:10,3,Red,['space'],0,0,1,20:50,./completed_changuitos/montage_jantr_75.45_88.99.jpg,right,0,0,0,0,,,,,0,8,8,8,,,,,,,,,0,0,0,0,0,21,21,21,,,,,,,,,,,,,,,,,,363.44631449689183,None,None,0,363.44631449689183,None,,,,,,,,,,,,,,,,,,,,,,,,,,,,,,,,,,,,,,,,,,,,,,,,,,,,,,,,,,,,,ezequielV,001,b,2019_Oct_10_1402,Experimento,3.2.3,60.13299578564849,
8,14,14,999,0.5,0:10,3,Yellow,None,0,0,1,20:50,./completed_changuitos/montage_jantr_75.45_88.99.jpg,right,0,0,0,0,,,,,0,8,8,8,,,,,,,,,0,0,0,0,0,22,22,22,,,,,,,,,,,,,,,,,,363.44631449689183,None,None,1,363.44631449689183,None,,,,,,,,,,,,,,,,,,,,,,,,,,,,,,,,,,,,,,,,,,,,,,,,,,,,,,,,,,,,,ezequielV,001,b,2019_Oct_10_1402,Experimento,3.2.3,60.13299578564849,
8,14,14,999,0.5,0:10,3,Cyan,None,0,0,1,20:50,./completed_changuitos/montage_jantr_75.45_88.99.jpg,right,0,0,0,0,,,,,0,8,8,8,,,,,,,,,0,0,0,0,0,23,23,23,,,,,,,,,,,,,,,,,,363.44631449689183,None,None,1,363.44631449689183,None,,,,,,,,,,,,,,,,,,,,,,,,,,,,,,,,,,,,,,,,,,,,,,,,,,,,,,,,,,,,,ezequielV,001,b,2019_Oct_10_1402,Experimento,3.2.3,60.13299578564849,
8,14,14,999,0.5,0:10,3,Green,None,0,0,1,20:50,./completed_changuitos/montage_jantr_75.45_88.99.jpg,right,0,0,0,0,,,,,0,8,8,8,,,,,,,,,0,0,0,0,0,24,24,24,,,,,,,,,,,,,,,,,,363.44631449689183,None,None,1,363.44631449689183,None,,,,,,,,,,,,,,,,,,,,,,,,,,,,,,,,,,,,,,,,,,,,,,,,,,,,,,,,,,,,,ezequielV,001,b,2019_Oct_10_1402,Experimento,3.2.3,60.13299578564849,
8,14,14,999,0.5,0:10,3,White,None,0,0,1,20:50,./completed_changuitos/montage_jantr_75.45_88.99.jpg,right,0,0,0,0,,,,,0,8,8,8,,,,,,,,,0,0,0,0,0,25,25,25,,,,,,,,,,,,,,,,,,363.44631449689183,None,None,1,363.44631449689183,None,,,,,,,,,,,,,,,,,,,,,,,,,,,,,,,,,,,,,,,,,,,,,,,,,,,,,,,,,,,,,ezequielV,001,b,2019_Oct_10_1402,Experimento,3.2.3,60.13299578564849,
8,14,14,999,0.5,0:10,3,Green,['space'],0,0,1,20:50,./completed_changuitos/montage_jantr_75.45_88.99.jpg,right,0,0,0,0,,,,,0,8,8,8,,,,,,,,,0,0,0,0,0,26,26,26,,,,,,,,,,,,,,,,,,363.44631449689183,None,None,0,363.44631449689183,None,,,,,,,,,,,,,,,,,,,,,,,,,,,,,,,,,,,,,,,,,,,,,,,,,,,,,,,,,,,,,ezequielV,001,b,2019_Oct_10_1402,Experimento,3.2.3,60.13299578564849,
8,14,14,999,0.5,0:10,3,Red,None,0,0,1,20:50,./completed_changuitos/montage_jantr_75.45_88.99.jpg,right,0,0,0,0,,,,,0,8,8,8,,,,,,,,,0,0,0,0,0,27,27,27,,,,,,,,,,,,,,,,,,363.46297952119204,None,None,1,363.46297952119204,None,,,,,,,,,,,,,,,,,,,,,,,,,,,,,,,,,,,,,,,,,,,,,,,,,,,,,,,,,,,,,ezequielV,001,b,2019_Oct_10_1402,Experimento,3.2.3,60.13299578564849,
8,14,14,999,0.5,0:10,3,Blue,None,0,0,1,20:50,./completed_changuitos/montage_jantr_75.45_88.99.jpg,right,0,0,0,0,,,,,0,8,8,8,,,,,,,,,0,0,0,0,0,28,28,28,,,,,,,,,,,,,,,,,,363.46297952119204,None,None,1,363.46297952119204,None,,,,,,,,,,,,,,,,,,,,,,,,,,,,,,,,,,,,,,,,,,,,,,,,,,,,,,,,,,,,,ezequielV,001,b,2019_Oct_10_1402,Experimento,3.2.3,60.13299578564849,
8,14,14,999,0.5,0:10,3,Green,None,0,0,1,20:50,./completed_changuitos/montage_jantr_75.45_88.99.jpg,right,0,0,0,0,,,,,0,8,8,8,,,,,,,,,0,0,0,0,0,29,29,29,,,,,,,,,,,,,,,,,,363.46297952119204,None,None,1,363.46297952119204,None,,,,,,,,,,,,,,,,,,,,,,,,,,,,,,,,,,,,,,,,,,,,,,,,,,,,,,,,,,,,,ezequielV,001,b,2019_Oct_10_1402,Experimento,3.2.3,60.13299578564849,
8,14,14,999,0.5,0:10,3,,,0,0,1,20:50,./completed_changuitos/montage_jantr_75.45_88.99.jpg,right,0,0,0,0,,,,,0,8,8,8,,,,,,,,,0,0,0,0,,,,,,,,,,,,,,,,,,,,,,,,,,,,,363.4927236689982,None,left,0,1.2690310929901898,363.4927236689982,None,363.4927236689982,None,,,,,,,,,,,,,,,,,,,,,,,,,,,,,,,,,,,,,,,,,,,,,,,,,,,ezequielV,001,b,2019_Oct_10_1402,Experimento,3.2.3,60.13299578564849,
8,14,14,999,0.5,0:10,3,,,0,0,1,20:50,,,0,0,0,0,,,,,0,8,8,8,,,,,,,,,,,,,,,,,,,,,,,,,,,,,,,,,,,,,,,,,,,,,,,,,,,,,,,,,,,,,,,,,,,,,,,,,,,,,,,,,,,,,,,,,,,,,,,,,,,,ezequielV,001,b,2019_Oct_10_1402,Experimento,3.2.3,60.13299578564849,
8,14,14,999,0.5,0:10,3,,,0,1,0,25:50,./completed_changuitos/montage_wfjly_127.35_146.59.jpg,right,0,0,0,0,,,,,0,9,9,9,,,,,0,0,0,0,,,,,,,,,,,,,,,,,,,,,,,,,,,,,,,,,,,,,,,,,,364.87658612699306,366.5118939940003,366.5118939940003,374.5255639520037,374.5255639520037,388.5374819110002,left,0,0.6498614479933167,388.5374819110002,None,388.5374819110002,None,388.5374819110002,None,,,,,,,,,,,,,,,,,,,,,,,,,,,,,,,,,,,,ezequielV,001,b,2019_Oct_10_1402,Experimento,3.2.3,60.13299578564849,
8,14,14,999,0.5,0:10,3,,,0,1,0,25:50,,,0,0,0,0,,,,,0,9,9,9,,,,,,,,,,,,,,,,,,,,,,,,,,,,,,,,,,,,,,,,,,,,,,,,,,,,,,,,,,,,,,,,,,,,,,,,,,,,,,,,,,,,,,,,,,,,,,,,,,,,ezequielV,001,b,2019_Oct_10_1402,Experimento,3.2.3,60.13299578564849,
8,14,14,999,0.5,0:10,3,Red,None,0,0,1,28:50,./completed_changuitos/montage_dcaqa_62.05_71.69.jpg,right,0,0,0,0,,,,,0,10,10,10,,,,,,,,,0,0,0,0,0,0,0,0,,,,,,,,,,,,,,389.3025157270022,390.33707487399806,390.33707487399806,None,398.38155722699594,398.8842264870036,None,1,398.38155722699594,None,,,,,,,,,,,,,,,,,,,,,,,,,,,,,,,,,,,,,,,,,,,,,,,,,,,,,,,,,,,,,ezequielV,001,b,2019_Oct_10_1402,Experimento,3.2.3,60.13299578564849,
8,14,14,999,0.5,0:10,3,Magenta,['space'],0,0,1,28:50,./completed_changuitos/montage_dcaqa_62.05_71.69.jpg,right,0,0,0,0,,,,,0,10,10,10,,,,,,,,,0,0,0,0,0,1,1,1,,,,,,,,,,,,,,,,,,400.38355915299326,400.88352578399645,None,0,400.38355915299326,400.38355915299326,,,,,,,,,,,,,,,,,,,,,,,,,,,,,,,,,,,,,,,,,,,,,,,,,,,,,,,,,,,,,ezequielV,001,b,2019_Oct_10_1402,Experimento,3.2.3,60.13299578564849,
8,14,14,999,0.5,0:10,3,Green,None,0,0,1,28:50,./completed_changuitos/montage_dcaqa_62.05_71.69.jpg,right,0,0,0,0,,,,,0,10,10,10,,,,,,,,,0,0,0,0,0,2,2,2,,,,,,,,,,,,,,,,,,402.3825665899931,402.8824077780009,None,1,402.3825665899931,402.3825665899931,,,,,,,,,,,,,,,,,,,,,,,,,,,,,,,,,,,,,,,,,,,,,,,,,,,,,,,,,,,,,ezequielV,001,b,2019_Oct_10_1402,Experimento,3.2.3,60.13299578564849,
8,14,14,999,0.5,0:10,3,Yellow,['space'],0,0,1,28:50,./completed_changuitos/montage_dcaqa_62.05_71.69.jpg,right,0,0,0,0,,,,,0,10,10,10,,,,,,,,,0,0,0,0,0,3,3,3,,,,,,,,,,,,,,,,,,404.38222118400154,404.88213824700506,None,0,404.38222118400154,404.38222118400154,,,,,,,,,,,,,,,,,,,,,,,,,,,,,,,,,,,,,,,,,,,,,,,,,,,,,,,,,,,,,ezequielV,001,b,2019_Oct_10_1402,Experimento,3.2.3,60.13299578564849,
8,14,14,999,0.5,0:10,3,Blue,None,0,0,1,28:50,./completed_changuitos/montage_dcaqa_62.05_71.69.jpg,right,0,0,0,0,,,,,0,10,10,10,,,,,,,,,0,0,0,0,0,4,4,4,,,,,,,,,,,,,,,,,,406.38157878399943,406.8814596979937,None,1,406.38157878399943,406.38157878399943,,,,,,,,,,,,,,,,,,,,,,,,,,,,,,,,,,,,,,,,,,,,,,,,,,,,,,,,,,,,,ezequielV,001,b,2019_Oct_10_1402,Experimento,3.2.3,60.13299578564849,
8,14,14,999,0.5,0:10,3,Cyan,None,0,0,1,28:50,./completed_changuitos/montage_dcaqa_62.05_71.69.jpg,right,0,0,0,0,,,,,0,10,10,10,,,,,,,,,0,0,0,0,0,5,5,5,,,,,,,,,,,,,,,,,,408.3805483680044,408.8807684019994,None,1,408.3805483680044,408.3805483680044,,,,,,,,,,,,,,,,,,,,,,,,,,,,,,,,,,,,,,,,,,,,,,,,,,,,,,,,,,,,,ezequielV,001,b,2019_Oct_10_1402,Experimento,3.2.3,60.13299578564849,
8,14,14,999,0.5,0:10,3,Blue,['space'],0,0,1,28:50,./completed_changuitos/montage_dcaqa_62.05_71.69.jpg,right,0,0,0,0,,,,,0,10,10,10,,,,,,,,,0,0,0,0,0,6,6,6,,,,,,,,,,,,,,,,,,410.3802062210016,410.8800966790004,['return'],0,410.3802062210016,410.3802062210016,[0.6504726249986561],,,,,,,,,,,,,,,,,,,,,,,,,,,,,,,,,,,,,,,,,,,,,,,,,,,,,,,,,,,,ezequielV,001,b,2019_Oct_10_1402,Experimento,3.2.3,60.13299578564849,
8,14,14,999,0.5,0:10,3,Yellow,None,0,0,1,28:50,./completed_changuitos/montage_dcaqa_62.05_71.69.jpg,right,0,0,0,0,,,,,0,10,10,10,,,,,,,,,0,0,0,0,0,7,7,7,,,,,,,,,,,,,,,,,,412.362922334297,None,None,1,412.362922334297,None,,,,,,,,,,,,,,,,,,,,,,,,,,,,,,,,,,,,,,,,,,,,,,,,,,,,,,,,,,,,,ezequielV,001,b,2019_Oct_10_1402,Experimento,3.2.3,60.13299578564849,
8,14,14,999,0.5,0:10,3,Cyan,None,0,0,1,28:50,./completed_changuitos/montage_dcaqa_62.05_71.69.jpg,right,0,0,0,0,,,,,0,10,10,10,,,,,,,,,0,0,0,0,0,8,8,8,,,,,,,,,,,,,,,,,,412.362922334297,None,None,1,412.362922334297,None,,,,,,,,,,,,,,,,,,,,,,,,,,,,,,,,,,,,,,,,,,,,,,,,,,,,,,,,,,,,,ezequielV,001,b,2019_Oct_10_1402,Experimento,3.2.3,60.13299578564849,
8,14,14,999,0.5,0:10,3,Yellow,['space'],0,0,1,28:50,./completed_changuitos/montage_dcaqa_62.05_71.69.jpg,right,0,0,0,0,,,,,0,10,10,10,,,,,,,,,0,0,0,0,0,9,9,9,,,,,,,,,,,,,,,,,,412.362922334297,None,None,0,412.362922334297,None,,,,,,,,,,,,,,,,,,,,,,,,,,,,,,,,,,,,,,,,,,,,,,,,,,,,,,,,,,,,,ezequielV,001,b,2019_Oct_10_1402,Experimento,3.2.3,60.13299578564849,
8,14,14,999,0.5,0:10,3,Magenta,None,0,0,1,28:50,./completed_changuitos/montage_dcaqa_62.05_71.69.jpg,right,0,0,0,0,,,,,0,10,10,10,,,,,,,,,0,0,0,0,0,10,10,10,,,,,,,,,,,,,,,,,,412.362922334297,None,None,1,412.362922334297,None,,,,,,,,,,,,,,,,,,,,,,,,,,,,,,,,,,,,,,,,,,,,,,,,,,,,,,,,,,,,,ezequielV,001,b,2019_Oct_10_1402,Experimento,3.2.3,60.13299578564849,
8,14,14,999,0.5,0:10,3,Red,None,0,0,1,28:50,./completed_changuitos/montage_dcaqa_62.05_71.69.jpg,right,0,0,0,0,,,,,0,10,10,10,,,,,,,,,0,0,0,0,0,11,11,11,,,,,,,,,,,,,,,,,,412.3795873585972,None,None,1,412.3795873585972,None,,,,,,,,,,,,,,,,,,,,,,,,,,,,,,,,,,,,,,,,,,,,,,,,,,,,,,,,,,,,,ezequielV,001,b,2019_Oct_10_1402,Experimento,3.2.3,60.13299578564849,
8,14,14,999,0.5,0:10,3,Magenta,['space'],0,0,1,28:50,./completed_changuitos/montage_dcaqa_62.05_71.69.jpg,right,0,0,0,0,,,,,0,10,10,10,,,,,,,,,0,0,0,0,0,12,12,12,,,,,,,,,,,,,,,,,,412.3795873585972,None,None,0,412.3795873585972,None,,,,,,,,,,,,,,,,,,,,,,,,,,,,,,,,,,,,,,,,,,,,,,,,,,,,,,,,,,,,,ezequielV,001,b,2019_Oct_10_1402,Experimento,3.2.3,60.13299578564849,
8,14,14,999,0.5,0:10,3,Red,['space'],0,0,1,28:50,./completed_changuitos/montage_dcaqa_62.05_71.69.jpg,right,0,0,0,0,,,,,0,10,10,10,,,,,,,,,0,0,0,0,0,13,13,13,,,,,,,,,,,,,,,,,,412.3795873585972,None,None,0,412.3795873585972,None,,,,,,,,,,,,,,,,,,,,,,,,,,,,,,,,,,,,,,,,,,,,,,,,,,,,,,,,,,,,,ezequielV,001,b,2019_Oct_10_1402,Experimento,3.2.3,60.13299578564849,
8,14,14,999,0.5,0:10,3,Yellow,None,0,0,1,28:50,./completed_changuitos/montage_dcaqa_62.05_71.69.jpg,right,0,0,0,0,,,,,0,10,10,10,,,,,,,,,0,0,0,0,0,14,14,14,,,,,,,,,,,,,,,,,,412.3795873585972,None,None,1,412.3795873585972,None,,,,,,,,,,,,,,,,,,,,,,,,,,,,,,,,,,,,,,,,,,,,,,,,,,,,,,,,,,,,,ezequielV,001,b,2019_Oct_10_1402,Experimento,3.2.3,60.13299578564849,
8,14,14,999,0.5,0:10,3,Cyan,None,0,0,1,28:50,./completed_changuitos/montage_dcaqa_62.05_71.69.jpg,right,0,0,0,0,,,,,0,10,10,10,,,,,,,,,0,0,0,0,0,15,15,15,,,,,,,,,,,,,,,,,,412.3795873585972,None,None,1,412.3795873585972,None,,,,,,,,,,,,,,,,,,,,,,,,,,,,,,,,,,,,,,,,,,,,,,,,,,,,,,,,,,,,,ezequielV,001,b,2019_Oct_10_1402,Experimento,3.2.3,60.13299578564849,
8,14,14,999,0.5,0:10,3,Green,None,0,0,1,28:50,./completed_changuitos/montage_dcaqa_62.05_71.69.jpg,right,0,0,0,0,,,,,0,10,10,10,,,,,,,,,0,0,0,0,0,16,16,16,,,,,,,,,,,,,,,,,,412.3795873585972,None,None,1,412.3795873585972,None,,,,,,,,,,,,,,,,,,,,,,,,,,,,,,,,,,,,,,,,,,,,,,,,,,,,,,,,,,,,,ezequielV,001,b,2019_Oct_10_1402,Experimento,3.2.3,60.13299578564849,
8,14,14,999,0.5,0:10,3,White,None,0,0,1,28:50,./completed_changuitos/montage_dcaqa_62.05_71.69.jpg,right,0,0,0,0,,,,,0,10,10,10,,,,,,,,,0,0,0,0,0,17,17,17,,,,,,,,,,,,,,,,,,412.39625238289733,None,None,1,412.39625238289733,None,,,,,,,,,,,,,,,,,,,,,,,,,,,,,,,,,,,,,,,,,,,,,,,,,,,,,,,,,,,,,ezequielV,001,b,2019_Oct_10_1402,Experimento,3.2.3,60.13299578564849,
8,14,14,999,0.5,0:10,3,Green,['space'],0,0,1,28:50,./completed_changuitos/montage_dcaqa_62.05_71.69.jpg,right,0,0,0,0,,,,,0,10,10,10,,,,,,,,,0,0,0,0,0,18,18,18,,,,,,,,,,,,,,,,,,412.39625238289733,None,None,0,412.39625238289733,None,,,,,,,,,,,,,,,,,,,,,,,,,,,,,,,,,,,,,,,,,,,,,,,,,,,,,,,,,,,,,ezequielV,001,b,2019_Oct_10_1402,Experimento,3.2.3,60.13299578564849,
8,14,14,999,0.5,0:10,3,Red,None,0,0,1,28:50,./completed_changuitos/montage_dcaqa_62.05_71.69.jpg,right,0,0,0,0,,,,,0,10,10,10,,,,,,,,,0,0,0,0,0,19,19,19,,,,,,,,,,,,,,,,,,412.39625238289733,None,None,1,412.39625238289733,None,,,,,,,,,,,,,,,,,,,,,,,,,,,,,,,,,,,,,,,,,,,,,,,,,,,,,,,,,,,,,ezequielV,001,b,2019_Oct_10_1402,Experimento,3.2.3,60.13299578564849,
8,14,14,999,0.5,0:10,3,Blue,None,0,0,1,28:50,./completed_changuitos/montage_dcaqa_62.05_71.69.jpg,right,0,0,0,0,,,,,0,10,10,10,,,,,,,,,0,0,0,0,0,20,20,20,,,,,,,,,,,,,,,,,,412.39625238289733,None,None,1,412.39625238289733,None,,,,,,,,,,,,,,,,,,,,,,,,,,,,,,,,,,,,,,,,,,,,,,,,,,,,,,,,,,,,,ezequielV,001,b,2019_Oct_10_1402,Experimento,3.2.3,60.13299578564849,
8,14,14,999,0.5,0:10,3,Green,None,0,0,1,28:50,./completed_changuitos/montage_dcaqa_62.05_71.69.jpg,right,0,0,0,0,,,,,0,10,10,10,,,,,,,,,0,0,0,0,0,21,21,21,,,,,,,,,,,,,,,,,,412.39625238289733,None,None,1,412.39625238289733,None,,,,,,,,,,,,,,,,,,,,,,,,,,,,,,,,,,,,,,,,,,,,,,,,,,,,,,,,,,,,,ezequielV,001,b,2019_Oct_10_1402,Experimento,3.2.3,60.13299578564849,
8,14,14,999,0.5,0:10,3,,,0,0,1,28:50,./completed_changuitos/montage_dcaqa_62.05_71.69.jpg,right,0,0,0,0,,,,,0,10,10,10,,,,,,,,,0,0,0,0,,,,,,,,,,,,,,,,,,,,,,,,,,,,,412.43093146799947,None,left,0,1.4816876490076538,412.43093146799947,None,412.43093146799947,None,,,,,,,,,,,,,,,,,,,,,,,,,,,,,,,,,,,,,,,,,,,,,,,,,,,ezequielV,001,b,2019_Oct_10_1402,Experimento,3.2.3,60.13299578564849,
8,14,14,999,0.5,0:10,3,,,0,0,1,28:50,,,0,0,0,0,,,,,0,10,10,10,,,,,,,,,,,,,,,,,,,,,,,,,,,,,,,,,,,,,,,,,,,,,,,,,,,,,,,,,,,,,,,,,,,,,,,,,,,,,,,,,,,,,,,,,,,,,,,,,,,,ezequielV,001,b,2019_Oct_10_1402,Experimento,3.2.3,60.13299578564849,
8,14,14,999,0.5,0:10,3,,,0,1,0,10:50,./completed_changuitos/montage_uiuaw_42.25_36.9.jpg,left,0,0,0,0,,,,,0,11,11,11,,,,,0,0,0,0,,,,,,,,,,,,,,,,,,,,,,,,,,,,,,,,,,,,,,,,,,414.0430518659996,415.12862348600174,415.12862348600174,423.1425650540041,423.1425650540041,437.1544278049987,right,0,0.6502961669903016,437.1544278049987,None,437.1544278049987,None,437.1544278049987,None,,,,,,,,,,,,,,,,,,,,,,,,,,,,,,,,,,,,ezequielV,001,b,2019_Oct_10_1402,Experimento,3.2.3,60.13299578564849,
8,14,14,999,0.5,0:10,3,,,0,1,0,10:50,,,0,0,0,0,,,,,0,11,11,11,,,,,,,,,,,,,,,,,,,,,,,,,,,,,,,,,,,,,,,,,,,,,,,,,,,,,,,,,,,,,,,,,,,,,,,,,,,,,,,,,,,,,,,,,,,,,,,,,,,,ezequielV,001,b,2019_Oct_10_1402,Experimento,3.2.3,60.13299578564849,
8,14,14,999,0.5,0:10,3,,,1,0,0,30:50,./completed_changuitos/montage_miqcj_49.15_55.75.jpg,right,0,0,0,0,,,,,0,12,12,12,0,0,0,0,,,,,,,,,,,,,,,,,,,,,,,,,,,,,,,,,,,,,,,,,,,,,,,,,,,,,,,,,,,,,438.4373077460041,439.5699672320043,439.5699672320043,447.58420778799336,right,1,1.9499844719975954,447.58420778799336,None,447.58420778799336,None,447.58420778799336,None,,,,,,,,,,,,,,,,,,,,,,,ezequielV,001,b,2019_Oct_10_1402,Experimento,3.2.3,60.13299578564849,
8,14,14,999,0.5,0:10,3,,,1,0,0,30:50,,,0,0,0,0,,,,,0,12,12,12,,,,,,,,,,,,,,,,,,,,,,,,,,,,,,,,,,,,,,,,,,,,,,,,,,,,,,,,,,,,,,,,,,,,,,,,,,,,,,,,,,,,,,,,,,,,,,,,,,,,ezequielV,001,b,2019_Oct_10_1402,Experimento,3.2.3,60.13299578564849,
8,14,14,999,0.5,0:10,3,,,1,0,0,32:50,./completed_changuitos/montage_uxyur_171.19_153.89.jpg,left,0,0,0,0,,,,,0,13,13,13,0,0,0,0,,,,,,,,,,,,,,,,,,,,,,,,,,,,,,,,,,,,,,,,,,,,,,,,,,,,,,,,,,,,,450.1833487219992,451.199343485001,451.199343485001,459.2131995029922,right,0,0.8339859390107449,459.2131995029922,None,459.2131995029922,None,459.2131995029922,None,,,,,,,,,,,,,,,,,,,,,,,ezequielV,001,b,2019_Oct_10_1402,Experimento,3.2.3,60.13299578564849,
8,14,14,999,0.5,0:10,3,,,1,0,0,32:50,,,0,0,0,0,,,,,0,13,13,13,,,,,,,,,,,,,,,,,,,,,,,,,,,,,,,,,,,,,,,,,,,,,,,,,,,,,,,,,,,,,,,,,,,,,,,,,,,,,,,,,,,,,,,,,,,,,,,,,,,,ezequielV,001,b,2019_Oct_10_1402,Experimento,3.2.3,60.13299578564849,
8,14,14,999,0.5,0:10,3,,,1,0,0,34:50,./completed_changuitos/montage_zulqg_131.6_148.75.jpg,right,0,0,0,0,,,,,0,14,14,14,0,0,0,0,,,,,,,,,,,,,,,,,,,,,,,,,,,,,,,,,,,,,,,,,,,,,,,,,,,,,,,,,,,,,460.67937776100007,461.59608024200134,461.59608024200134,469.6100015129923,right,1,0.8008802849944914,469.6100015129923,None,469.6100015129923,None,469.6100015129923,None,,,,,,,,,,,,,,,,,,,,,,,ezequielV,001,b,2019_Oct_10_1402,Experimento,3.2.3,60.13299578564849,
8,14,14,999,0.5,0:10,3,,,1,0,0,34:50,,,0,0,0,0,,,,,0,14,14,14,,,,,,,,,,,,,,,,,,,,,,,,,,,,,,,,,,,,,,,,,,,,,,,,,,,,,,,,,,,,,,,,,,,,,,,,,,,,,,,,,,,,,,,,,,,,,,,,,,,,ezequielV,001,b,2019_Oct_10_1402,Experimento,3.2.3,60.13299578564849,
8,14,14,999,0.5,0:10,3,,,1,0,0,30:50,./completed_changuitos/montage_dczrf_52.45_46.99.jpg,left,0,0,0,0,,,,,0,15,15,15,0,0,0,0,,,,,,,,,,,,,,,,,,,,,,,,,,,,,,,,,,,,,,,,,,,,,,,,,,,,,,,,,,,,,471.0428579580039,472.05919373799406,472.05919373799406,480.0730963090027,left,1,0.6828848650038708,480.0730963090027,None,480.0730963090027,None,480.0730963090027,None,,,,,,,,,,,,,,,,,,,,,,,ezequielV,001,b,2019_Oct_10_1402,Experimento,3.2.3,60.13299578564849,
8,14,14,999,0.5,0:10,3,,,1,0,0,30:50,,,0,0,0,0,,,,,0,15,15,15,,,,,,,,,,,,,,,,,,,,,,,,,,,,,,,,,,,,,,,,,,,,,,,,,,,,,,,,,,,,,,,,,,,,,,,,,,,,,,,,,,,,,,,,,,,,,,,,,,,,ezequielV,001,b,2019_Oct_10_1402,Experimento,3.2.3,60.13299578564849,
8,14,14,999,0.5,0:10,3,,,1,0,0,32:50,./completed_changuitos/montage_illgm_72.75_63.15.jpg,left,0,0,0,0,,,,,0,16,16,16,0,0,0,0,,,,,,,,,,,,,,,,,,,,,,,,,,,,,,,,,,,,,,,,,,,,,,,,,,,,,,,,,,,,,481.37263823099784,482.22236371999315,482.22236371999315,490.23628430400277,left,1,0.5169981689978158,490.23628430400277,None,490.23628430400277,None,490.23628430400277,None,,,,,,,,,,,,,,,,,,,,,,,ezequielV,001,b,2019_Oct_10_1402,Experimento,3.2.3,60.13299578564849,
8,14,14,999,0.5,0:10,3,,,1,0,0,32:50,,,0,0,0,0,,,,,0,16,16,16,,,,,,,,,,,,,,,,,,,,,,,,,,,,,,,,,,,,,,,,,,,,,,,,,,,,,,,,,,,,,,,,,,,,,,,,,,,,,,,,,,,,,,,,,,,,,,,,,,,,ezequielV,001,b,2019_Oct_10_1402,Experimento,3.2.3,60.13299578564849,
8,14,14,999,0.5,0:10,3,,,1,0,0,34:50,./completed_changuitos/montage_cqjrb_60.8_53.49.jpg,left,0,0,0,0,,,,,0,17,17,17,0,0,0,0,,,,,,,,,,,,,,,,,,,,,,,,,,,,,,,,,,,,,,,,,,,,,,,,,,,,,,,,,,,,,491.40253858199867,492.2022732219921,492.2022732219921,500.2162146979972,left,1,0.5004020420019515,500.2162146979972,None,500.2162146979972,None,500.2162146979972,None,,,,,,,,,,,,,,,,,,,,,,,ezequielV,001,b,2019_Oct_10_1402,Experimento,3.2.3,60.13299578564849,
8,14,14,999,0.5,0:10,3,,,1,0,0,34:50,,,0,0,0,0,,,,,0,17,17,17,,,,,,,,,,,,,,,,,,,,,,,,,,,,,,,,,,,,,,,,,,,,,,,,,,,,,,,,,,,,,,,,,,,,,,,,,,,,,,,,,,,,,,,,,,,,,,,,,,,,ezequielV,001,b,2019_Oct_10_1402,Experimento,3.2.3,60.13299578564849,
8,14,14,999,0.5,0:10,3,,,,,,,,,0,0,0,0,,,,,,,,,,,,,,,,,,,,,,,,,,,,,,,,,,,,,,,,,,,,,,,,,,,,,,,,,,,,,,,,,,,,,,,,,,,,,,,,,,,,,,500.78588980100176,503.43170602399914,1,7.764776986994548,503.43170602399914,None,503.43170602399914,None,b,12.079973233005148,511.21220644899586,None,511.21220644899586,None,511.21220644899586,None,523.3081570229988,None,7,3.9160494149982696,523.3081570229988,None,ezequielV,001,b,2019_Oct_10_1402,Experimento,3.2.3,60.13299578564849,
