changuito_time_to_show,time_to_think,time_to_play,total_items,nback_stimulus_time,nback_training,time_to_show_tiny_stimulus,colourtest,corresp,inmediato,consciente,inconsciente,nback_slice,imagen,correcta,trials_5.thisRepN,trials_5.thisTrialN,trials_5.thisN,trials_5.thisIndex,nback_train.thisRepN,nback_train.thisTrialN,nback_train.thisN,nback_train.thisIndex,treatment_order.thisRepN,treatment_order.thisTrialN,treatment_order.thisN,treatment_order.thisIndex,trials.thisRepN,trials.thisTrialN,trials.thisN,trials.thisIndex,trials_2.thisRepN,trials_2.thisTrialN,trials_2.thisN,trials_2.thisIndex,trials_3.thisRepN,trials_3.thisTrialN,trials_3.thisN,trials_3.thisIndex,trials_4.thisRepN,trials_4.thisTrialN,trials_4.thisN,trials_4.thisIndex,Presentacion.started,Presentacion.stopped,Juego.started,Juego.stopped,image_6.started,image_6.stopped,polygon.started,polygon.stopped,nback_train_resp.keys,nback_train_resp.corr,nback_train_resp.started,nback_train_resp.stopped,nback_train_resp.rt,hola.started,hola.stopped,image_2.started,image_2.stopped,tiempo_para_pensar.started,tiempo_para_pensar.stopped,respuesta_consciente.keys,respuesta_consciente.corr,respuesta_consciente.rt,respuesta_consciente.started,respuesta_consciente.stopped,cual_es_la_mas_barata.started,cual_es_la_mas_barata.stopped,image_4.started,image_4.stopped,holi.started,holi.stopped,image_3.started,image_3.stopped,polygon_2.started,polygon_2.stopped,nback_train_resp_2.keys,nback_train_resp_2.corr,nback_train_resp_2.started,nback_train_resp_2.stopped,nback_train_resp_2.rt,text_2.started,text_2.stopped,key_resp.keys,key_resp.corr,key_resp.rt,key_resp.started,key_resp.stopped,image_5.started,image_5.stopped,text.started,text.stopped,image.started,image.stopped,respuesta_inmediato.keys,respuesta_inmediato.corr,respuesta_inmediato.rt,respuesta_inmediato.started,respuesta_inmediato.stopped,pregunta_cual_es_el_mas_barato.started,pregunta_cual_es_el_mas_barato.stopped,short_stim1.started,short_stim1.stopped,gracias.started,gracias.stopped,respuesta1.keys,respuesta1.rt,respuesta1.started,respuesta1.stopped,pregunta1.started,pregunta1.stopped,respuesta3bis_3.keys,respuesta3bis_3.rt,respuesta3bis_3.started,respuesta3bis_3.stopped,pregunta3_3.started,pregunta3_3.stopped,productoCon3RANGOSabc_3.started,productoCon3RANGOSabc_3.stopped,text_3.started,text_3.stopped,key_resp_2.keys,key_resp_2.rt,key_resp_2.started,key_resp_2.stopped,participant,session,group,date,expName,psychopyVersion,frameRate,
8,14,14,999,0.5,0:10,3,White,None,,,,,,,0,0,0,0,0,0,0,0,,,,,,,,,,,,,,,,,,,,,10.914633114996832,None,24.425264922996575,None,24.425264922996575,None,48.74299354100367,49.245432278003136,None,1,48.74299354100367,None,,,,,,,,,,,,,,,,,,,,,,,,,,,,,,,,,,,,,,,,,,,,,,,,,,,,,,,,,,,,,,,,,,,,,,,,guilleG,001,a,2019_Nov_08_1140,Experimento,3.2.3,60.04541510835476,
8,14,14,999,0.5,0:10,3,Red,None,,,,,,,0,0,0,0,0,1,1,1,,,,,,,,,,,,,,,,,,,,,,,,,,,50.74434646000009,51.24449266400188,None,1,50.74434646000009,50.74434646000009,,,,,,,,,,,,,,,,,,,,,,,,,,,,,,,,,,,,,,,,,,,,,,,,,,,,,,,,,,,,,,,,,,,,,,,,guilleG,001,a,2019_Nov_08_1140,Experimento,3.2.3,60.04541510835476,
8,14,14,999,0.5,0:10,3,Magenta,None,,,,,,,0,0,0,0,0,2,2,2,,,,,,,,,,,,,,,,,,,,,,,,,,,52.743789079002454,53.24359777900099,None,1,52.743789079002454,52.743789079002454,,,,,,,,,,,,,,,,,,,,,,,,,,,,,,,,,,,,,,,,,,,,,,,,,,,,,,,,,,,,,,,,,,,,,,,,guilleG,001,a,2019_Nov_08_1140,Experimento,3.2.3,60.04541510835476,
8,14,14,999,0.5,0:10,3,Cyan,None,,,,,,,0,0,0,0,0,3,3,3,,,,,,,,,,,,,,,,,,,,,,,,,,,54.74290669600305,55.24274815699755,None,1,54.74290669600305,54.74290669600305,,,,,,,,,,,,,,,,,,,,,,,,,,,,,,,,,,,,,,,,,,,,,,,,,,,,,,,,,,,,,,,,,,,,,,,,guilleG,001,a,2019_Nov_08_1140,Experimento,3.2.3,60.04541510835476,
8,14,14,999,0.5,0:10,3,Magenta,['space'],,,,,,,0,0,0,0,0,4,4,4,,,,,,,,,,,,,,,,,,,,,,,,,,,56.742049774002226,57.24193794599705,['return'],0,56.742049774002226,56.742049774002226,[0.917085932000191],,,,,,,,,,,,,,,,,,,,,,,,,,,,,,,,,,,,,,,,,,,,,,,,,,,,,,,,,,,,,,,,,,,,,,,guilleG,001,a,2019_Nov_08_1140,Experimento,3.2.3,60.04541510835476,
8,14,14,999,0.5,0:10,3,Green,None,,,,,,,0,0,0,0,0,5,5,5,,,,,,,,,,,,,,,,,,,,,,,,,,,58.74096625800303,59.241081264997774,None,1,58.74096625800303,58.74096625800303,,,,,,,,,,,,,,,,,,,,,,,,,,,,,,,,,,,,,,,,,,,,,,,,,,,,,,,,,,,,,,,,,,,,,,,,guilleG,001,a,2019_Nov_08_1140,Experimento,3.2.3,60.04541510835476,
8,14,14,999,0.5,0:10,3,White,None,,,,,,,0,0,0,0,0,6,6,6,,,,,,,,,,,,,,,,,,,,,,,,,,,60.74046335500316,61.24026731400227,None,1,60.74046335500316,60.74046335500316,,,,,,,,,,,,,,,,,,,,,,,,,,,,,,,,,,,,,,,,,,,,,,,,,,,,,,,,,,,,,,,,,,,,,,,,guilleG,001,a,2019_Nov_08_1140,Experimento,3.2.3,60.04541510835476,
8,14,14,999,0.5,0:10,3,Green,['space'],,,,,,,0,0,0,0,0,7,7,7,,,,,,,,,,,,,,,,,,,,,,,,,,,62.73964512599923,63.239501099000336,None,0,62.73964512599923,62.73964512599923,,,,,,,,,,,,,,,,,,,,,,,,,,,,,,,,,,,,,,,,,,,,,,,,,,,,,,,,,,,,,,,,,,,,,,,,guilleG,001,a,2019_Nov_08_1140,Experimento,3.2.3,60.04541510835476,
8,14,14,999,0.5,0:10,3,Blue,None,,,,,,,0,0,0,0,0,8,8,8,,,,,,,,,,,,,,,,,,,,,,,,,,,64.73883067599672,65.2383751419984,None,1,64.73883067599672,64.73883067599672,,,,,,,,,,,,,,,,,,,,,,,,,,,,,,,,,,,,,,,,,,,,,,,,,,,,,,,,,,,,,,,,,,,,,,,,guilleG,001,a,2019_Nov_08_1140,Experimento,3.2.3,60.04541510835476,
8,14,14,999,0.5,0:10,3,Green,['space'],,,,,,,0,0,0,0,0,9,9,9,,,,,,,,,,,,,,,,,,,,,,,,,,,66.73811369000032,67.23796994100121,None,0,66.73811369000032,66.73811369000032,,,,,,,,,,,,,,,,,,,,,,,,,,,,,,,,,,,,,,,,,,,,,,,,,,,,,,,,,,,,,,,,,,,,,,,,guilleG,001,a,2019_Nov_08_1140,Experimento,3.2.3,60.04541510835476,
8,14,14,999,0.5,0:10,3,,,0,1,0,10:50,./completed_changuitos/montage_omkkr_52.95_46.0.jpg,left,0,0,0,0,,,,,0,0,0,0,,,,,0,0,0,0,,,,,,,,,,,,,,,,,,,,,,68.91535139900225,80.08315234399925,80.08315234399925,88.09776727799908,88.09776727799908,102.11065482100094,left,1,5.049337601005391,102.11065482100094,None,102.11065482100094,None,102.11065482100094,105.11010608499782,,,,,,,,,,,,,,,,,,,,,,,,,,,,,,,,,,,,,,,,,,,,,,,,,,,,,,,,guilleG,001,a,2019_Nov_08_1140,Experimento,3.2.3,60.04541510835476,
8,14,14,999,0.5,0:10,3,,,0,1,0,10:50,,,0,0,0,0,,,,,0,0,0,0,,,,,,,,,,,,,,,,,,,,,,,,,,,,,,,,,,,,,,,,,,,,,,,,,,,,,,,,,,,,,,,,,,,,,,,,,,,,,,,,,,,,,,,,,,,,,,,,,,,,guilleG,001,a,2019_Nov_08_1140,Experimento,3.2.3,60.04541510835476,
8,14,14,999,0.5,0:10,3,Yellow,None,0,0,1,15:50,./completed_changuitos/montage_tvygo_73.3_66.25.jpg,left,0,0,0,0,,,,,0,1,1,1,,,,,,,,,0,0,0,0,0,0,0,0,,,,,,,,,,,,,,,,,,,,,,,,,,,,,107.31340388699755,109.60883409799862,109.60883409799862,None,117.65196721800021,118.1569122419969,None,1,117.65196721800021,None,,,,,,,,,,,,,,,,,,,,,,,,,,,,,,,,,,,,,,,,,,,,,,guilleG,001,a,2019_Nov_08_1140,Experimento,3.2.3,60.04541510835476,
8,14,14,999,0.5,0:10,3,White,['space'],0,0,1,15:50,./completed_changuitos/montage_tvygo_73.3_66.25.jpg,left,0,0,0,0,,,,,0,1,1,1,,,,,,,,,0,0,0,0,0,1,1,1,,,,,,,,,,,,,,,,,,,,,,,,,,,,,,,,,119.65625434499816,120.15647451199766,None,0,119.65625434499816,119.65625434499816,,,,,,,,,,,,,,,,,,,,,,,,,,,,,,,,,,,,,,,,,,,,,,guilleG,001,a,2019_Nov_08_1140,Experimento,3.2.3,60.04541510835476,
8,14,14,999,0.5,0:10,3,Magenta,None,0,0,1,15:50,./completed_changuitos/montage_tvygo_73.3_66.25.jpg,left,0,0,0,0,,,,,0,1,1,1,,,,,,,,,0,0,0,0,0,2,2,2,,,,,,,,,,,,,,,,,,,,,,,,,,,,,,,,,121.6558107469973,122.15605341499759,None,1,121.6558107469973,121.6558107469973,,,,,,,,,,,,,,,,,,,,,,,,,,,,,,,,,,,,,,,,,,,,,,guilleG,001,a,2019_Nov_08_1140,Experimento,3.2.3,60.04541510835476,
8,14,14,999,0.5,0:10,3,Cyan,None,0,0,1,15:50,./completed_changuitos/montage_tvygo_73.3_66.25.jpg,left,0,0,0,0,,,,,0,1,1,1,,,,,,,,,0,0,0,0,0,3,3,3,,,,,,,,,,,,,,,,,,,,,,,,,,,,,,,,,123.65540240900009,124.15534917199693,None,1,123.65540240900009,123.65540240900009,,,,,,,,,,,,,,,,,,,,,,,,,,,,,,,,,,,,,,,,,,,,,,guilleG,001,a,2019_Nov_08_1140,Experimento,3.2.3,60.04541510835476,
8,14,14,999,0.5,0:10,3,Blue,None,0,0,1,15:50,./completed_changuitos/montage_tvygo_73.3_66.25.jpg,left,0,0,0,0,,,,,0,1,1,1,,,,,,,,,0,0,0,0,0,4,4,4,,,,,,,,,,,,,,,,,,,,,,,,,,,,,,,,,125.65498501699767,126.15526708299876,None,1,125.65498501699767,125.65498501699767,,,,,,,,,,,,,,,,,,,,,,,,,,,,,,,,,,,,,,,,,,,,,,guilleG,001,a,2019_Nov_08_1140,Experimento,3.2.3,60.04541510835476,
8,14,14,999,0.5,0:10,3,Magenta,None,0,0,1,15:50,./completed_changuitos/montage_tvygo_73.3_66.25.jpg,left,0,0,0,0,,,,,0,1,1,1,,,,,,,,,0,0,0,0,0,5,5,5,,,,,,,,,,,,,,,,,,,,,,,,,,,,,,,,,127.65493110699754,128.15484986299998,['return'],0,127.65493110699754,127.65493110699754,[0.9504434560003574],,,,,,,,,,,,,,,,,,,,,,,,,,,,,,,,,,,,,,,,,,,,,guilleG,001,a,2019_Nov_08_1140,Experimento,3.2.3,60.04541510835476,
8,14,14,999,0.5,0:10,3,Blue,['space'],0,0,1,15:50,./completed_changuitos/montage_tvygo_73.3_66.25.jpg,left,0,0,0,0,,,,,0,1,1,1,,,,,,,,,0,0,0,0,0,6,6,6,,,,,,,,,,,,,,,,,,,,,,,,,,,,,,,,,129.65444322000258,130.154472729002,['return'],0,129.65444322000258,129.65444322000258,[1.7336313220002921],,,,,,,,,,,,,,,,,,,,,,,,,,,,,,,,,,,,,,,,,,,,,guilleG,001,a,2019_Nov_08_1140,Experimento,3.2.3,60.04541510835476,
8,14,14,999,0.5,0:10,3,Cyan,None,0,0,1,15:50,./completed_changuitos/montage_tvygo_73.3_66.25.jpg,left,0,0,0,0,,,,,0,1,1,1,,,,,,,,,0,0,0,0,0,7,7,7,,,,,,,,,,,,,,,,,,,,,,,,,,,,,,,,,131.6374942912007,None,None,1,131.6374942912007,None,,,,,,,,,,,,,,,,,,,,,,,,,,,,,,,,,,,,,,,,,,,,,,guilleG,001,a,2019_Nov_08_1140,Experimento,3.2.3,60.04541510835476,
8,14,14,999,0.5,0:10,3,Yellow,None,0,0,1,15:50,./completed_changuitos/montage_tvygo_73.3_66.25.jpg,left,0,0,0,0,,,,,0,1,1,1,,,,,,,,,0,0,0,0,0,8,8,8,,,,,,,,,,,,,,,,,,,,,,,,,,,,,,,,,131.6374942912007,None,None,1,131.6374942912007,None,,,,,,,,,,,,,,,,,,,,,,,,,,,,,,,,,,,,,,,,,,,,,,guilleG,001,a,2019_Nov_08_1140,Experimento,3.2.3,60.04541510835476,
8,14,14,999,0.5,0:10,3,Cyan,None,0,0,1,15:50,./completed_changuitos/montage_tvygo_73.3_66.25.jpg,left,0,0,0,0,,,,,0,1,1,1,,,,,,,,,0,0,0,0,0,9,9,9,,,,,,,,,,,,,,,,,,,,,,,,,,,,,,,,,131.6374942912007,None,None,1,131.6374942912007,None,,,,,,,,,,,,,,,,,,,,,,,,,,,,,,,,,,,,,,,,,,,,,,guilleG,001,a,2019_Nov_08_1140,Experimento,3.2.3,60.04541510835476,
8,14,14,999,0.5,0:10,3,Blue,None,0,0,1,15:50,./completed_changuitos/montage_tvygo_73.3_66.25.jpg,left,0,0,0,0,,,,,0,1,1,1,,,,,,,,,0,0,0,0,0,10,10,10,,,,,,,,,,,,,,,,,,,,,,,,,,,,,,,,,131.6374942912007,None,None,1,131.6374942912007,None,,,,,,,,,,,,,,,,,,,,,,,,,,,,,,,,,,,,,,,,,,,,,,guilleG,001,a,2019_Nov_08_1140,Experimento,3.2.3,60.04541510835476,
8,14,14,999,0.5,0:10,3,Cyan,['space'],0,0,1,15:50,./completed_changuitos/montage_tvygo_73.3_66.25.jpg,left,0,0,0,0,,,,,0,1,1,1,,,,,,,,,0,0,0,0,0,11,11,11,,,,,,,,,,,,,,,,,,,,,,,,,,,,,,,,,131.65415285540075,None,None,0,131.65415285540075,None,,,,,,,,,,,,,,,,,,,,,,,,,,,,,,,,,,,,,,,,,,,,,,guilleG,001,a,2019_Nov_08_1140,Experimento,3.2.3,60.04541510835476,
8,14,14,999,0.5,0:10,3,Magenta,None,0,0,1,15:50,./completed_changuitos/montage_tvygo_73.3_66.25.jpg,left,0,0,0,0,,,,,0,1,1,1,,,,,,,,,0,0,0,0,0,12,12,12,,,,,,,,,,,,,,,,,,,,,,,,,,,,,,,,,131.65415285540075,None,None,1,131.65415285540075,None,,,,,,,,,,,,,,,,,,,,,,,,,,,,,,,,,,,,,,,,,,,,,,guilleG,001,a,2019_Nov_08_1140,Experimento,3.2.3,60.04541510835476,
8,14,14,999,0.5,0:10,3,Red,None,0,0,1,15:50,./completed_changuitos/montage_tvygo_73.3_66.25.jpg,left,0,0,0,0,,,,,0,1,1,1,,,,,,,,,0,0,0,0,0,13,13,13,,,,,,,,,,,,,,,,,,,,,,,,,,,,,,,,,131.65415285540075,None,None,1,131.65415285540075,None,,,,,,,,,,,,,,,,,,,,,,,,,,,,,,,,,,,,,,,,,,,,,,guilleG,001,a,2019_Nov_08_1140,Experimento,3.2.3,60.04541510835476,
8,14,14,999,0.5,0:10,3,Magenta,['space'],0,0,1,15:50,./completed_changuitos/montage_tvygo_73.3_66.25.jpg,left,0,0,0,0,,,,,0,1,1,1,,,,,,,,,0,0,0,0,0,14,14,14,,,,,,,,,,,,,,,,,,,,,,,,,,,,,,,,,131.65415285540075,None,None,0,131.65415285540075,None,,,,,,,,,,,,,,,,,,,,,,,,,,,,,,,,,,,,,,,,,,,,,,guilleG,001,a,2019_Nov_08_1140,Experimento,3.2.3,60.04541510835476,
8,14,14,999,0.5,0:10,3,Green,None,0,0,1,15:50,./completed_changuitos/montage_tvygo_73.3_66.25.jpg,left,0,0,0,0,,,,,0,1,1,1,,,,,,,,,0,0,0,0,0,15,15,15,,,,,,,,,,,,,,,,,,,,,,,,,,,,,,,,,131.65415285540075,None,None,1,131.65415285540075,None,,,,,,,,,,,,,,,,,,,,,,,,,,,,,,,,,,,,,,,,,,,,,,guilleG,001,a,2019_Nov_08_1140,Experimento,3.2.3,60.04541510835476,
8,14,14,999,0.5,0:10,3,Yellow,['space'],0,0,1,15:50,./completed_changuitos/montage_tvygo_73.3_66.25.jpg,left,0,0,0,0,,,,,0,1,1,1,,,,,,,,,0,0,0,0,0,16,16,16,,,,,,,,,,,,,,,,,,,,,,,,,,,,,,,,,131.65415285540075,None,None,0,131.65415285540075,None,,,,,,,,,,,,,,,,,,,,,,,,,,,,,,,,,,,,,,,,,,,,,,guilleG,001,a,2019_Nov_08_1140,Experimento,3.2.3,60.04541510835476,
8,14,14,999,0.5,0:10,3,Blue,None,0,0,1,15:50,./completed_changuitos/montage_tvygo_73.3_66.25.jpg,left,0,0,0,0,,,,,0,1,1,1,,,,,,,,,0,0,0,0,0,17,17,17,,,,,,,,,,,,,,,,,,,,,,,,,,,,,,,,,131.6708114196008,None,None,1,131.6708114196008,None,,,,,,,,,,,,,,,,,,,,,,,,,,,,,,,,,,,,,,,,,,,,,,guilleG,001,a,2019_Nov_08_1140,Experimento,3.2.3,60.04541510835476,
8,14,14,999,0.5,0:10,3,Cyan,None,0,0,1,15:50,./completed_changuitos/montage_tvygo_73.3_66.25.jpg,left,0,0,0,0,,,,,0,1,1,1,,,,,,,,,0,0,0,0,0,18,18,18,,,,,,,,,,,,,,,,,,,,,,,,,,,,,,,,,131.6708114196008,None,None,1,131.6708114196008,None,,,,,,,,,,,,,,,,,,,,,,,,,,,,,,,,,,,,,,,,,,,,,,guilleG,001,a,2019_Nov_08_1140,Experimento,3.2.3,60.04541510835476,
8,14,14,999,0.5,0:10,3,Blue,['space'],0,0,1,15:50,./completed_changuitos/montage_tvygo_73.3_66.25.jpg,left,0,0,0,0,,,,,0,1,1,1,,,,,,,,,0,0,0,0,0,19,19,19,,,,,,,,,,,,,,,,,,,,,,,,,,,,,,,,,131.6708114196008,None,None,0,131.6708114196008,None,,,,,,,,,,,,,,,,,,,,,,,,,,,,,,,,,,,,,,,,,,,,,,guilleG,001,a,2019_Nov_08_1140,Experimento,3.2.3,60.04541510835476,
8,14,14,999,0.5,0:10,3,Yellow,None,0,0,1,15:50,./completed_changuitos/montage_tvygo_73.3_66.25.jpg,left,0,0,0,0,,,,,0,1,1,1,,,,,,,,,0,0,0,0,0,20,20,20,,,,,,,,,,,,,,,,,,,,,,,,,,,,,,,,,131.6708114196008,None,None,1,131.6708114196008,None,,,,,,,,,,,,,,,,,,,,,,,,,,,,,,,,,,,,,,,,,,,,,,guilleG,001,a,2019_Nov_08_1140,Experimento,3.2.3,60.04541510835476,
8,14,14,999,0.5,0:10,3,Cyan,None,0,0,1,15:50,./completed_changuitos/montage_tvygo_73.3_66.25.jpg,left,0,0,0,0,,,,,0,1,1,1,,,,,,,,,0,0,0,0,0,21,21,21,,,,,,,,,,,,,,,,,,,,,,,,,,,,,,,,,131.6708114196008,None,None,1,131.6708114196008,None,,,,,,,,,,,,,,,,,,,,,,,,,,,,,,,,,,,,,,,,,,,,,,guilleG,001,a,2019_Nov_08_1140,Experimento,3.2.3,60.04541510835476,
8,14,14,999,0.5,0:10,3,Yellow,['space'],0,0,1,15:50,./completed_changuitos/montage_tvygo_73.3_66.25.jpg,left,0,0,0,0,,,,,0,1,1,1,,,,,,,,,0,0,0,0,0,22,22,22,,,,,,,,,,,,,,,,,,,,,,,,,,,,,,,,,131.6708114196008,None,None,0,131.6708114196008,None,,,,,,,,,,,,,,,,,,,,,,,,,,,,,,,,,,,,,,,,,,,,,,guilleG,001,a,2019_Nov_08_1140,Experimento,3.2.3,60.04541510835476,
8,14,14,999,0.5,0:10,3,Magenta,None,0,0,1,15:50,./completed_changuitos/montage_tvygo_73.3_66.25.jpg,left,0,0,0,0,,,,,0,1,1,1,,,,,,,,,0,0,0,0,0,23,23,23,,,,,,,,,,,,,,,,,,,,,,,,,,,,,,,,,131.6708114196008,None,None,1,131.6708114196008,None,,,,,,,,,,,,,,,,,,,,,,,,,,,,,,,,,,,,,,,,,,,,,,guilleG,001,a,2019_Nov_08_1140,Experimento,3.2.3,60.04541510835476,
8,14,14,999,0.5,0:10,3,Red,None,0,0,1,15:50,./completed_changuitos/montage_tvygo_73.3_66.25.jpg,left,0,0,0,0,,,,,0,1,1,1,,,,,,,,,0,0,0,0,0,24,24,24,,,,,,,,,,,,,,,,,,,,,,,,,,,,,,,,,131.6708114196008,None,None,1,131.6708114196008,None,,,,,,,,,,,,,,,,,,,,,,,,,,,,,,,,,,,,,,,,,,,,,,guilleG,001,a,2019_Nov_08_1140,Experimento,3.2.3,60.04541510835476,
8,14,14,999,0.5,0:10,3,Magenta,['space'],0,0,1,15:50,./completed_changuitos/montage_tvygo_73.3_66.25.jpg,left,0,0,0,0,,,,,0,1,1,1,,,,,,,,,0,0,0,0,0,25,25,25,,,,,,,,,,,,,,,,,,,,,,,,,,,,,,,,,131.6708114196008,None,None,0,131.6708114196008,None,,,,,,,,,,,,,,,,,,,,,,,,,,,,,,,,,,,,,,,,,,,,,,guilleG,001,a,2019_Nov_08_1140,Experimento,3.2.3,60.04541510835476,
8,14,14,999,0.5,0:10,3,Red,['space'],0,0,1,15:50,./completed_changuitos/montage_tvygo_73.3_66.25.jpg,left,0,0,0,0,,,,,0,1,1,1,,,,,,,,,0,0,0,0,0,26,26,26,,,,,,,,,,,,,,,,,,,,,,,,,,,,,,,,,131.6708114196008,None,None,0,131.6708114196008,None,,,,,,,,,,,,,,,,,,,,,,,,,,,,,,,,,,,,,,,,,,,,,,guilleG,001,a,2019_Nov_08_1140,Experimento,3.2.3,60.04541510835476,
8,14,14,999,0.5,0:10,3,Yellow,None,0,0,1,15:50,./completed_changuitos/montage_tvygo_73.3_66.25.jpg,left,0,0,0,0,,,,,0,1,1,1,,,,,,,,,0,0,0,0,0,27,27,27,,,,,,,,,,,,,,,,,,,,,,,,,,,,,,,,,131.6708114196008,None,None,1,131.6708114196008,None,,,,,,,,,,,,,,,,,,,,,,,,,,,,,,,,,,,,,,,,,,,,,,guilleG,001,a,2019_Nov_08_1140,Experimento,3.2.3,60.04541510835476,
8,14,14,999,0.5,0:10,3,Cyan,None,0,0,1,15:50,./completed_changuitos/montage_tvygo_73.3_66.25.jpg,left,0,0,0,0,,,,,0,1,1,1,,,,,,,,,0,0,0,0,0,28,28,28,,,,,,,,,,,,,,,,,,,,,,,,,,,,,,,,,131.6708114196008,None,None,1,131.6708114196008,None,,,,,,,,,,,,,,,,,,,,,,,,,,,,,,,,,,,,,,,,,,,,,,guilleG,001,a,2019_Nov_08_1140,Experimento,3.2.3,60.04541510835476,
8,14,14,999,0.5,0:10,3,Green,None,0,0,1,15:50,./completed_changuitos/montage_tvygo_73.3_66.25.jpg,left,0,0,0,0,,,,,0,1,1,1,,,,,,,,,0,0,0,0,0,29,29,29,,,,,,,,,,,,,,,,,,,,,,,,,,,,,,,,,131.68746998380084,None,None,1,131.68746998380084,None,,,,,,,,,,,,,,,,,,,,,,,,,,,,,,,,,,,,,,,,,,,,,,guilleG,001,a,2019_Nov_08_1140,Experimento,3.2.3,60.04541510835476,
8,14,14,999,0.5,0:10,3,White,None,0,0,1,15:50,./completed_changuitos/montage_tvygo_73.3_66.25.jpg,left,0,0,0,0,,,,,0,1,1,1,,,,,,,,,0,0,0,0,0,30,30,30,,,,,,,,,,,,,,,,,,,,,,,,,,,,,,,,,131.68746998380084,None,None,1,131.68746998380084,None,,,,,,,,,,,,,,,,,,,,,,,,,,,,,,,,,,,,,,,,,,,,,,guilleG,001,a,2019_Nov_08_1140,Experimento,3.2.3,60.04541510835476,
8,14,14,999,0.5,0:10,3,Green,['space'],0,0,1,15:50,./completed_changuitos/montage_tvygo_73.3_66.25.jpg,left,0,0,0,0,,,,,0,1,1,1,,,,,,,,,0,0,0,0,0,31,31,31,,,,,,,,,,,,,,,,,,,,,,,,,,,,,,,,,131.68746998380084,None,None,0,131.68746998380084,None,,,,,,,,,,,,,,,,,,,,,,,,,,,,,,,,,,,,,,,,,,,,,,guilleG,001,a,2019_Nov_08_1140,Experimento,3.2.3,60.04541510835476,
8,14,14,999,0.5,0:10,3,Red,None,0,0,1,15:50,./completed_changuitos/montage_tvygo_73.3_66.25.jpg,left,0,0,0,0,,,,,0,1,1,1,,,,,,,,,0,0,0,0,0,32,32,32,,,,,,,,,,,,,,,,,,,,,,,,,,,,,,,,,131.68746998380084,None,None,1,131.68746998380084,None,,,,,,,,,,,,,,,,,,,,,,,,,,,,,,,,,,,,,,,,,,,,,,guilleG,001,a,2019_Nov_08_1140,Experimento,3.2.3,60.04541510835476,
8,14,14,999,0.5,0:10,3,Blue,None,0,0,1,15:50,./completed_changuitos/montage_tvygo_73.3_66.25.jpg,left,0,0,0,0,,,,,0,1,1,1,,,,,,,,,0,0,0,0,0,33,33,33,,,,,,,,,,,,,,,,,,,,,,,,,,,,,,,,,131.68746998380084,None,None,1,131.68746998380084,None,,,,,,,,,,,,,,,,,,,,,,,,,,,,,,,,,,,,,,,,,,,,,,guilleG,001,a,2019_Nov_08_1140,Experimento,3.2.3,60.04541510835476,
8,14,14,999,0.5,0:10,3,Green,None,0,0,1,15:50,./completed_changuitos/montage_tvygo_73.3_66.25.jpg,left,0,0,0,0,,,,,0,1,1,1,,,,,,,,,0,0,0,0,0,34,34,34,,,,,,,,,,,,,,,,,,,,,,,,,,,,,,,,,131.68746998380084,None,None,1,131.68746998380084,None,,,,,,,,,,,,,,,,,,,,,,,,,,,,,,,,,,,,,,,,,,,,,,guilleG,001,a,2019_Nov_08_1140,Experimento,3.2.3,60.04541510835476,
8,14,14,999,0.5,0:10,3,,,0,0,1,15:50,./completed_changuitos/montage_tvygo_73.3_66.25.jpg,left,0,0,0,0,,,,,0,1,1,1,,,,,,,,,0,0,0,0,,,,,,,,,,,,,,,,,,,,,,,,,,,,,,,,,,,,,,,,,,,,131.7220400869992,None,left,1,2.5315579929956584,131.7220400869992,None,131.7220400869992,None,,,,,,,,,,,,,,,,,,,,,,,,,,,,,,,,,,,,guilleG,001,a,2019_Nov_08_1140,Experimento,3.2.3,60.04541510835476,
8,14,14,999,0.5,0:10,3,,,0,0,1,15:50,,,0,0,0,0,,,,,0,1,1,1,,,,,,,,,,,,,,,,,,,,,,,,,,,,,,,,,,,,,,,,,,,,,,,,,,,,,,,,,,,,,,,,,,,,,,,,,,,,,,,,,,,,,,,,,,,,,,,,,,,,guilleG,001,a,2019_Nov_08_1140,Experimento,3.2.3,60.04541510835476,
8,14,14,999,0.5,0:10,3,,,0,1,0,19:50,./completed_changuitos/montage_vvujb_215.09_243.95.jpg,right,0,0,0,0,,,,,0,2,2,2,,,,,0,0,0,0,,,,,,,,,,,,,,,,,,,,,,134.39865984999778,136.18643921799958,136.18643921799958,144.2018982610025,144.2018982610025,158.21626760999789,right,1,1.7835731739978655,158.21626760999789,None,158.21626760999789,None,158.21626760999789,None,,,,,,,,,,,,,,,,,,,,,,,,,,,,,,,,,,,,,,,,,,,,,,,,,,,,,,,,guilleG,001,a,2019_Nov_08_1140,Experimento,3.2.3,60.04541510835476,
8,14,14,999,0.5,0:10,3,,,0,1,0,19:50,,,0,0,0,0,,,,,0,2,2,2,,,,,,,,,,,,,,,,,,,,,,,,,,,,,,,,,,,,,,,,,,,,,,,,,,,,,,,,,,,,,,,,,,,,,,,,,,,,,,,,,,,,,,,,,,,,,,,,,,,,guilleG,001,a,2019_Nov_08_1140,Experimento,3.2.3,60.04541510835476,
8,14,14,999,0.5,0:10,3,Magenta,None,0,0,1,20:50,./completed_changuitos/montage_fkqfz_47.09_54.49.jpg,right,0,0,0,0,,,,,0,3,3,3,,,,,,,,,0,0,0,0,0,0,0,0,,,,,,,,,,,,,,,,,,,,,,,,,,,,,160.13012563299708,161.59909479400085,161.59909479400085,None,169.64143088900164,170.1477744820004,None,1,169.64143088900164,None,,,,,,,,,,,,,,,,,,,,,,,,,,,,,,,,,,,,,,,,,,,,,,guilleG,001,a,2019_Nov_08_1140,Experimento,3.2.3,60.04541510835476,
8,14,14,999,0.5,0:10,3,Blue,['space'],0,0,1,20:50,./completed_changuitos/montage_fkqfz_47.09_54.49.jpg,right,0,0,0,0,,,,,0,3,3,3,,,,,,,,,0,0,0,0,0,1,1,1,,,,,,,,,,,,,,,,,,,,,,,,,,,,,,,,,171.6474844300028,172.1475403939985,None,0,171.6474844300028,171.6474844300028,,,,,,,,,,,,,,,,,,,,,,,,,,,,,,,,,,,,,,,,,,,,,,guilleG,001,a,2019_Nov_08_1140,Experimento,3.2.3,60.04541510835476,
8,14,14,999,0.5,0:10,3,Cyan,None,0,0,1,20:50,./completed_changuitos/montage_fkqfz_47.09_54.49.jpg,right,0,0,0,0,,,,,0,3,3,3,,,,,,,,,0,0,0,0,0,2,2,2,,,,,,,,,,,,,,,,,,,,,,,,,,,,,,,,,173.6472763749989,174.14724645800015,None,1,173.6472763749989,173.6472763749989,,,,,,,,,,,,,,,,,,,,,,,,,,,,,,,,,,,,,,,,,,,,,,guilleG,001,a,2019_Nov_08_1140,Experimento,3.2.3,60.04541510835476,
8,14,14,999,0.5,0:10,3,Yellow,None,0,0,1,20:50,./completed_changuitos/montage_fkqfz_47.09_54.49.jpg,right,0,0,0,0,,,,,0,3,3,3,,,,,,,,,0,0,0,0,0,3,3,3,,,,,,,,,,,,,,,,,,,,,,,,,,,,,,,,,175.64696590999665,176.14694949299883,None,1,175.64696590999665,175.64696590999665,,,,,,,,,,,,,,,,,,,,,,,,,,,,,,,,,,,,,,,,,,,,,,guilleG,001,a,2019_Nov_08_1140,Experimento,3.2.3,60.04541510835476,
8,14,14,999,0.5,0:10,3,Cyan,None,0,0,1,20:50,./completed_changuitos/montage_fkqfz_47.09_54.49.jpg,right,0,0,0,0,,,,,0,3,3,3,,,,,,,,,0,0,0,0,0,4,4,4,,,,,,,,,,,,,,,,,,,,,,,,,,,,,,,,,177.6467030490021,178.14666395499808,None,1,177.6467030490021,177.6467030490021,,,,,,,,,,,,,,,,,,,,,,,,,,,,,,,,,,,,,,,,,,,,,,guilleG,001,a,2019_Nov_08_1140,Experimento,3.2.3,60.04541510835476,
8,14,14,999,0.5,0:10,3,Blue,None,0,0,1,20:50,./completed_changuitos/montage_fkqfz_47.09_54.49.jpg,right,0,0,0,0,,,,,0,3,3,3,,,,,,,,,0,0,0,0,0,5,5,5,,,,,,,,,,,,,,,,,,,,,,,,,,,,,,,,,179.6463659900037,180.14647074400273,['return'],0,179.6463659900037,179.6463659900037,[1.7504974760013283],,,,,,,,,,,,,,,,,,,,,,,,,,,,,,,,,,,,,,,,,,,,,guilleG,001,a,2019_Nov_08_1140,Experimento,3.2.3,60.04541510835476,
8,14,14,999,0.5,0:10,3,Cyan,['space'],0,0,1,20:50,./completed_changuitos/montage_fkqfz_47.09_54.49.jpg,right,0,0,0,0,,,,,0,3,3,3,,,,,,,,,0,0,0,0,0,6,6,6,,,,,,,,,,,,,,,,,,,,,,,,,,,,,,,,,181.64611875399714,182.14615031299763,['return'],0,181.64611875399714,181.64611875399714,[1.669158745004097],,,,,,,,,,,,,,,,,,,,,,,,,,,,,,,,,,,,,,,,,,,,,guilleG,001,a,2019_Nov_08_1140,Experimento,3.2.3,60.04541510835476,
8,14,14,999,0.5,0:10,3,Magenta,None,0,0,1,20:50,./completed_changuitos/montage_fkqfz_47.09_54.49.jpg,right,0,0,0,0,,,,,0,3,3,3,,,,,,,,,0,0,0,0,0,7,7,7,,,,,,,,,,,,,,,,,,,,,,,,,,,,,,,,,183.62890339620208,None,None,1,183.62890339620208,None,,,,,,,,,,,,,,,,,,,,,,,,,,,,,,,,,,,,,,,,,,,,,,guilleG,001,a,2019_Nov_08_1140,Experimento,3.2.3,60.04541510835476,
8,14,14,999,0.5,0:10,3,Red,None,0,0,1,20:50,./completed_changuitos/montage_fkqfz_47.09_54.49.jpg,right,0,0,0,0,,,,,0,3,3,3,,,,,,,,,0,0,0,0,0,8,8,8,,,,,,,,,,,,,,,,,,,,,,,,,,,,,,,,,183.62890339620208,None,None,1,183.62890339620208,None,,,,,,,,,,,,,,,,,,,,,,,,,,,,,,,,,,,,,,,,,,,,,,guilleG,001,a,2019_Nov_08_1140,Experimento,3.2.3,60.04541510835476,
8,14,14,999,0.5,0:10,3,Magenta,['space'],0,0,1,20:50,./completed_changuitos/montage_fkqfz_47.09_54.49.jpg,right,0,0,0,0,,,,,0,3,3,3,,,,,,,,,0,0,0,0,0,9,9,9,,,,,,,,,,,,,,,,,,,,,,,,,,,,,,,,,183.62890339620208,None,None,0,183.62890339620208,None,,,,,,,,,,,,,,,,,,,,,,,,,,,,,,,,,,,,,,,,,,,,,,guilleG,001,a,2019_Nov_08_1140,Experimento,3.2.3,60.04541510835476,
8,14,14,999,0.5,0:10,3,Green,None,0,0,1,20:50,./completed_changuitos/montage_fkqfz_47.09_54.49.jpg,right,0,0,0,0,,,,,0,3,3,3,,,,,,,,,0,0,0,0,0,10,10,10,,,,,,,,,,,,,,,,,,,,,,,,,,,,,,,,,183.62890339620208,None,None,1,183.62890339620208,None,,,,,,,,,,,,,,,,,,,,,,,,,,,,,,,,,,,,,,,,,,,,,,guilleG,001,a,2019_Nov_08_1140,Experimento,3.2.3,60.04541510835476,
8,14,14,999,0.5,0:10,3,Yellow,['space'],0,0,1,20:50,./completed_changuitos/montage_fkqfz_47.09_54.49.jpg,right,0,0,0,0,,,,,0,3,3,3,,,,,,,,,0,0,0,0,0,11,11,11,,,,,,,,,,,,,,,,,,,,,,,,,,,,,,,,,183.62890339620208,None,None,0,183.62890339620208,None,,,,,,,,,,,,,,,,,,,,,,,,,,,,,,,,,,,,,,,,,,,,,,guilleG,001,a,2019_Nov_08_1140,Experimento,3.2.3,60.04541510835476,
8,14,14,999,0.5,0:10,3,Blue,None,0,0,1,20:50,./completed_changuitos/montage_fkqfz_47.09_54.49.jpg,right,0,0,0,0,,,,,0,3,3,3,,,,,,,,,0,0,0,0,0,12,12,12,,,,,,,,,,,,,,,,,,,,,,,,,,,,,,,,,183.62890339620208,None,None,1,183.62890339620208,None,,,,,,,,,,,,,,,,,,,,,,,,,,,,,,,,,,,,,,,,,,,,,,guilleG,001,a,2019_Nov_08_1140,Experimento,3.2.3,60.04541510835476,
8,14,14,999,0.5,0:10,3,Cyan,None,0,0,1,20:50,./completed_changuitos/montage_fkqfz_47.09_54.49.jpg,right,0,0,0,0,,,,,0,3,3,3,,,,,,,,,0,0,0,0,0,13,13,13,,,,,,,,,,,,,,,,,,,,,,,,,,,,,,,,,183.62890339620208,None,None,1,183.62890339620208,None,,,,,,,,,,,,,,,,,,,,,,,,,,,,,,,,,,,,,,,,,,,,,,guilleG,001,a,2019_Nov_08_1140,Experimento,3.2.3,60.04541510835476,
8,14,14,999,0.5,0:10,3,Blue,['space'],0,0,1,20:50,./completed_changuitos/montage_fkqfz_47.09_54.49.jpg,right,0,0,0,0,,,,,0,3,3,3,,,,,,,,,0,0,0,0,0,14,14,14,,,,,,,,,,,,,,,,,,,,,,,,,,,,,,,,,183.62890339620208,None,None,0,183.62890339620208,None,,,,,,,,,,,,,,,,,,,,,,,,,,,,,,,,,,,,,,,,,,,,,,guilleG,001,a,2019_Nov_08_1140,Experimento,3.2.3,60.04541510835476,
8,14,14,999,0.5,0:10,3,Yellow,None,0,0,1,20:50,./completed_changuitos/montage_fkqfz_47.09_54.49.jpg,right,0,0,0,0,,,,,0,3,3,3,,,,,,,,,0,0,0,0,0,15,15,15,,,,,,,,,,,,,,,,,,,,,,,,,,,,,,,,,183.62890339620208,None,None,1,183.62890339620208,None,,,,,,,,,,,,,,,,,,,,,,,,,,,,,,,,,,,,,,,,,,,,,,guilleG,001,a,2019_Nov_08_1140,Experimento,3.2.3,60.04541510835476,
8,14,14,999,0.5,0:10,3,Cyan,None,0,0,1,20:50,./completed_changuitos/montage_fkqfz_47.09_54.49.jpg,right,0,0,0,0,,,,,0,3,3,3,,,,,,,,,0,0,0,0,0,16,16,16,,,,,,,,,,,,,,,,,,,,,,,,,,,,,,,,,183.62890339620208,None,None,1,183.62890339620208,None,,,,,,,,,,,,,,,,,,,,,,,,,,,,,,,,,,,,,,,,,,,,,,guilleG,001,a,2019_Nov_08_1140,Experimento,3.2.3,60.04541510835476,
8,14,14,999,0.5,0:10,3,Yellow,['space'],0,0,1,20:50,./completed_changuitos/montage_fkqfz_47.09_54.49.jpg,right,0,0,0,0,,,,,0,3,3,3,,,,,,,,,0,0,0,0,0,17,17,17,,,,,,,,,,,,,,,,,,,,,,,,,,,,,,,,,183.62890339620208,None,None,0,183.62890339620208,None,,,,,,,,,,,,,,,,,,,,,,,,,,,,,,,,,,,,,,,,,,,,,,guilleG,001,a,2019_Nov_08_1140,Experimento,3.2.3,60.04541510835476,
8,14,14,999,0.5,0:10,3,Magenta,None,0,0,1,20:50,./completed_changuitos/montage_fkqfz_47.09_54.49.jpg,right,0,0,0,0,,,,,0,3,3,3,,,,,,,,,0,0,0,0,0,18,18,18,,,,,,,,,,,,,,,,,,,,,,,,,,,,,,,,,183.62890339620208,None,None,1,183.62890339620208,None,,,,,,,,,,,,,,,,,,,,,,,,,,,,,,,,,,,,,,,,,,,,,,guilleG,001,a,2019_Nov_08_1140,Experimento,3.2.3,60.04541510835476,
8,14,14,999,0.5,0:10,3,Red,None,0,0,1,20:50,./completed_changuitos/montage_fkqfz_47.09_54.49.jpg,right,0,0,0,0,,,,,0,3,3,3,,,,,,,,,0,0,0,0,0,19,19,19,,,,,,,,,,,,,,,,,,,,,,,,,,,,,,,,,183.64556196040212,None,None,1,183.64556196040212,None,,,,,,,,,,,,,,,,,,,,,,,,,,,,,,,,,,,,,,,,,,,,,,guilleG,001,a,2019_Nov_08_1140,Experimento,3.2.3,60.04541510835476,
8,14,14,999,0.5,0:10,3,Magenta,['space'],0,0,1,20:50,./completed_changuitos/montage_fkqfz_47.09_54.49.jpg,right,0,0,0,0,,,,,0,3,3,3,,,,,,,,,0,0,0,0,0,20,20,20,,,,,,,,,,,,,,,,,,,,,,,,,,,,,,,,,183.64556196040212,None,None,0,183.64556196040212,None,,,,,,,,,,,,,,,,,,,,,,,,,,,,,,,,,,,,,,,,,,,,,,guilleG,001,a,2019_Nov_08_1140,Experimento,3.2.3,60.04541510835476,
8,14,14,999,0.5,0:10,3,Red,['space'],0,0,1,20:50,./completed_changuitos/montage_fkqfz_47.09_54.49.jpg,right,0,0,0,0,,,,,0,3,3,3,,,,,,,,,0,0,0,0,0,21,21,21,,,,,,,,,,,,,,,,,,,,,,,,,,,,,,,,,183.64556196040212,None,None,0,183.64556196040212,None,,,,,,,,,,,,,,,,,,,,,,,,,,,,,,,,,,,,,,,,,,,,,,guilleG,001,a,2019_Nov_08_1140,Experimento,3.2.3,60.04541510835476,
8,14,14,999,0.5,0:10,3,Yellow,None,0,0,1,20:50,./completed_changuitos/montage_fkqfz_47.09_54.49.jpg,right,0,0,0,0,,,,,0,3,3,3,,,,,,,,,0,0,0,0,0,22,22,22,,,,,,,,,,,,,,,,,,,,,,,,,,,,,,,,,183.64556196040212,None,None,1,183.64556196040212,None,,,,,,,,,,,,,,,,,,,,,,,,,,,,,,,,,,,,,,,,,,,,,,guilleG,001,a,2019_Nov_08_1140,Experimento,3.2.3,60.04541510835476,
8,14,14,999,0.5,0:10,3,Cyan,None,0,0,1,20:50,./completed_changuitos/montage_fkqfz_47.09_54.49.jpg,right,0,0,0,0,,,,,0,3,3,3,,,,,,,,,0,0,0,0,0,23,23,23,,,,,,,,,,,,,,,,,,,,,,,,,,,,,,,,,183.64556196040212,None,None,1,183.64556196040212,None,,,,,,,,,,,,,,,,,,,,,,,,,,,,,,,,,,,,,,,,,,,,,,guilleG,001,a,2019_Nov_08_1140,Experimento,3.2.3,60.04541510835476,
8,14,14,999,0.5,0:10,3,Green,None,0,0,1,20:50,./completed_changuitos/montage_fkqfz_47.09_54.49.jpg,right,0,0,0,0,,,,,0,3,3,3,,,,,,,,,0,0,0,0,0,24,24,24,,,,,,,,,,,,,,,,,,,,,,,,,,,,,,,,,183.64556196040212,None,None,1,183.64556196040212,None,,,,,,,,,,,,,,,,,,,,,,,,,,,,,,,,,,,,,,,,,,,,,,guilleG,001,a,2019_Nov_08_1140,Experimento,3.2.3,60.04541510835476,
8,14,14,999,0.5,0:10,3,White,None,0,0,1,20:50,./completed_changuitos/montage_fkqfz_47.09_54.49.jpg,right,0,0,0,0,,,,,0,3,3,3,,,,,,,,,0,0,0,0,0,25,25,25,,,,,,,,,,,,,,,,,,,,,,,,,,,,,,,,,183.64556196040212,None,None,1,183.64556196040212,None,,,,,,,,,,,,,,,,,,,,,,,,,,,,,,,,,,,,,,,,,,,,,,guilleG,001,a,2019_Nov_08_1140,Experimento,3.2.3,60.04541510835476,
8,14,14,999,0.5,0:10,3,Green,['space'],0,0,1,20:50,./completed_changuitos/montage_fkqfz_47.09_54.49.jpg,right,0,0,0,0,,,,,0,3,3,3,,,,,,,,,0,0,0,0,0,26,26,26,,,,,,,,,,,,,,,,,,,,,,,,,,,,,,,,,183.64556196040212,None,None,0,183.64556196040212,None,,,,,,,,,,,,,,,,,,,,,,,,,,,,,,,,,,,,,,,,,,,,,,guilleG,001,a,2019_Nov_08_1140,Experimento,3.2.3,60.04541510835476,
8,14,14,999,0.5,0:10,3,Red,None,0,0,1,20:50,./completed_changuitos/montage_fkqfz_47.09_54.49.jpg,right,0,0,0,0,,,,,0,3,3,3,,,,,,,,,0,0,0,0,0,27,27,27,,,,,,,,,,,,,,,,,,,,,,,,,,,,,,,,,183.64556196040212,None,None,1,183.64556196040212,None,,,,,,,,,,,,,,,,,,,,,,,,,,,,,,,,,,,,,,,,,,,,,,guilleG,001,a,2019_Nov_08_1140,Experimento,3.2.3,60.04541510835476,
8,14,14,999,0.5,0:10,3,Blue,None,0,0,1,20:50,./completed_changuitos/montage_fkqfz_47.09_54.49.jpg,right,0,0,0,0,,,,,0,3,3,3,,,,,,,,,0,0,0,0,0,28,28,28,,,,,,,,,,,,,,,,,,,,,,,,,,,,,,,,,183.64556196040212,None,None,1,183.64556196040212,None,,,,,,,,,,,,,,,,,,,,,,,,,,,,,,,,,,,,,,,,,,,,,,guilleG,001,a,2019_Nov_08_1140,Experimento,3.2.3,60.04541510835476,
8,14,14,999,0.5,0:10,3,Green,None,0,0,1,20:50,./completed_changuitos/montage_fkqfz_47.09_54.49.jpg,right,0,0,0,0,,,,,0,3,3,3,,,,,,,,,0,0,0,0,0,29,29,29,,,,,,,,,,,,,,,,,,,,,,,,,,,,,,,,,183.64556196040212,None,None,1,183.64556196040212,None,,,,,,,,,,,,,,,,,,,,,,,,,,,,,,,,,,,,,,,,,,,,,,guilleG,001,a,2019_Nov_08_1140,Experimento,3.2.3,60.04541510835476,
8,14,14,999,0.5,0:10,3,,,0,0,1,20:50,./completed_changuitos/montage_fkqfz_47.09_54.49.jpg,right,0,0,0,0,,,,,0,3,3,3,,,,,,,,,0,0,0,0,,,,,,,,,,,,,,,,,,,,,,,,,,,,,,,,,,,,,,,,,,,,183.6887738200021,None,left,0,6.1896487289996,183.6887738200021,None,183.6887738200021,186.69512578599824,,,,,,,,,,,,,,,,,,,,,,,,,,,,,,,,,,,,guilleG,001,a,2019_Nov_08_1140,Experimento,3.2.3,60.04541510835476,
8,14,14,999,0.5,0:10,3,,,0,0,1,20:50,,,0,0,0,0,,,,,0,3,3,3,,,,,,,,,,,,,,,,,,,,,,,,,,,,,,,,,,,,,,,,,,,,,,,,,,,,,,,,,,,,,,,,,,,,,,,,,,,,,,,,,,,,,,,,,,,,,,,,,,,,guilleG,001,a,2019_Nov_08_1140,Experimento,3.2.3,60.04541510835476,
8,14,14,999,0.5,0:10,3,,,0,1,0,25:50,./completed_changuitos/montage_nabpr_166.85_191.55.jpg,right,0,0,0,0,,,,,0,4,4,4,,,,,0,0,0,0,,,,,,,,,,,,,,,,,,,,,,190.0108212030027,191.39490012999886,191.39490012999886,199.41055271799996,199.41055271799996,213.42555080699822,left,0,0.8670828019967303,213.42555080699822,None,213.42555080699822,None,213.42555080699822,None,,,,,,,,,,,,,,,,,,,,,,,,,,,,,,,,,,,,,,,,,,,,,,,,,,,,,,,,guilleG,001,a,2019_Nov_08_1140,Experimento,3.2.3,60.04541510835476,
8,14,14,999,0.5,0:10,3,,,0,1,0,25:50,,,0,0,0,0,,,,,0,4,4,4,,,,,,,,,,,,,,,,,,,,,,,,,,,,,,,,,,,,,,,,,,,,,,,,,,,,,,,,,,,,,,,,,,,,,,,,,,,,,,,,,,,,,,,,,,,,,,,,,,,,guilleG,001,a,2019_Nov_08_1140,Experimento,3.2.3,60.04541510835476,
8,14,14,999,0.5,0:10,3,Red,None,0,0,1,28:50,./completed_changuitos/montage_yudlz_150.89_133.75.jpg,left,0,0,0,0,,,,,0,5,5,5,,,,,,,,,0,0,0,0,0,0,0,0,,,,,,,,,,,,,,,,,,,,,,,,,,,,,214.426283711,216.07519303500158,216.07519303500158,None,224.10295855299773,224.6075851420028,None,1,224.10295855299773,None,,,,,,,,,,,,,,,,,,,,,,,,,,,,,,,,,,,,,,,,,,,,,,guilleG,001,a,2019_Nov_08_1140,Experimento,3.2.3,60.04541510835476,
8,14,14,999,0.5,0:10,3,Magenta,['space'],0,0,1,28:50,./completed_changuitos/montage_yudlz_150.89_133.75.jpg,left,0,0,0,0,,,,,0,5,5,5,,,,,,,,,0,0,0,0,0,1,1,1,,,,,,,,,,,,,,,,,,,,,,,,,,,,,,,,,226.10728701199696,226.60737599900312,None,0,226.10728701199696,226.10728701199696,,,,,,,,,,,,,,,,,,,,,,,,,,,,,,,,,,,,,,,,,,,,,,guilleG,001,a,2019_Nov_08_1140,Experimento,3.2.3,60.04541510835476,
8,14,14,999,0.5,0:10,3,Green,None,0,0,1,28:50,./completed_changuitos/montage_yudlz_150.89_133.75.jpg,left,0,0,0,0,,,,,0,5,5,5,,,,,,,,,0,0,0,0,0,2,2,2,,,,,,,,,,,,,,,,,,,,,,,,,,,,,,,,,228.10707404799905,228.60717516000295,None,1,228.10707404799905,228.10707404799905,,,,,,,,,,,,,,,,,,,,,,,,,,,,,,,,,,,,,,,,,,,,,,guilleG,001,a,2019_Nov_08_1140,Experimento,3.2.3,60.04541510835476,
8,14,14,999,0.5,0:10,3,Yellow,['space'],0,0,1,28:50,./completed_changuitos/montage_yudlz_150.89_133.75.jpg,left,0,0,0,0,,,,,0,5,5,5,,,,,,,,,0,0,0,0,0,3,3,3,,,,,,,,,,,,,,,,,,,,,,,,,,,,,,,,,230.10655485199823,230.60689376800292,None,0,230.10655485199823,230.10655485199823,,,,,,,,,,,,,,,,,,,,,,,,,,,,,,,,,,,,,,,,,,,,,,guilleG,001,a,2019_Nov_08_1140,Experimento,3.2.3,60.04541510835476,
8,14,14,999,0.5,0:10,3,Blue,None,0,0,1,28:50,./completed_changuitos/montage_yudlz_150.89_133.75.jpg,left,0,0,0,0,,,,,0,5,5,5,,,,,,,,,0,0,0,0,0,4,4,4,,,,,,,,,,,,,,,,,,,,,,,,,,,,,,,,,232.10666188000323,232.6066654230017,None,1,232.10666188000323,232.10666188000323,,,,,,,,,,,,,,,,,,,,,,,,,,,,,,,,,,,,,,,,,,,,,,guilleG,001,a,2019_Nov_08_1140,Experimento,3.2.3,60.04541510835476,
8,14,14,999,0.5,0:10,3,Cyan,None,0,0,1,28:50,./completed_changuitos/montage_yudlz_150.89_133.75.jpg,left,0,0,0,0,,,,,0,5,5,5,,,,,,,,,0,0,0,0,0,5,5,5,,,,,,,,,,,,,,,,,,,,,,,,,,,,,,,,,234.1064519069987,234.6064770390003,None,1,234.1064519069987,234.1064519069987,,,,,,,,,,,,,,,,,,,,,,,,,,,,,,,,,,,,,,,,,,,,,,guilleG,001,a,2019_Nov_08_1140,Experimento,3.2.3,60.04541510835476,
8,14,14,999,0.5,0:10,3,Blue,['space'],0,0,1,28:50,./completed_changuitos/montage_yudlz_150.89_133.75.jpg,left,0,0,0,0,,,,,0,5,5,5,,,,,,,,,0,0,0,0,0,6,6,6,,,,,,,,,,,,,,,,,,,,,,,,,,,,,,,,,236.1063054960032,236.60623233800288,['return'],0,236.1063054960032,236.1063054960032,[0.9171989399983431],,,,,,,,,,,,,,,,,,,,,,,,,,,,,,,,,,,,,,,,,,,,,guilleG,001,a,2019_Nov_08_1140,Experimento,3.2.3,60.04541510835476,
8,14,14,999,0.5,0:10,3,Yellow,None,0,0,1,28:50,./completed_changuitos/montage_yudlz_150.89_133.75.jpg,left,0,0,0,0,,,,,0,5,5,5,,,,,,,,,0,0,0,0,0,7,7,7,,,,,,,,,,,,,,,,,,,,,,,,,,,,,,,,,238.08915423320286,None,None,1,238.08915423320286,None,,,,,,,,,,,,,,,,,,,,,,,,,,,,,,,,,,,,,,,,,,,,,,guilleG,001,a,2019_Nov_08_1140,Experimento,3.2.3,60.04541510835476,
8,14,14,999,0.5,0:10,3,Cyan,None,0,0,1,28:50,./completed_changuitos/montage_yudlz_150.89_133.75.jpg,left,0,0,0,0,,,,,0,5,5,5,,,,,,,,,0,0,0,0,0,8,8,8,,,,,,,,,,,,,,,,,,,,,,,,,,,,,,,,,238.08915423320286,None,None,1,238.08915423320286,None,,,,,,,,,,,,,,,,,,,,,,,,,,,,,,,,,,,,,,,,,,,,,,guilleG,001,a,2019_Nov_08_1140,Experimento,3.2.3,60.04541510835476,
8,14,14,999,0.5,0:10,3,Yellow,['space'],0,0,1,28:50,./completed_changuitos/montage_yudlz_150.89_133.75.jpg,left,0,0,0,0,,,,,0,5,5,5,,,,,,,,,0,0,0,0,0,9,9,9,,,,,,,,,,,,,,,,,,,,,,,,,,,,,,,,,238.08915423320286,None,None,0,238.08915423320286,None,,,,,,,,,,,,,,,,,,,,,,,,,,,,,,,,,,,,,,,,,,,,,,guilleG,001,a,2019_Nov_08_1140,Experimento,3.2.3,60.04541510835476,
8,14,14,999,0.5,0:10,3,Magenta,None,0,0,1,28:50,./completed_changuitos/montage_yudlz_150.89_133.75.jpg,left,0,0,0,0,,,,,0,5,5,5,,,,,,,,,0,0,0,0,0,10,10,10,,,,,,,,,,,,,,,,,,,,,,,,,,,,,,,,,238.08915423320286,None,None,1,238.08915423320286,None,,,,,,,,,,,,,,,,,,,,,,,,,,,,,,,,,,,,,,,,,,,,,,guilleG,001,a,2019_Nov_08_1140,Experimento,3.2.3,60.04541510835476,
8,14,14,999,0.5,0:10,3,Red,None,0,0,1,28:50,./completed_changuitos/montage_yudlz_150.89_133.75.jpg,left,0,0,0,0,,,,,0,5,5,5,,,,,,,,,0,0,0,0,0,11,11,11,,,,,,,,,,,,,,,,,,,,,,,,,,,,,,,,,238.08915423320286,None,None,1,238.08915423320286,None,,,,,,,,,,,,,,,,,,,,,,,,,,,,,,,,,,,,,,,,,,,,,,guilleG,001,a,2019_Nov_08_1140,Experimento,3.2.3,60.04541510835476,
8,14,14,999,0.5,0:10,3,Magenta,['space'],0,0,1,28:50,./completed_changuitos/montage_yudlz_150.89_133.75.jpg,left,0,0,0,0,,,,,0,5,5,5,,,,,,,,,0,0,0,0,0,12,12,12,,,,,,,,,,,,,,,,,,,,,,,,,,,,,,,,,238.08915423320286,None,None,0,238.08915423320286,None,,,,,,,,,,,,,,,,,,,,,,,,,,,,,,,,,,,,,,,,,,,,,,guilleG,001,a,2019_Nov_08_1140,Experimento,3.2.3,60.04541510835476,
8,14,14,999,0.5,0:10,3,Red,['space'],0,0,1,28:50,./completed_changuitos/montage_yudlz_150.89_133.75.jpg,left,0,0,0,0,,,,,0,5,5,5,,,,,,,,,0,0,0,0,0,13,13,13,,,,,,,,,,,,,,,,,,,,,,,,,,,,,,,,,238.1058127974029,None,None,0,238.1058127974029,None,,,,,,,,,,,,,,,,,,,,,,,,,,,,,,,,,,,,,,,,,,,,,,guilleG,001,a,2019_Nov_08_1140,Experimento,3.2.3,60.04541510835476,
8,14,14,999,0.5,0:10,3,Yellow,None,0,0,1,28:50,./completed_changuitos/montage_yudlz_150.89_133.75.jpg,left,0,0,0,0,,,,,0,5,5,5,,,,,,,,,0,0,0,0,0,14,14,14,,,,,,,,,,,,,,,,,,,,,,,,,,,,,,,,,238.1058127974029,None,None,1,238.1058127974029,None,,,,,,,,,,,,,,,,,,,,,,,,,,,,,,,,,,,,,,,,,,,,,,guilleG,001,a,2019_Nov_08_1140,Experimento,3.2.3,60.04541510835476,
8,14,14,999,0.5,0:10,3,Cyan,None,0,0,1,28:50,./completed_changuitos/montage_yudlz_150.89_133.75.jpg,left,0,0,0,0,,,,,0,5,5,5,,,,,,,,,0,0,0,0,0,15,15,15,,,,,,,,,,,,,,,,,,,,,,,,,,,,,,,,,238.1058127974029,None,None,1,238.1058127974029,None,,,,,,,,,,,,,,,,,,,,,,,,,,,,,,,,,,,,,,,,,,,,,,guilleG,001,a,2019_Nov_08_1140,Experimento,3.2.3,60.04541510835476,
8,14,14,999,0.5,0:10,3,Green,None,0,0,1,28:50,./completed_changuitos/montage_yudlz_150.89_133.75.jpg,left,0,0,0,0,,,,,0,5,5,5,,,,,,,,,0,0,0,0,0,16,16,16,,,,,,,,,,,,,,,,,,,,,,,,,,,,,,,,,238.1058127974029,None,None,1,238.1058127974029,None,,,,,,,,,,,,,,,,,,,,,,,,,,,,,,,,,,,,,,,,,,,,,,guilleG,001,a,2019_Nov_08_1140,Experimento,3.2.3,60.04541510835476,
8,14,14,999,0.5,0:10,3,White,None,0,0,1,28:50,./completed_changuitos/montage_yudlz_150.89_133.75.jpg,left,0,0,0,0,,,,,0,5,5,5,,,,,,,,,0,0,0,0,0,17,17,17,,,,,,,,,,,,,,,,,,,,,,,,,,,,,,,,,238.1058127974029,None,None,1,238.1058127974029,None,,,,,,,,,,,,,,,,,,,,,,,,,,,,,,,,,,,,,,,,,,,,,,guilleG,001,a,2019_Nov_08_1140,Experimento,3.2.3,60.04541510835476,
8,14,14,999,0.5,0:10,3,Green,['space'],0,0,1,28:50,./completed_changuitos/montage_yudlz_150.89_133.75.jpg,left,0,0,0,0,,,,,0,5,5,5,,,,,,,,,0,0,0,0,0,18,18,18,,,,,,,,,,,,,,,,,,,,,,,,,,,,,,,,,238.1058127974029,None,None,0,238.1058127974029,None,,,,,,,,,,,,,,,,,,,,,,,,,,,,,,,,,,,,,,,,,,,,,,guilleG,001,a,2019_Nov_08_1140,Experimento,3.2.3,60.04541510835476,
8,14,14,999,0.5,0:10,3,Red,None,0,0,1,28:50,./completed_changuitos/montage_yudlz_150.89_133.75.jpg,left,0,0,0,0,,,,,0,5,5,5,,,,,,,,,0,0,0,0,0,19,19,19,,,,,,,,,,,,,,,,,,,,,,,,,,,,,,,,,238.1058127974029,None,None,1,238.1058127974029,None,,,,,,,,,,,,,,,,,,,,,,,,,,,,,,,,,,,,,,,,,,,,,,guilleG,001,a,2019_Nov_08_1140,Experimento,3.2.3,60.04541510835476,
8,14,14,999,0.5,0:10,3,Blue,None,0,0,1,28:50,./completed_changuitos/montage_yudlz_150.89_133.75.jpg,left,0,0,0,0,,,,,0,5,5,5,,,,,,,,,0,0,0,0,0,20,20,20,,,,,,,,,,,,,,,,,,,,,,,,,,,,,,,,,238.12247136160295,None,None,1,238.12247136160295,None,,,,,,,,,,,,,,,,,,,,,,,,,,,,,,,,,,,,,,,,,,,,,,guilleG,001,a,2019_Nov_08_1140,Experimento,3.2.3,60.04541510835476,
8,14,14,999,0.5,0:10,3,Green,None,0,0,1,28:50,./completed_changuitos/montage_yudlz_150.89_133.75.jpg,left,0,0,0,0,,,,,0,5,5,5,,,,,,,,,0,0,0,0,0,21,21,21,,,,,,,,,,,,,,,,,,,,,,,,,,,,,,,,,238.12247136160295,None,None,1,238.12247136160295,None,,,,,,,,,,,,,,,,,,,,,,,,,,,,,,,,,,,,,,,,,,,,,,guilleG,001,a,2019_Nov_08_1140,Experimento,3.2.3,60.04541510835476,
8,14,14,999,0.5,0:10,3,,,0,0,1,28:50,./completed_changuitos/montage_yudlz_150.89_133.75.jpg,left,0,0,0,0,,,,,0,5,5,5,,,,,,,,,0,0,0,0,,,,,,,,,,,,,,,,,,,,,,,,,,,,,,,,,,,,,,,,,,,,238.1536524109979,None,left,1,2.819032908002555,238.1536524109979,None,238.1536524109979,None,,,,,,,,,,,,,,,,,,,,,,,,,,,,,,,,,,,,guilleG,001,a,2019_Nov_08_1140,Experimento,3.2.3,60.04541510835476,
8,14,14,999,0.5,0:10,3,,,0,0,1,28:50,,,0,0,0,0,,,,,0,5,5,5,,,,,,,,,,,,,,,,,,,,,,,,,,,,,,,,,,,,,,,,,,,,,,,,,,,,,,,,,,,,,,,,,,,,,,,,,,,,,,,,,,,,,,,,,,,,,,,,,,,,guilleG,001,a,2019_Nov_08_1140,Experimento,3.2.3,60.04541510835476,
8,14,14,999,0.5,0:10,3,,,0,1,0,10:50,./completed_changuitos/montage_munww_83.35_95.25.jpg,right,0,0,0,0,,,,,0,6,6,6,,,,,0,0,0,0,,,,,,,,,,,,,,,,,,,,,,241.11783980899781,242.1389568020022,242.1389568020022,250.13812253299693,250.13812253299693,264.15338157099904,left,0,1.9155696269954205,264.15338157099904,None,264.15338157099904,None,264.15338157099904,None,,,,,,,,,,,,,,,,,,,,,,,,,,,,,,,,,,,,,,,,,,,,,,,,,,,,,,,,guilleG,001,a,2019_Nov_08_1140,Experimento,3.2.3,60.04541510835476,
8,14,14,999,0.5,0:10,3,,,0,1,0,10:50,,,0,0,0,0,,,,,0,6,6,6,,,,,,,,,,,,,,,,,,,,,,,,,,,,,,,,,,,,,,,,,,,,,,,,,,,,,,,,,,,,,,,,,,,,,,,,,,,,,,,,,,,,,,,,,,,,,,,,,,,,guilleG,001,a,2019_Nov_08_1140,Experimento,3.2.3,60.04541510835476,
8,14,14,999,0.5,0:10,3,Yellow,None,0,0,1,15:50,./completed_changuitos/montage_zgqar_119.85_104.55.jpg,left,0,0,0,0,,,,,0,7,7,7,,,,,,,,,0,0,0,0,0,0,0,0,,,,,,,,,,,,,,,,,,,,,,,,,,,,,266.1976770589972,267.3838246879968,267.3838246879968,None,275.41708507199655,275.922150047998,None,1,275.41708507199655,None,,,,,,,,,,,,,,,,,,,,,,,,,,,,,,,,,,,,,,,,,,,,,,guilleG,001,a,2019_Nov_08_1140,Experimento,3.2.3,60.04541510835476,
8,14,14,999,0.5,0:10,3,White,['space'],0,0,1,15:50,./completed_changuitos/montage_zgqar_119.85_104.55.jpg,left,0,0,0,0,,,,,0,7,7,7,,,,,,,,,0,0,0,0,0,1,1,1,,,,,,,,,,,,,,,,,,,,,,,,,,,,,,,,,277.42010022299655,277.9196017590002,None,0,277.42010022299655,277.42010022299655,,,,,,,,,,,,,,,,,,,,,,,,,,,,,,,,,,,,,,,,,,,,,,guilleG,001,a,2019_Nov_08_1140,Experimento,3.2.3,60.04541510835476,
8,14,14,999,0.5,0:10,3,Magenta,None,0,0,1,15:50,./completed_changuitos/montage_zgqar_119.85_104.55.jpg,left,0,0,0,0,,,,,0,7,7,7,,,,,,,,,0,0,0,0,0,2,2,2,,,,,,,,,,,,,,,,,,,,,,,,,,,,,,,,,279.4342500280036,279.93342937000125,None,1,279.4342500280036,279.4342500280036,,,,,,,,,,,,,,,,,,,,,,,,,,,,,,,,,,,,,,,,,,,,,,guilleG,001,a,2019_Nov_08_1140,Experimento,3.2.3,60.04541510835476,
8,14,14,999,0.5,0:10,3,Cyan,None,0,0,1,15:50,./completed_changuitos/montage_zgqar_119.85_104.55.jpg,left,0,0,0,0,,,,,0,7,7,7,,,,,,,,,0,0,0,0,0,3,3,3,,,,,,,,,,,,,,,,,,,,,,,,,,,,,,,,,281.4485169929976,281.9476110589967,None,1,281.4485169929976,281.4485169929976,,,,,,,,,,,,,,,,,,,,,,,,,,,,,,,,,,,,,,,,,,,,,,guilleG,001,a,2019_Nov_08_1140,Experimento,3.2.3,60.04541510835476,
8,14,14,999,0.5,0:10,3,Blue,None,0,0,1,15:50,./completed_changuitos/montage_zgqar_119.85_104.55.jpg,left,0,0,0,0,,,,,0,7,7,7,,,,,,,,,0,0,0,0,0,4,4,4,,,,,,,,,,,,,,,,,,,,,,,,,,,,,,,,,283.4627272860016,283.9618512110028,None,1,283.4627272860016,283.4627272860016,,,,,,,,,,,,,,,,,,,,,,,,,,,,,,,,,,,,,,,,,,,,,,guilleG,001,a,2019_Nov_08_1140,Experimento,3.2.3,60.04541510835476,
8,14,14,999,0.5,0:10,3,Magenta,None,0,0,1,15:50,./completed_changuitos/montage_zgqar_119.85_104.55.jpg,left,0,0,0,0,,,,,0,7,7,7,,,,,,,,,0,0,0,0,0,5,5,5,,,,,,,,,,,,,,,,,,,,,,,,,,,,,,,,,285.4768365580021,285.97656585500226,['return'],0,285.4768365580021,285.4768365580021,[1.0997034269967116],,,,,,,,,,,,,,,,,,,,,,,,,,,,,,,,,,,,,,,,,,,,,guilleG,001,a,2019_Nov_08_1140,Experimento,3.2.3,60.04541510835476,
8,14,14,999,0.5,0:10,3,Blue,['space'],0,0,1,15:50,./completed_changuitos/montage_zgqar_119.85_104.55.jpg,left,0,0,0,0,,,,,0,7,7,7,,,,,,,,,0,0,0,0,0,6,6,6,,,,,,,,,,,,,,,,,,,,,,,,,,,,,,,,,287.49145091300306,287.9909413369969,['return'],0,287.49145091300306,287.49145091300306,[0.9162212539959],,,,,,,,,,,,,,,,,,,,,,,,,,,,,,,,,,,,,,,,,,,,,guilleG,001,a,2019_Nov_08_1140,Experimento,3.2.3,60.04541510835476,
8,14,14,999,0.5,0:10,3,Cyan,None,0,0,1,15:50,./completed_changuitos/montage_zgqar_119.85_104.55.jpg,left,0,0,0,0,,,,,0,7,7,7,,,,,,,,,0,0,0,0,0,7,7,7,,,,,,,,,,,,,,,,,,,,,,,,,,,,,,,,,289.4060497012033,None,None,1,289.4060497012033,None,,,,,,,,,,,,,,,,,,,,,,,,,,,,,,,,,,,,,,,,,,,,,,guilleG,001,a,2019_Nov_08_1140,Experimento,3.2.3,60.04541510835476,
8,14,14,999,0.5,0:10,3,Yellow,None,0,0,1,15:50,./completed_changuitos/montage_zgqar_119.85_104.55.jpg,left,0,0,0,0,,,,,0,7,7,7,,,,,,,,,0,0,0,0,0,8,8,8,,,,,,,,,,,,,,,,,,,,,,,,,,,,,,,,,289.4060497012033,None,None,1,289.4060497012033,None,,,,,,,,,,,,,,,,,,,,,,,,,,,,,,,,,,,,,,,,,,,,,,guilleG,001,a,2019_Nov_08_1140,Experimento,3.2.3,60.04541510835476,
8,14,14,999,0.5,0:10,3,Cyan,None,0,0,1,15:50,./completed_changuitos/montage_zgqar_119.85_104.55.jpg,left,0,0,0,0,,,,,0,7,7,7,,,,,,,,,0,0,0,0,0,9,9,9,,,,,,,,,,,,,,,,,,,,,,,,,,,,,,,,,289.4060497012033,None,None,1,289.4060497012033,None,,,,,,,,,,,,,,,,,,,,,,,,,,,,,,,,,,,,,,,,,,,,,,guilleG,001,a,2019_Nov_08_1140,Experimento,3.2.3,60.04541510835476,
8,14,14,999,0.5,0:10,3,Blue,None,0,0,1,15:50,./completed_changuitos/montage_zgqar_119.85_104.55.jpg,left,0,0,0,0,,,,,0,7,7,7,,,,,,,,,0,0,0,0,0,10,10,10,,,,,,,,,,,,,,,,,,,,,,,,,,,,,,,,,289.4060497012033,None,None,1,289.4060497012033,None,,,,,,,,,,,,,,,,,,,,,,,,,,,,,,,,,,,,,,,,,,,,,,guilleG,001,a,2019_Nov_08_1140,Experimento,3.2.3,60.04541510835476,
8,14,14,999,0.5,0:10,3,Cyan,['space'],0,0,1,15:50,./completed_changuitos/montage_zgqar_119.85_104.55.jpg,left,0,0,0,0,,,,,0,7,7,7,,,,,,,,,0,0,0,0,0,11,11,11,,,,,,,,,,,,,,,,,,,,,,,,,,,,,,,,,289.42270826540334,None,None,0,289.42270826540334,None,,,,,,,,,,,,,,,,,,,,,,,,,,,,,,,,,,,,,,,,,,,,,,guilleG,001,a,2019_Nov_08_1140,Experimento,3.2.3,60.04541510835476,
8,14,14,999,0.5,0:10,3,Magenta,None,0,0,1,15:50,./completed_changuitos/montage_zgqar_119.85_104.55.jpg,left,0,0,0,0,,,,,0,7,7,7,,,,,,,,,0,0,0,0,0,12,12,12,,,,,,,,,,,,,,,,,,,,,,,,,,,,,,,,,289.42270826540334,None,None,1,289.42270826540334,None,,,,,,,,,,,,,,,,,,,,,,,,,,,,,,,,,,,,,,,,,,,,,,guilleG,001,a,2019_Nov_08_1140,Experimento,3.2.3,60.04541510835476,
8,14,14,999,0.5,0:10,3,Red,None,0,0,1,15:50,./completed_changuitos/montage_zgqar_119.85_104.55.jpg,left,0,0,0,0,,,,,0,7,7,7,,,,,,,,,0,0,0,0,0,13,13,13,,,,,,,,,,,,,,,,,,,,,,,,,,,,,,,,,289.42270826540334,None,None,1,289.42270826540334,None,,,,,,,,,,,,,,,,,,,,,,,,,,,,,,,,,,,,,,,,,,,,,,guilleG,001,a,2019_Nov_08_1140,Experimento,3.2.3,60.04541510835476,
8,14,14,999,0.5,0:10,3,Magenta,['space'],0,0,1,15:50,./completed_changuitos/montage_zgqar_119.85_104.55.jpg,left,0,0,0,0,,,,,0,7,7,7,,,,,,,,,0,0,0,0,0,14,14,14,,,,,,,,,,,,,,,,,,,,,,,,,,,,,,,,,289.42270826540334,None,None,0,289.42270826540334,None,,,,,,,,,,,,,,,,,,,,,,,,,,,,,,,,,,,,,,,,,,,,,,guilleG,001,a,2019_Nov_08_1140,Experimento,3.2.3,60.04541510835476,
8,14,14,999,0.5,0:10,3,Green,None,0,0,1,15:50,./completed_changuitos/montage_zgqar_119.85_104.55.jpg,left,0,0,0,0,,,,,0,7,7,7,,,,,,,,,0,0,0,0,0,15,15,15,,,,,,,,,,,,,,,,,,,,,,,,,,,,,,,,,289.42270826540334,None,None,1,289.42270826540334,None,,,,,,,,,,,,,,,,,,,,,,,,,,,,,,,,,,,,,,,,,,,,,,guilleG,001,a,2019_Nov_08_1140,Experimento,3.2.3,60.04541510835476,
8,14,14,999,0.5,0:10,3,Yellow,['space'],0,0,1,15:50,./completed_changuitos/montage_zgqar_119.85_104.55.jpg,left,0,0,0,0,,,,,0,7,7,7,,,,,,,,,0,0,0,0,0,16,16,16,,,,,,,,,,,,,,,,,,,,,,,,,,,,,,,,,289.42270826540334,None,None,0,289.42270826540334,None,,,,,,,,,,,,,,,,,,,,,,,,,,,,,,,,,,,,,,,,,,,,,,guilleG,001,a,2019_Nov_08_1140,Experimento,3.2.3,60.04541510835476,
8,14,14,999,0.5,0:10,3,Blue,None,0,0,1,15:50,./completed_changuitos/montage_zgqar_119.85_104.55.jpg,left,0,0,0,0,,,,,0,7,7,7,,,,,,,,,0,0,0,0,0,17,17,17,,,,,,,,,,,,,,,,,,,,,,,,,,,,,,,,,289.4393668296034,None,None,1,289.4393668296034,None,,,,,,,,,,,,,,,,,,,,,,,,,,,,,,,,,,,,,,,,,,,,,,guilleG,001,a,2019_Nov_08_1140,Experimento,3.2.3,60.04541510835476,
8,14,14,999,0.5,0:10,3,Cyan,None,0,0,1,15:50,./completed_changuitos/montage_zgqar_119.85_104.55.jpg,left,0,0,0,0,,,,,0,7,7,7,,,,,,,,,0,0,0,0,0,18,18,18,,,,,,,,,,,,,,,,,,,,,,,,,,,,,,,,,289.4393668296034,None,None,1,289.4393668296034,None,,,,,,,,,,,,,,,,,,,,,,,,,,,,,,,,,,,,,,,,,,,,,,guilleG,001,a,2019_Nov_08_1140,Experimento,3.2.3,60.04541510835476,
8,14,14,999,0.5,0:10,3,Blue,['space'],0,0,1,15:50,./completed_changuitos/montage_zgqar_119.85_104.55.jpg,left,0,0,0,0,,,,,0,7,7,7,,,,,,,,,0,0,0,0,0,19,19,19,,,,,,,,,,,,,,,,,,,,,,,,,,,,,,,,,289.4393668296034,None,None,0,289.4393668296034,None,,,,,,,,,,,,,,,,,,,,,,,,,,,,,,,,,,,,,,,,,,,,,,guilleG,001,a,2019_Nov_08_1140,Experimento,3.2.3,60.04541510835476,
8,14,14,999,0.5,0:10,3,Yellow,None,0,0,1,15:50,./completed_changuitos/montage_zgqar_119.85_104.55.jpg,left,0,0,0,0,,,,,0,7,7,7,,,,,,,,,0,0,0,0,0,20,20,20,,,,,,,,,,,,,,,,,,,,,,,,,,,,,,,,,289.4393668296034,None,None,1,289.4393668296034,None,,,,,,,,,,,,,,,,,,,,,,,,,,,,,,,,,,,,,,,,,,,,,,guilleG,001,a,2019_Nov_08_1140,Experimento,3.2.3,60.04541510835476,
8,14,14,999,0.5,0:10,3,Cyan,None,0,0,1,15:50,./completed_changuitos/montage_zgqar_119.85_104.55.jpg,left,0,0,0,0,,,,,0,7,7,7,,,,,,,,,0,0,0,0,0,21,21,21,,,,,,,,,,,,,,,,,,,,,,,,,,,,,,,,,289.4393668296034,None,None,1,289.4393668296034,None,,,,,,,,,,,,,,,,,,,,,,,,,,,,,,,,,,,,,,,,,,,,,,guilleG,001,a,2019_Nov_08_1140,Experimento,3.2.3,60.04541510835476,
8,14,14,999,0.5,0:10,3,Yellow,['space'],0,0,1,15:50,./completed_changuitos/montage_zgqar_119.85_104.55.jpg,left,0,0,0,0,,,,,0,7,7,7,,,,,,,,,0,0,0,0,0,22,22,22,,,,,,,,,,,,,,,,,,,,,,,,,,,,,,,,,289.4393668296034,None,None,0,289.4393668296034,None,,,,,,,,,,,,,,,,,,,,,,,,,,,,,,,,,,,,,,,,,,,,,,guilleG,001,a,2019_Nov_08_1140,Experimento,3.2.3,60.04541510835476,
8,14,14,999,0.5,0:10,3,Magenta,None,0,0,1,15:50,./completed_changuitos/montage_zgqar_119.85_104.55.jpg,left,0,0,0,0,,,,,0,7,7,7,,,,,,,,,0,0,0,0,0,23,23,23,,,,,,,,,,,,,,,,,,,,,,,,,,,,,,,,,289.4393668296034,None,None,1,289.4393668296034,None,,,,,,,,,,,,,,,,,,,,,,,,,,,,,,,,,,,,,,,,,,,,,,guilleG,001,a,2019_Nov_08_1140,Experimento,3.2.3,60.04541510835476,
8,14,14,999,0.5,0:10,3,Red,None,0,0,1,15:50,./completed_changuitos/montage_zgqar_119.85_104.55.jpg,left,0,0,0,0,,,,,0,7,7,7,,,,,,,,,0,0,0,0,0,24,24,24,,,,,,,,,,,,,,,,,,,,,,,,,,,,,,,,,289.4393668296034,None,None,1,289.4393668296034,None,,,,,,,,,,,,,,,,,,,,,,,,,,,,,,,,,,,,,,,,,,,,,,guilleG,001,a,2019_Nov_08_1140,Experimento,3.2.3,60.04541510835476,
8,14,14,999,0.5,0:10,3,Magenta,['space'],0,0,1,15:50,./completed_changuitos/montage_zgqar_119.85_104.55.jpg,left,0,0,0,0,,,,,0,7,7,7,,,,,,,,,0,0,0,0,0,25,25,25,,,,,,,,,,,,,,,,,,,,,,,,,,,,,,,,,289.4393668296034,None,None,0,289.4393668296034,None,,,,,,,,,,,,,,,,,,,,,,,,,,,,,,,,,,,,,,,,,,,,,,guilleG,001,a,2019_Nov_08_1140,Experimento,3.2.3,60.04541510835476,
8,14,14,999,0.5,0:10,3,Red,['space'],0,0,1,15:50,./completed_changuitos/montage_zgqar_119.85_104.55.jpg,left,0,0,0,0,,,,,0,7,7,7,,,,,,,,,0,0,0,0,0,26,26,26,,,,,,,,,,,,,,,,,,,,,,,,,,,,,,,,,289.4393668296034,None,None,0,289.4393668296034,None,,,,,,,,,,,,,,,,,,,,,,,,,,,,,,,,,,,,,,,,,,,,,,guilleG,001,a,2019_Nov_08_1140,Experimento,3.2.3,60.04541510835476,
8,14,14,999,0.5,0:10,3,Yellow,None,0,0,1,15:50,./completed_changuitos/montage_zgqar_119.85_104.55.jpg,left,0,0,0,0,,,,,0,7,7,7,,,,,,,,,0,0,0,0,0,27,27,27,,,,,,,,,,,,,,,,,,,,,,,,,,,,,,,,,289.4393668296034,None,None,1,289.4393668296034,None,,,,,,,,,,,,,,,,,,,,,,,,,,,,,,,,,,,,,,,,,,,,,,guilleG,001,a,2019_Nov_08_1140,Experimento,3.2.3,60.04541510835476,
8,14,14,999,0.5,0:10,3,Cyan,None,0,0,1,15:50,./completed_changuitos/montage_zgqar_119.85_104.55.jpg,left,0,0,0,0,,,,,0,7,7,7,,,,,,,,,0,0,0,0,0,28,28,28,,,,,,,,,,,,,,,,,,,,,,,,,,,,,,,,,289.4393668296034,None,None,1,289.4393668296034,None,,,,,,,,,,,,,,,,,,,,,,,,,,,,,,,,,,,,,,,,,,,,,,guilleG,001,a,2019_Nov_08_1140,Experimento,3.2.3,60.04541510835476,
8,14,14,999,0.5,0:10,3,Green,None,0,0,1,15:50,./completed_changuitos/montage_zgqar_119.85_104.55.jpg,left,0,0,0,0,,,,,0,7,7,7,,,,,,,,,0,0,0,0,0,29,29,29,,,,,,,,,,,,,,,,,,,,,,,,,,,,,,,,,289.45602539380343,None,None,1,289.45602539380343,None,,,,,,,,,,,,,,,,,,,,,,,,,,,,,,,,,,,,,,,,,,,,,,guilleG,001,a,2019_Nov_08_1140,Experimento,3.2.3,60.04541510835476,
8,14,14,999,0.5,0:10,3,White,None,0,0,1,15:50,./completed_changuitos/montage_zgqar_119.85_104.55.jpg,left,0,0,0,0,,,,,0,7,7,7,,,,,,,,,0,0,0,0,0,30,30,30,,,,,,,,,,,,,,,,,,,,,,,,,,,,,,,,,289.45602539380343,None,None,1,289.45602539380343,None,,,,,,,,,,,,,,,,,,,,,,,,,,,,,,,,,,,,,,,,,,,,,,guilleG,001,a,2019_Nov_08_1140,Experimento,3.2.3,60.04541510835476,
8,14,14,999,0.5,0:10,3,Green,['space'],0,0,1,15:50,./completed_changuitos/montage_zgqar_119.85_104.55.jpg,left,0,0,0,0,,,,,0,7,7,7,,,,,,,,,0,0,0,0,0,31,31,31,,,,,,,,,,,,,,,,,,,,,,,,,,,,,,,,,289.45602539380343,None,None,0,289.45602539380343,None,,,,,,,,,,,,,,,,,,,,,,,,,,,,,,,,,,,,,,,,,,,,,,guilleG,001,a,2019_Nov_08_1140,Experimento,3.2.3,60.04541510835476,
8,14,14,999,0.5,0:10,3,Red,None,0,0,1,15:50,./completed_changuitos/montage_zgqar_119.85_104.55.jpg,left,0,0,0,0,,,,,0,7,7,7,,,,,,,,,0,0,0,0,0,32,32,32,,,,,,,,,,,,,,,,,,,,,,,,,,,,,,,,,289.45602539380343,None,None,1,289.45602539380343,None,,,,,,,,,,,,,,,,,,,,,,,,,,,,,,,,,,,,,,,,,,,,,,guilleG,001,a,2019_Nov_08_1140,Experimento,3.2.3,60.04541510835476,
8,14,14,999,0.5,0:10,3,Blue,None,0,0,1,15:50,./completed_changuitos/montage_zgqar_119.85_104.55.jpg,left,0,0,0,0,,,,,0,7,7,7,,,,,,,,,0,0,0,0,0,33,33,33,,,,,,,,,,,,,,,,,,,,,,,,,,,,,,,,,289.45602539380343,None,None,1,289.45602539380343,None,,,,,,,,,,,,,,,,,,,,,,,,,,,,,,,,,,,,,,,,,,,,,,guilleG,001,a,2019_Nov_08_1140,Experimento,3.2.3,60.04541510835476,
8,14,14,999,0.5,0:10,3,Green,None,0,0,1,15:50,./completed_changuitos/montage_zgqar_119.85_104.55.jpg,left,0,0,0,0,,,,,0,7,7,7,,,,,,,,,0,0,0,0,0,34,34,34,,,,,,,,,,,,,,,,,,,,,,,,,,,,,,,,,289.45602539380343,None,None,1,289.45602539380343,None,,,,,,,,,,,,,,,,,,,,,,,,,,,,,,,,,,,,,,,,,,,,,,guilleG,001,a,2019_Nov_08_1140,Experimento,3.2.3,60.04541510835476,
8,14,14,999,0.5,0:10,3,,,0,0,1,15:50,./completed_changuitos/montage_zgqar_119.85_104.55.jpg,left,0,0,0,0,,,,,0,7,7,7,,,,,,,,,0,0,0,0,,,,,,,,,,,,,,,,,,,,,,,,,,,,,,,,,,,,,,,,,,,,289.4936772639994,None,right,0,1.8427744850050658,289.4936772639994,None,289.4936772639994,None,,,,,,,,,,,,,,,,,,,,,,,,,,,,,,,,,,,,guilleG,001,a,2019_Nov_08_1140,Experimento,3.2.3,60.04541510835476,
8,14,14,999,0.5,0:10,3,,,0,0,1,15:50,,,0,0,0,0,,,,,0,7,7,7,,,,,,,,,,,,,,,,,,,,,,,,,,,,,,,,,,,,,,,,,,,,,,,,,,,,,,,,,,,,,,,,,,,,,,,,,,,,,,,,,,,,,,,,,,,,,,,,,,,,guilleG,001,a,2019_Nov_08_1140,Experimento,3.2.3,60.04541510835476,
8,14,14,999,0.5,0:10,3,,,0,1,0,19:50,./completed_changuitos/montage_cfqtz_79.19_69.0.jpg,left,0,0,0,0,,,,,0,8,8,8,,,,,0,0,0,0,,,,,,,,,,,,,,,,,,,,,,291.46639866100304,292.3695379950004,292.3695379950004,300.3781073240025,300.3781073240025,314.38202738900145,left,1,0.9334187900021789,314.38202738900145,None,314.38202738900145,None,314.38202738900145,None,,,,,,,,,,,,,,,,,,,,,,,,,,,,,,,,,,,,,,,,,,,,,,,,,,,,,,,,guilleG,001,a,2019_Nov_08_1140,Experimento,3.2.3,60.04541510835476,
8,14,14,999,0.5,0:10,3,,,0,1,0,19:50,,,0,0,0,0,,,,,0,8,8,8,,,,,,,,,,,,,,,,,,,,,,,,,,,,,,,,,,,,,,,,,,,,,,,,,,,,,,,,,,,,,,,,,,,,,,,,,,,,,,,,,,,,,,,,,,,,,,,,,,,,guilleG,001,a,2019_Nov_08_1140,Experimento,3.2.3,60.04541510835476,
8,14,14,999,0.5,0:10,3,Magenta,None,0,0,1,20:50,./completed_changuitos/montage_hpsmc_101.65_90.95.jpg,left,0,0,0,0,,,,,0,9,9,9,,,,,,,,,0,0,0,0,0,0,0,0,,,,,,,,,,,,,,,,,,,,,,,,,,,,,315.430705509003,317.94615904999955,317.94615904999955,None,325.9844534419972,326.4897449120035,None,1,325.9844534419972,None,,,,,,,,,,,,,,,,,,,,,,,,,,,,,,,,,,,,,,,,,,,,,,guilleG,001,a,2019_Nov_08_1140,Experimento,3.2.3,60.04541510835476,
8,14,14,999,0.5,0:10,3,Blue,['space'],0,0,1,20:50,./completed_changuitos/montage_hpsmc_101.65_90.95.jpg,left,0,0,0,0,,,,,0,9,9,9,,,,,,,,,0,0,0,0,0,1,1,1,,,,,,,,,,,,,,,,,,,,,,,,,,,,,,,,,327.9885341249974,328.48832843700075,None,0,327.9885341249974,327.9885341249974,,,,,,,,,,,,,,,,,,,,,,,,,,,,,,,,,,,,,,,,,,,,,,guilleG,001,a,2019_Nov_08_1140,Experimento,3.2.3,60.04541510835476,
8,14,14,999,0.5,0:10,3,Cyan,None,0,0,1,20:50,./completed_changuitos/montage_hpsmc_101.65_90.95.jpg,left,0,0,0,0,,,,,0,9,9,9,,,,,,,,,0,0,0,0,0,2,2,2,,,,,,,,,,,,,,,,,,,,,,,,,,,,,,,,,330.0038602679997,330.5035999710017,None,1,330.0038602679997,330.0038602679997,,,,,,,,,,,,,,,,,,,,,,,,,,,,,,,,,,,,,,,,,,,,,,guilleG,001,a,2019_Nov_08_1140,Experimento,3.2.3,60.04541510835476,
8,14,14,999,0.5,0:10,3,Yellow,None,0,0,1,20:50,./completed_changuitos/montage_hpsmc_101.65_90.95.jpg,left,0,0,0,0,,,,,0,9,9,9,,,,,,,,,0,0,0,0,0,3,3,3,,,,,,,,,,,,,,,,,,,,,,,,,,,,,,,,,332.0192280019983,332.51886466299766,None,1,332.0192280019983,332.0192280019983,,,,,,,,,,,,,,,,,,,,,,,,,,,,,,,,,,,,,,,,,,,,,,guilleG,001,a,2019_Nov_08_1140,Experimento,3.2.3,60.04541510835476,
8,14,14,999,0.5,0:10,3,Cyan,None,0,0,1,20:50,./completed_changuitos/montage_hpsmc_101.65_90.95.jpg,left,0,0,0,0,,,,,0,9,9,9,,,,,,,,,0,0,0,0,0,4,4,4,,,,,,,,,,,,,,,,,,,,,,,,,,,,,,,,,334.0341619280007,334.5338168290036,['return'],0,334.0341619280007,334.0341619280007,[1.033733101998223],,,,,,,,,,,,,,,,,,,,,,,,,,,,,,,,,,,,,,,,,,,,,guilleG,001,a,2019_Nov_08_1140,Experimento,3.2.3,60.04541510835476,
8,14,14,999,0.5,0:10,3,Blue,None,0,0,1,20:50,./completed_changuitos/montage_hpsmc_101.65_90.95.jpg,left,0,0,0,0,,,,,0,9,9,9,,,,,,,,,0,0,0,0,0,5,5,5,,,,,,,,,,,,,,,,,,,,,,,,,,,,,,,,,336.0331139379996,336.5329181019988,['return'],0,336.0331139379996,336.0331139379996,[0.8834191560017643],,,,,,,,,,,,,,,,,,,,,,,,,,,,,,,,,,,,,,,,,,,,,guilleG,001,a,2019_Nov_08_1140,Experimento,3.2.3,60.04541510835476,
8,14,14,999,0.5,0:10,3,Cyan,['space'],0,0,1,20:50,./completed_changuitos/montage_hpsmc_101.65_90.95.jpg,left,0,0,0,0,,,,,0,9,9,9,,,,,,,,,0,0,0,0,0,6,6,6,,,,,,,,,,,,,,,,,,,,,,,,,,,,,,,,,338.04816933999973,338.5480463089989,['return'],0,338.04816933999973,338.04816933999973,[0.8997260969990748],,,,,,,,,,,,,,,,,,,,,,,,,,,,,,,,,,,,,,,,,,,,,guilleG,001,a,2019_Nov_08_1140,Experimento,3.2.3,60.04541510835476,
8,14,14,999,0.5,0:10,3,Magenta,None,0,0,1,20:50,./completed_changuitos/montage_hpsmc_101.65_90.95.jpg,left,0,0,0,0,,,,,0,9,9,9,,,,,,,,,0,0,0,0,0,7,7,7,,,,,,,,,,,,,,,,,,,,,,,,,,,,,,,,,339.96400413419906,None,None,1,339.96400413419906,None,,,,,,,,,,,,,,,,,,,,,,,,,,,,,,,,,,,,,,,,,,,,,,guilleG,001,a,2019_Nov_08_1140,Experimento,3.2.3,60.04541510835476,
8,14,14,999,0.5,0:10,3,Red,None,0,0,1,20:50,./completed_changuitos/montage_hpsmc_101.65_90.95.jpg,left,0,0,0,0,,,,,0,9,9,9,,,,,,,,,0,0,0,0,0,8,8,8,,,,,,,,,,,,,,,,,,,,,,,,,,,,,,,,,339.96400413419906,None,None,1,339.96400413419906,None,,,,,,,,,,,,,,,,,,,,,,,,,,,,,,,,,,,,,,,,,,,,,,guilleG,001,a,2019_Nov_08_1140,Experimento,3.2.3,60.04541510835476,
8,14,14,999,0.5,0:10,3,Magenta,['space'],0,0,1,20:50,./completed_changuitos/montage_hpsmc_101.65_90.95.jpg,left,0,0,0,0,,,,,0,9,9,9,,,,,,,,,0,0,0,0,0,9,9,9,,,,,,,,,,,,,,,,,,,,,,,,,,,,,,,,,339.96400413419906,None,None,0,339.96400413419906,None,,,,,,,,,,,,,,,,,,,,,,,,,,,,,,,,,,,,,,,,,,,,,,guilleG,001,a,2019_Nov_08_1140,Experimento,3.2.3,60.04541510835476,
8,14,14,999,0.5,0:10,3,Green,None,0,0,1,20:50,./completed_changuitos/montage_hpsmc_101.65_90.95.jpg,left,0,0,0,0,,,,,0,9,9,9,,,,,,,,,0,0,0,0,0,10,10,10,,,,,,,,,,,,,,,,,,,,,,,,,,,,,,,,,339.96400413419906,None,None,1,339.96400413419906,None,,,,,,,,,,,,,,,,,,,,,,,,,,,,,,,,,,,,,,,,,,,,,,guilleG,001,a,2019_Nov_08_1140,Experimento,3.2.3,60.04541510835476,
8,14,14,999,0.5,0:10,3,Yellow,['space'],0,0,1,20:50,./completed_changuitos/montage_hpsmc_101.65_90.95.jpg,left,0,0,0,0,,,,,0,9,9,9,,,,,,,,,0,0,0,0,0,11,11,11,,,,,,,,,,,,,,,,,,,,,,,,,,,,,,,,,339.9806626983991,None,None,0,339.9806626983991,None,,,,,,,,,,,,,,,,,,,,,,,,,,,,,,,,,,,,,,,,,,,,,,guilleG,001,a,2019_Nov_08_1140,Experimento,3.2.3,60.04541510835476,
8,14,14,999,0.5,0:10,3,Blue,None,0,0,1,20:50,./completed_changuitos/montage_hpsmc_101.65_90.95.jpg,left,0,0,0,0,,,,,0,9,9,9,,,,,,,,,0,0,0,0,0,12,12,12,,,,,,,,,,,,,,,,,,,,,,,,,,,,,,,,,339.9806626983991,None,None,1,339.9806626983991,None,,,,,,,,,,,,,,,,,,,,,,,,,,,,,,,,,,,,,,,,,,,,,,guilleG,001,a,2019_Nov_08_1140,Experimento,3.2.3,60.04541510835476,
8,14,14,999,0.5,0:10,3,Cyan,None,0,0,1,20:50,./completed_changuitos/montage_hpsmc_101.65_90.95.jpg,left,0,0,0,0,,,,,0,9,9,9,,,,,,,,,0,0,0,0,0,13,13,13,,,,,,,,,,,,,,,,,,,,,,,,,,,,,,,,,339.9806626983991,None,None,1,339.9806626983991,None,,,,,,,,,,,,,,,,,,,,,,,,,,,,,,,,,,,,,,,,,,,,,,guilleG,001,a,2019_Nov_08_1140,Experimento,3.2.3,60.04541510835476,
8,14,14,999,0.5,0:10,3,Blue,['space'],0,0,1,20:50,./completed_changuitos/montage_hpsmc_101.65_90.95.jpg,left,0,0,0,0,,,,,0,9,9,9,,,,,,,,,0,0,0,0,0,14,14,14,,,,,,,,,,,,,,,,,,,,,,,,,,,,,,,,,339.9806626983991,None,None,0,339.9806626983991,None,,,,,,,,,,,,,,,,,,,,,,,,,,,,,,,,,,,,,,,,,,,,,,guilleG,001,a,2019_Nov_08_1140,Experimento,3.2.3,60.04541510835476,
8,14,14,999,0.5,0:10,3,Yellow,None,0,0,1,20:50,./completed_changuitos/montage_hpsmc_101.65_90.95.jpg,left,0,0,0,0,,,,,0,9,9,9,,,,,,,,,0,0,0,0,0,15,15,15,,,,,,,,,,,,,,,,,,,,,,,,,,,,,,,,,339.9806626983991,None,None,1,339.9806626983991,None,,,,,,,,,,,,,,,,,,,,,,,,,,,,,,,,,,,,,,,,,,,,,,guilleG,001,a,2019_Nov_08_1140,Experimento,3.2.3,60.04541510835476,
8,14,14,999,0.5,0:10,3,Cyan,None,0,0,1,20:50,./completed_changuitos/montage_hpsmc_101.65_90.95.jpg,left,0,0,0,0,,,,,0,9,9,9,,,,,,,,,0,0,0,0,0,16,16,16,,,,,,,,,,,,,,,,,,,,,,,,,,,,,,,,,339.9806626983991,None,None,1,339.9806626983991,None,,,,,,,,,,,,,,,,,,,,,,,,,,,,,,,,,,,,,,,,,,,,,,guilleG,001,a,2019_Nov_08_1140,Experimento,3.2.3,60.04541510835476,
8,14,14,999,0.5,0:10,3,Yellow,['space'],0,0,1,20:50,./completed_changuitos/montage_hpsmc_101.65_90.95.jpg,left,0,0,0,0,,,,,0,9,9,9,,,,,,,,,0,0,0,0,0,17,17,17,,,,,,,,,,,,,,,,,,,,,,,,,,,,,,,,,339.99732126259914,None,None,0,339.99732126259914,None,,,,,,,,,,,,,,,,,,,,,,,,,,,,,,,,,,,,,,,,,,,,,,guilleG,001,a,2019_Nov_08_1140,Experimento,3.2.3,60.04541510835476,
8,14,14,999,0.5,0:10,3,Magenta,None,0,0,1,20:50,./completed_changuitos/montage_hpsmc_101.65_90.95.jpg,left,0,0,0,0,,,,,0,9,9,9,,,,,,,,,0,0,0,0,0,18,18,18,,,,,,,,,,,,,,,,,,,,,,,,,,,,,,,,,339.99732126259914,None,None,1,339.99732126259914,None,,,,,,,,,,,,,,,,,,,,,,,,,,,,,,,,,,,,,,,,,,,,,,guilleG,001,a,2019_Nov_08_1140,Experimento,3.2.3,60.04541510835476,
8,14,14,999,0.5,0:10,3,Red,None,0,0,1,20:50,./completed_changuitos/montage_hpsmc_101.65_90.95.jpg,left,0,0,0,0,,,,,0,9,9,9,,,,,,,,,0,0,0,0,0,19,19,19,,,,,,,,,,,,,,,,,,,,,,,,,,,,,,,,,339.99732126259914,None,None,1,339.99732126259914,None,,,,,,,,,,,,,,,,,,,,,,,,,,,,,,,,,,,,,,,,,,,,,,guilleG,001,a,2019_Nov_08_1140,Experimento,3.2.3,60.04541510835476,
8,14,14,999,0.5,0:10,3,Magenta,['space'],0,0,1,20:50,./completed_changuitos/montage_hpsmc_101.65_90.95.jpg,left,0,0,0,0,,,,,0,9,9,9,,,,,,,,,0,0,0,0,0,20,20,20,,,,,,,,,,,,,,,,,,,,,,,,,,,,,,,,,339.99732126259914,None,None,0,339.99732126259914,None,,,,,,,,,,,,,,,,,,,,,,,,,,,,,,,,,,,,,,,,,,,,,,guilleG,001,a,2019_Nov_08_1140,Experimento,3.2.3,60.04541510835476,
8,14,14,999,0.5,0:10,3,Red,['space'],0,0,1,20:50,./completed_changuitos/montage_hpsmc_101.65_90.95.jpg,left,0,0,0,0,,,,,0,9,9,9,,,,,,,,,0,0,0,0,0,21,21,21,,,,,,,,,,,,,,,,,,,,,,,,,,,,,,,,,339.99732126259914,None,None,0,339.99732126259914,None,,,,,,,,,,,,,,,,,,,,,,,,,,,,,,,,,,,,,,,,,,,,,,guilleG,001,a,2019_Nov_08_1140,Experimento,3.2.3,60.04541510835476,
8,14,14,999,0.5,0:10,3,Yellow,None,0,0,1,20:50,./completed_changuitos/montage_hpsmc_101.65_90.95.jpg,left,0,0,0,0,,,,,0,9,9,9,,,,,,,,,0,0,0,0,0,22,22,22,,,,,,,,,,,,,,,,,,,,,,,,,,,,,,,,,339.99732126259914,None,None,1,339.99732126259914,None,,,,,,,,,,,,,,,,,,,,,,,,,,,,,,,,,,,,,,,,,,,,,,guilleG,001,a,2019_Nov_08_1140,Experimento,3.2.3,60.04541510835476,
8,14,14,999,0.5,0:10,3,Cyan,None,0,0,1,20:50,./completed_changuitos/montage_hpsmc_101.65_90.95.jpg,left,0,0,0,0,,,,,0,9,9,9,,,,,,,,,0,0,0,0,0,23,23,23,,,,,,,,,,,,,,,,,,,,,,,,,,,,,,,,,339.99732126259914,None,None,1,339.99732126259914,None,,,,,,,,,,,,,,,,,,,,,,,,,,,,,,,,,,,,,,,,,,,,,,guilleG,001,a,2019_Nov_08_1140,Experimento,3.2.3,60.04541510835476,
8,14,14,999,0.5,0:10,3,Green,None,0,0,1,20:50,./completed_changuitos/montage_hpsmc_101.65_90.95.jpg,left,0,0,0,0,,,,,0,9,9,9,,,,,,,,,0,0,0,0,0,24,24,24,,,,,,,,,,,,,,,,,,,,,,,,,,,,,,,,,339.99732126259914,None,None,1,339.99732126259914,None,,,,,,,,,,,,,,,,,,,,,,,,,,,,,,,,,,,,,,,,,,,,,,guilleG,001,a,2019_Nov_08_1140,Experimento,3.2.3,60.04541510835476,
8,14,14,999,0.5,0:10,3,White,None,0,0,1,20:50,./completed_changuitos/montage_hpsmc_101.65_90.95.jpg,left,0,0,0,0,,,,,0,9,9,9,,,,,,,,,0,0,0,0,0,25,25,25,,,,,,,,,,,,,,,,,,,,,,,,,,,,,,,,,339.99732126259914,None,None,1,339.99732126259914,None,,,,,,,,,,,,,,,,,,,,,,,,,,,,,,,,,,,,,,,,,,,,,,guilleG,001,a,2019_Nov_08_1140,Experimento,3.2.3,60.04541510835476,
8,14,14,999,0.5,0:10,3,Green,['space'],0,0,1,20:50,./completed_changuitos/montage_hpsmc_101.65_90.95.jpg,left,0,0,0,0,,,,,0,9,9,9,,,,,,,,,0,0,0,0,0,26,26,26,,,,,,,,,,,,,,,,,,,,,,,,,,,,,,,,,339.99732126259914,None,None,0,339.99732126259914,None,,,,,,,,,,,,,,,,,,,,,,,,,,,,,,,,,,,,,,,,,,,,,,guilleG,001,a,2019_Nov_08_1140,Experimento,3.2.3,60.04541510835476,
8,14,14,999,0.5,0:10,3,Red,None,0,0,1,20:50,./completed_changuitos/montage_hpsmc_101.65_90.95.jpg,left,0,0,0,0,,,,,0,9,9,9,,,,,,,,,0,0,0,0,0,27,27,27,,,,,,,,,,,,,,,,,,,,,,,,,,,,,,,,,339.99732126259914,None,None,1,339.99732126259914,None,,,,,,,,,,,,,,,,,,,,,,,,,,,,,,,,,,,,,,,,,,,,,,guilleG,001,a,2019_Nov_08_1140,Experimento,3.2.3,60.04541510835476,
8,14,14,999,0.5,0:10,3,Blue,None,0,0,1,20:50,./completed_changuitos/montage_hpsmc_101.65_90.95.jpg,left,0,0,0,0,,,,,0,9,9,9,,,,,,,,,0,0,0,0,0,28,28,28,,,,,,,,,,,,,,,,,,,,,,,,,,,,,,,,,340.0139798267992,None,None,1,340.0139798267992,None,,,,,,,,,,,,,,,,,,,,,,,,,,,,,,,,,,,,,,,,,,,,,,guilleG,001,a,2019_Nov_08_1140,Experimento,3.2.3,60.04541510835476,
8,14,14,999,0.5,0:10,3,Green,None,0,0,1,20:50,./completed_changuitos/montage_hpsmc_101.65_90.95.jpg,left,0,0,0,0,,,,,0,9,9,9,,,,,,,,,0,0,0,0,0,29,29,29,,,,,,,,,,,,,,,,,,,,,,,,,,,,,,,,,340.0139798267992,None,None,1,340.0139798267992,None,,,,,,,,,,,,,,,,,,,,,,,,,,,,,,,,,,,,,,,,,,,,,,guilleG,001,a,2019_Nov_08_1140,Experimento,3.2.3,60.04541510835476,
8,14,14,999,0.5,0:10,3,,,0,0,1,20:50,./completed_changuitos/montage_hpsmc_101.65_90.95.jpg,left,0,0,0,0,,,,,0,9,9,9,,,,,,,,,0,0,0,0,,,,,,,,,,,,,,,,,,,,,,,,,,,,,,,,,,,,,,,,,,,,340.0403113869979,None,right,0,1.754558005995932,340.0403113869979,None,340.0403113869979,None,,,,,,,,,,,,,,,,,,,,,,,,,,,,,,,,,,,,guilleG,001,a,2019_Nov_08_1140,Experimento,3.2.3,60.04541510835476,
8,14,14,999,0.5,0:10,3,,,0,0,1,20:50,,,0,0,0,0,,,,,0,9,9,9,,,,,,,,,,,,,,,,,,,,,,,,,,,,,,,,,,,,,,,,,,,,,,,,,,,,,,,,,,,,,,,,,,,,,,,,,,,,,,,,,,,,,,,,,,,,,,,,,,,,guilleG,001,a,2019_Nov_08_1140,Experimento,3.2.3,60.04541510835476,
8,14,14,999,0.5,0:10,3,,,0,1,0,25:50,./completed_changuitos/montage_oqpdt_99.5_86.69.jpg,left,0,0,0,0,,,,,0,10,10,10,,,,,0,0,0,0,,,,,,,,,,,,,,,,,,,,,,341.9104476689972,342.8289215920013,342.8289215920013,350.8408815380026,350.8408815380026,364.85003203499946,left,1,0.7169226259939023,364.85003203499946,None,364.85003203499946,None,364.85003203499946,None,,,,,,,,,,,,,,,,,,,,,,,,,,,,,,,,,,,,,,,,,,,,,,,,,,,,,,,,guilleG,001,a,2019_Nov_08_1140,Experimento,3.2.3,60.04541510835476,
8,14,14,999,0.5,0:10,3,,,0,1,0,25:50,,,0,0,0,0,,,,,0,10,10,10,,,,,,,,,,,,,,,,,,,,,,,,,,,,,,,,,,,,,,,,,,,,,,,,,,,,,,,,,,,,,,,,,,,,,,,,,,,,,,,,,,,,,,,,,,,,,,,,,,,,guilleG,001,a,2019_Nov_08_1140,Experimento,3.2.3,60.04541510835476,
8,14,14,999,0.5,0:10,3,Red,None,0,0,1,28:50,./completed_changuitos/montage_ysaxu_57.05_66.05.jpg,right,0,0,0,0,,,,,0,11,11,11,,,,,,,,,0,0,0,0,0,0,0,0,,,,,,,,,,,,,,,,,,,,,,,,,,,,,365.7034252279991,367.54871812400233,367.54871812400233,None,375.5893178519982,376.0946510569993,None,1,375.5893178519982,None,,,,,,,,,,,,,,,,,,,,,,,,,,,,,,,,,,,,,,,,,,,,,,guilleG,001,a,2019_Nov_08_1140,Experimento,3.2.3,60.04541510835476,
8,14,14,999,0.5,0:10,3,Magenta,['space'],0,0,1,28:50,./completed_changuitos/montage_ysaxu_57.05_66.05.jpg,right,0,0,0,0,,,,,0,11,11,11,,,,,,,,,0,0,0,0,0,1,1,1,,,,,,,,,,,,,,,,,,,,,,,,,,,,,,,,,377.59357103100047,378.09373764799966,None,0,377.59357103100047,377.59357103100047,,,,,,,,,,,,,,,,,,,,,,,,,,,,,,,,,,,,,,,,,,,,,,guilleG,001,a,2019_Nov_08_1140,Experimento,3.2.3,60.04541510835476,
8,14,14,999,0.5,0:10,3,Green,None,0,0,1,28:50,./completed_changuitos/montage_ysaxu_57.05_66.05.jpg,right,0,0,0,0,,,,,0,11,11,11,,,,,,,,,0,0,0,0,0,2,2,2,,,,,,,,,,,,,,,,,,,,,,,,,,,,,,,,,379.59298422899883,380.09282120400167,None,1,379.59298422899883,379.59298422899883,,,,,,,,,,,,,,,,,,,,,,,,,,,,,,,,,,,,,,,,,,,,,,guilleG,001,a,2019_Nov_08_1140,Experimento,3.2.3,60.04541510835476,
8,14,14,999,0.5,0:10,3,Yellow,['space'],0,0,1,28:50,./completed_changuitos/montage_ysaxu_57.05_66.05.jpg,right,0,0,0,0,,,,,0,11,11,11,,,,,,,,,0,0,0,0,0,3,3,3,,,,,,,,,,,,,,,,,,,,,,,,,,,,,,,,,381.6085998780036,382.10860949999915,None,0,381.6085998780036,381.6085998780036,,,,,,,,,,,,,,,,,,,,,,,,,,,,,,,,,,,,,,,,,,,,,,guilleG,001,a,2019_Nov_08_1140,Experimento,3.2.3,60.04541510835476,
8,14,14,999,0.5,0:10,3,Blue,None,0,0,1,28:50,./completed_changuitos/montage_ysaxu_57.05_66.05.jpg,right,0,0,0,0,,,,,0,11,11,11,,,,,,,,,0,0,0,0,0,4,4,4,,,,,,,,,,,,,,,,,,,,,,,,,,,,,,,,,383.6078987459987,384.10772438999993,None,1,383.6078987459987,383.6078987459987,,,,,,,,,,,,,,,,,,,,,,,,,,,,,,,,,,,,,,,,,,,,,,guilleG,001,a,2019_Nov_08_1140,Experimento,3.2.3,60.04541510835476,
8,14,14,999,0.5,0:10,3,Cyan,None,0,0,1,28:50,./completed_changuitos/montage_ysaxu_57.05_66.05.jpg,right,0,0,0,0,,,,,0,11,11,11,,,,,,,,,0,0,0,0,0,5,5,5,,,,,,,,,,,,,,,,,,,,,,,,,,,,,,,,,385.60702602499805,386.1068734099972,None,1,385.60702602499805,385.60702602499805,,,,,,,,,,,,,,,,,,,,,,,,,,,,,,,,,,,,,,,,,,,,,,guilleG,001,a,2019_Nov_08_1140,Experimento,3.2.3,60.04541510835476,
8,14,14,999,0.5,0:10,3,Blue,['space'],0,0,1,28:50,./completed_changuitos/montage_ysaxu_57.05_66.05.jpg,right,0,0,0,0,,,,,0,11,11,11,,,,,,,,,0,0,0,0,0,6,6,6,,,,,,,,,,,,,,,,,,,,,,,,,,,,,,,,,387.6061825750003,388.1060111650004,['return'],0,387.6061825750003,387.6061825750003,[0.6337297879945254],,,,,,,,,,,,,,,,,,,,,,,,,,,,,,,,,,,,,,,,,,,,,guilleG,001,a,2019_Nov_08_1140,Experimento,3.2.3,60.04541510835476,
8,14,14,999,0.5,0:10,3,Yellow,None,0,0,1,28:50,./completed_changuitos/montage_ysaxu_57.05_66.05.jpg,right,0,0,0,0,,,,,0,11,11,11,,,,,,,,,0,0,0,0,0,7,7,7,,,,,,,,,,,,,,,,,,,,,,,,,,,,,,,,,389.5720993611976,None,None,1,389.5720993611976,None,,,,,,,,,,,,,,,,,,,,,,,,,,,,,,,,,,,,,,,,,,,,,,guilleG,001,a,2019_Nov_08_1140,Experimento,3.2.3,60.04541510835476,
8,14,14,999,0.5,0:10,3,Cyan,None,0,0,1,28:50,./completed_changuitos/montage_ysaxu_57.05_66.05.jpg,right,0,0,0,0,,,,,0,11,11,11,,,,,,,,,0,0,0,0,0,8,8,8,,,,,,,,,,,,,,,,,,,,,,,,,,,,,,,,,389.5720993611976,None,None,1,389.5720993611976,None,,,,,,,,,,,,,,,,,,,,,,,,,,,,,,,,,,,,,,,,,,,,,,guilleG,001,a,2019_Nov_08_1140,Experimento,3.2.3,60.04541510835476,
8,14,14,999,0.5,0:10,3,Yellow,['space'],0,0,1,28:50,./completed_changuitos/montage_ysaxu_57.05_66.05.jpg,right,0,0,0,0,,,,,0,11,11,11,,,,,,,,,0,0,0,0,0,9,9,9,,,,,,,,,,,,,,,,,,,,,,,,,,,,,,,,,389.5720993611976,None,None,0,389.5720993611976,None,,,,,,,,,,,,,,,,,,,,,,,,,,,,,,,,,,,,,,,,,,,,,,guilleG,001,a,2019_Nov_08_1140,Experimento,3.2.3,60.04541510835476,
8,14,14,999,0.5,0:10,3,Magenta,None,0,0,1,28:50,./completed_changuitos/montage_ysaxu_57.05_66.05.jpg,right,0,0,0,0,,,,,0,11,11,11,,,,,,,,,0,0,0,0,0,10,10,10,,,,,,,,,,,,,,,,,,,,,,,,,,,,,,,,,389.5720993611976,None,None,1,389.5720993611976,None,,,,,,,,,,,,,,,,,,,,,,,,,,,,,,,,,,,,,,,,,,,,,,guilleG,001,a,2019_Nov_08_1140,Experimento,3.2.3,60.04541510835476,
8,14,14,999,0.5,0:10,3,Red,None,0,0,1,28:50,./completed_changuitos/montage_ysaxu_57.05_66.05.jpg,right,0,0,0,0,,,,,0,11,11,11,,,,,,,,,0,0,0,0,0,11,11,11,,,,,,,,,,,,,,,,,,,,,,,,,,,,,,,,,389.58875792539766,None,None,1,389.58875792539766,None,,,,,,,,,,,,,,,,,,,,,,,,,,,,,,,,,,,,,,,,,,,,,,guilleG,001,a,2019_Nov_08_1140,Experimento,3.2.3,60.04541510835476,
8,14,14,999,0.5,0:10,3,Magenta,['space'],0,0,1,28:50,./completed_changuitos/montage_ysaxu_57.05_66.05.jpg,right,0,0,0,0,,,,,0,11,11,11,,,,,,,,,0,0,0,0,0,12,12,12,,,,,,,,,,,,,,,,,,,,,,,,,,,,,,,,,389.58875792539766,None,None,0,389.58875792539766,None,,,,,,,,,,,,,,,,,,,,,,,,,,,,,,,,,,,,,,,,,,,,,,guilleG,001,a,2019_Nov_08_1140,Experimento,3.2.3,60.04541510835476,
8,14,14,999,0.5,0:10,3,Red,['space'],0,0,1,28:50,./completed_changuitos/montage_ysaxu_57.05_66.05.jpg,right,0,0,0,0,,,,,0,11,11,11,,,,,,,,,0,0,0,0,0,13,13,13,,,,,,,,,,,,,,,,,,,,,,,,,,,,,,,,,389.58875792539766,None,None,0,389.58875792539766,None,,,,,,,,,,,,,,,,,,,,,,,,,,,,,,,,,,,,,,,,,,,,,,guilleG,001,a,2019_Nov_08_1140,Experimento,3.2.3,60.04541510835476,
8,14,14,999,0.5,0:10,3,Yellow,None,0,0,1,28:50,./completed_changuitos/montage_ysaxu_57.05_66.05.jpg,right,0,0,0,0,,,,,0,11,11,11,,,,,,,,,0,0,0,0,0,14,14,14,,,,,,,,,,,,,,,,,,,,,,,,,,,,,,,,,389.58875792539766,None,None,1,389.58875792539766,None,,,,,,,,,,,,,,,,,,,,,,,,,,,,,,,,,,,,,,,,,,,,,,guilleG,001,a,2019_Nov_08_1140,Experimento,3.2.3,60.04541510835476,
8,14,14,999,0.5,0:10,3,Cyan,None,0,0,1,28:50,./completed_changuitos/montage_ysaxu_57.05_66.05.jpg,right,0,0,0,0,,,,,0,11,11,11,,,,,,,,,0,0,0,0,0,15,15,15,,,,,,,,,,,,,,,,,,,,,,,,,,,,,,,,,389.58875792539766,None,None,1,389.58875792539766,None,,,,,,,,,,,,,,,,,,,,,,,,,,,,,,,,,,,,,,,,,,,,,,guilleG,001,a,2019_Nov_08_1140,Experimento,3.2.3,60.04541510835476,
8,14,14,999,0.5,0:10,3,Green,None,0,0,1,28:50,./completed_changuitos/montage_ysaxu_57.05_66.05.jpg,right,0,0,0,0,,,,,0,11,11,11,,,,,,,,,0,0,0,0,0,16,16,16,,,,,,,,,,,,,,,,,,,,,,,,,,,,,,,,,389.58875792539766,None,None,1,389.58875792539766,None,,,,,,,,,,,,,,,,,,,,,,,,,,,,,,,,,,,,,,,,,,,,,,guilleG,001,a,2019_Nov_08_1140,Experimento,3.2.3,60.04541510835476,
8,14,14,999,0.5,0:10,3,White,None,0,0,1,28:50,./completed_changuitos/montage_ysaxu_57.05_66.05.jpg,right,0,0,0,0,,,,,0,11,11,11,,,,,,,,,0,0,0,0,0,17,17,17,,,,,,,,,,,,,,,,,,,,,,,,,,,,,,,,,389.6054164895977,None,None,1,389.6054164895977,None,,,,,,,,,,,,,,,,,,,,,,,,,,,,,,,,,,,,,,,,,,,,,,guilleG,001,a,2019_Nov_08_1140,Experimento,3.2.3,60.04541510835476,
8,14,14,999,0.5,0:10,3,Green,['space'],0,0,1,28:50,./completed_changuitos/montage_ysaxu_57.05_66.05.jpg,right,0,0,0,0,,,,,0,11,11,11,,,,,,,,,0,0,0,0,0,18,18,18,,,,,,,,,,,,,,,,,,,,,,,,,,,,,,,,,389.6054164895977,None,None,0,389.6054164895977,None,,,,,,,,,,,,,,,,,,,,,,,,,,,,,,,,,,,,,,,,,,,,,,guilleG,001,a,2019_Nov_08_1140,Experimento,3.2.3,60.04541510835476,
8,14,14,999,0.5,0:10,3,Red,None,0,0,1,28:50,./completed_changuitos/montage_ysaxu_57.05_66.05.jpg,right,0,0,0,0,,,,,0,11,11,11,,,,,,,,,0,0,0,0,0,19,19,19,,,,,,,,,,,,,,,,,,,,,,,,,,,,,,,,,389.6054164895977,None,None,1,389.6054164895977,None,,,,,,,,,,,,,,,,,,,,,,,,,,,,,,,,,,,,,,,,,,,,,,guilleG,001,a,2019_Nov_08_1140,Experimento,3.2.3,60.04541510835476,
8,14,14,999,0.5,0:10,3,Blue,None,0,0,1,28:50,./completed_changuitos/montage_ysaxu_57.05_66.05.jpg,right,0,0,0,0,,,,,0,11,11,11,,,,,,,,,0,0,0,0,0,20,20,20,,,,,,,,,,,,,,,,,,,,,,,,,,,,,,,,,389.6054164895977,None,None,1,389.6054164895977,None,,,,,,,,,,,,,,,,,,,,,,,,,,,,,,,,,,,,,,,,,,,,,,guilleG,001,a,2019_Nov_08_1140,Experimento,3.2.3,60.04541510835476,
8,14,14,999,0.5,0:10,3,Green,None,0,0,1,28:50,./completed_changuitos/montage_ysaxu_57.05_66.05.jpg,right,0,0,0,0,,,,,0,11,11,11,,,,,,,,,0,0,0,0,0,21,21,21,,,,,,,,,,,,,,,,,,,,,,,,,,,,,,,,,389.6054164895977,None,None,1,389.6054164895977,None,,,,,,,,,,,,,,,,,,,,,,,,,,,,,,,,,,,,,,,,,,,,,,guilleG,001,a,2019_Nov_08_1140,Experimento,3.2.3,60.04541510835476,
8,14,14,999,0.5,0:10,3,,,0,0,1,28:50,./completed_changuitos/montage_ysaxu_57.05_66.05.jpg,right,0,0,0,0,,,,,0,11,11,11,,,,,,,,,0,0,0,0,,,,,,,,,,,,,,,,,,,,,,,,,,,,,,,,,,,,,,,,,,,,389.6414708960001,None,right,1,1.4634747599993716,389.6414708960001,None,389.6414708960001,None,,,,,,,,,,,,,,,,,,,,,,,,,,,,,,,,,,,,guilleG,001,a,2019_Nov_08_1140,Experimento,3.2.3,60.04541510835476,
8,14,14,999,0.5,0:10,3,,,0,0,1,28:50,,,0,0,0,0,,,,,0,11,11,11,,,,,,,,,,,,,,,,,,,,,,,,,,,,,,,,,,,,,,,,,,,,,,,,,,,,,,,,,,,,,,,,,,,,,,,,,,,,,,,,,,,,,,,,,,,,,,,,,,,,guilleG,001,a,2019_Nov_08_1140,Experimento,3.2.3,60.04541510835476,
8,14,14,999,0.5,0:10,3,,,1,0,0,30:50,./completed_changuitos/montage_yegik_66.89_77.06.jpg,right,0,0,0,0,,,,,0,12,12,12,0,0,0,0,,,,,,,,,,,,,,,,,,,,,,,,,,,,,,,,,,,,,,,,,,,,,,,,,,,,,,,,,,,,,391.7210794769999,392.8373985349972,392.8373985349972,400.85081692800304,left,0,17.044214750996616,400.85081692800304,None,400.85081692800304,None,400.85081692800304,403.8663707910018,,,,,,,,,,,,,,,,,,,,,,,guilleG,001,a,2019_Nov_08_1140,Experimento,3.2.3,60.04541510835476,
8,14,14,999,0.5,0:10,3,,,1,0,0,30:50,,,0,0,0,0,,,,,0,12,12,12,,,,,,,,,,,,,,,,,,,,,,,,,,,,,,,,,,,,,,,,,,,,,,,,,,,,,,,,,,,,,,,,,,,,,,,,,,,,,,,,,,,,,,,,,,,,,,,,,,,,guilleG,001,a,2019_Nov_08_1140,Experimento,3.2.3,60.04541510835476,
8,14,14,999,0.5,0:10,3,,,1,0,0,32:50,./completed_changuitos/montage_luzdw_245.69_209.75.jpg,left,0,0,0,0,,,,,0,13,13,13,0,0,0,0,,,,,,,,,,,,,,,,,,,,,,,,,,,,,,,,,,,,,,,,,,,,,,,,,,,,,,,,,,,,,418.54425052199804,421.5097706899978,421.5097706899978,429.52381876300205,right,0,3.7658337140019285,429.52381876300205,None,429.52381876300205,None,429.52381876300205,432.53945280199696,,,,,,,,,,,,,,,,,,,,,,,guilleG,001,a,2019_Nov_08_1140,Experimento,3.2.3,60.04541510835476,
8,14,14,999,0.5,0:10,3,,,1,0,0,32:50,,,0,0,0,0,,,,,0,13,13,13,,,,,,,,,,,,,,,,,,,,,,,,,,,,,,,,,,,,,,,,,,,,,,,,,,,,,,,,,,,,,,,,,,,,,,,,,,,,,,,,,,,,,,,,,,,,,,,,,,,,guilleG,001,a,2019_Nov_08_1140,Experimento,3.2.3,60.04541510835476,
8,14,14,999,0.5,0:10,3,,,1,0,0,34:50,./completed_changuitos/montage_olgwj_73.85_86.69.jpg,right,0,0,0,0,,,,,0,14,14,14,0,0,0,0,,,,,,,,,,,,,,,,,,,,,,,,,,,,,,,,,,,,,,,,,,,,,,,,,,,,,,,,,,,,,433.9389791470021,434.7220622599998,434.7220622599998,442.7361534610027,right,1,1.2660727289985516,442.7361534610027,None,442.7361534610027,None,442.7361534610027,None,,,,,,,,,,,,,,,,,,,,,,,guilleG,001,a,2019_Nov_08_1140,Experimento,3.2.3,60.04541510835476,
8,14,14,999,0.5,0:10,3,,,1,0,0,34:50,,,0,0,0,0,,,,,0,14,14,14,,,,,,,,,,,,,,,,,,,,,,,,,,,,,,,,,,,,,,,,,,,,,,,,,,,,,,,,,,,,,,,,,,,,,,,,,,,,,,,,,,,,,,,,,,,,,,,,,,,,guilleG,001,a,2019_Nov_08_1140,Experimento,3.2.3,60.04541510835476,
8,14,14,999,0.5,0:10,3,,,1,0,0,30:50,./completed_changuitos/montage_jufnt_699.0_589.0.jpg,left,0,0,0,0,,,,,0,15,15,15,0,0,0,0,,,,,,,,,,,,,,,,,,,,,,,,,,,,,,,,,,,,,,,,,,,,,,,,,,,,,,,,,,,,,444.6185996810018,445.88511326599837,445.88511326599837,453.8992990580009,left,1,0.6336208079956123,453.8992990580009,None,453.8992990580009,None,453.8992990580009,None,,,,,,,,,,,,,,,,,,,,,,,guilleG,001,a,2019_Nov_08_1140,Experimento,3.2.3,60.04541510835476,
8,14,14,999,0.5,0:10,3,,,1,0,0,30:50,,,0,0,0,0,,,,,0,15,15,15,,,,,,,,,,,,,,,,,,,,,,,,,,,,,,,,,,,,,,,,,,,,,,,,,,,,,,,,,,,,,,,,,,,,,,,,,,,,,,,,,,,,,,,,,,,,,,,,,,,,guilleG,001,a,2019_Nov_08_1140,Experimento,3.2.3,60.04541510835476,
8,14,14,999,0.5,0:10,3,,,1,0,0,32:50,./completed_changuitos/montage_lceqc_146.19_171.09.jpg,right,0,0,0,0,,,,,0,16,16,16,0,0,0,0,,,,,,,,,,,,,,,,,,,,,,,,,,,,,,,,,,,,,,,,,,,,,,,,,,,,,,,,,,,,,455.1822809669975,455.89869783599715,455.89869783599715,463.9129376769997,right,1,2.116518630005885,463.9129376769997,None,463.9129376769997,None,463.9129376769997,None,,,,,,,,,,,,,,,,,,,,,,,guilleG,001,a,2019_Nov_08_1140,Experimento,3.2.3,60.04541510835476,
8,14,14,999,0.5,0:10,3,,,1,0,0,32:50,,,0,0,0,0,,,,,0,16,16,16,,,,,,,,,,,,,,,,,,,,,,,,,,,,,,,,,,,,,,,,,,,,,,,,,,,,,,,,,,,,,,,,,,,,,,,,,,,,,,,,,,,,,,,,,,,,,,,,,,,,guilleG,001,a,2019_Nov_08_1140,Experimento,3.2.3,60.04541510835476,
8,14,14,999,0.5,0:10,3,,,1,0,0,34:50,./completed_changuitos/montage_ghoqy_35.2_40.55.jpg,right,0,0,0,0,,,,,0,17,17,17,0,0,0,0,,,,,,,,,,,,,,,,,,,,,,,,,,,,,,,,,,,,,,,,,,,,,,,,,,,,,,,,,,,,,466.69544165499974,467.6951603639973,467.6951603639973,475.6928663419967,left,0,0.9344615439986228,475.6928663419967,None,475.6928663419967,None,475.6928663419967,None,,,,,,,,,,,,,,,,,,,,,,,guilleG,001,a,2019_Nov_08_1140,Experimento,3.2.3,60.04541510835476,
8,14,14,999,0.5,0:10,3,,,1,0,0,34:50,,,0,0,0,0,,,,,0,17,17,17,,,,,,,,,,,,,,,,,,,,,,,,,,,,,,,,,,,,,,,,,,,,,,,,,,,,,,,,,,,,,,,,,,,,,,,,,,,,,,,,,,,,,,,,,,,,,,,,,,,,guilleG,001,a,2019_Nov_08_1140,Experimento,3.2.3,60.04541510835476,
8,14,14,999,0.5,0:10,3,,,,,,,,,0,0,0,0,,,,,,,,,,,,,,,,,,,,,,,,,,,,,,,,,,,,,,,,,,,,,,,,,,,,,,,,,,,,,,,,,,,,,,,,,,,,,,,,,,,,,,476.7008470849978,479.57499229999667,3,6.464628969995829,479.57499229999667,None,479.57499229999667,None,c,9.098434459003329,486.0561236010035,None,486.0561236010035,None,486.0561236010035,None,495.1705156590033,None,4,4.748640673002228,495.1705156590033,None,guilleG,001,a,2019_Nov_08_1140,Experimento,3.2.3,60.04541510835476,
