changuito_time_to_show,time_to_think,time_to_play,total_items,nback_stimulus_time,nback_training,time_to_show_tiny_stimulus,colourtest,corresp,inmediato,consciente,inconsciente,nback_slice,imagen,correcta,trials_5.thisRepN,trials_5.thisTrialN,trials_5.thisN,trials_5.thisIndex,nback_train.thisRepN,nback_train.thisTrialN,nback_train.thisN,nback_train.thisIndex,treatment_order.thisRepN,treatment_order.thisTrialN,treatment_order.thisN,treatment_order.thisIndex,trials.thisRepN,trials.thisTrialN,trials.thisN,trials.thisIndex,trials_2.thisRepN,trials_2.thisTrialN,trials_2.thisN,trials_2.thisIndex,trials_3.thisRepN,trials_3.thisTrialN,trials_3.thisN,trials_3.thisIndex,trials_4.thisRepN,trials_4.thisTrialN,trials_4.thisN,trials_4.thisIndex,Presentacion.started,Presentacion.stopped,Juego.started,Juego.stopped,image_6.started,image_6.stopped,polygon.started,polygon.stopped,nback_train_resp.keys,nback_train_resp.corr,nback_train_resp.started,nback_train_resp.stopped,nback_train_resp.rt,holi.started,holi.stopped,image_3.started,image_3.stopped,polygon_2.started,polygon_2.stopped,nback_train_resp_2.keys,nback_train_resp_2.corr,nback_train_resp_2.started,nback_train_resp_2.stopped,nback_train_resp_2.rt,text_2.started,text_2.stopped,key_resp.keys,key_resp.corr,key_resp.rt,key_resp.started,key_resp.stopped,image_5.started,image_5.stopped,hola.started,hola.stopped,image_2.started,image_2.stopped,tiempo_para_pensar.started,tiempo_para_pensar.stopped,respuesta_consciente.keys,respuesta_consciente.corr,respuesta_consciente.rt,respuesta_consciente.started,respuesta_consciente.stopped,cual_es_la_mas_barata.started,cual_es_la_mas_barata.stopped,image_4.started,image_4.stopped,text.started,text.stopped,image.started,image.stopped,respuesta_inmediato.keys,respuesta_inmediato.corr,respuesta_inmediato.rt,respuesta_inmediato.started,respuesta_inmediato.stopped,pregunta_cual_es_el_mas_barato.started,pregunta_cual_es_el_mas_barato.stopped,short_stim1.started,short_stim1.stopped,gracias.started,gracias.stopped,respuesta1.keys,respuesta1.rt,respuesta1.started,respuesta1.stopped,pregunta1.started,pregunta1.stopped,respuesta3bis_3.keys,respuesta3bis_3.rt,respuesta3bis_3.started,respuesta3bis_3.stopped,pregunta3_3.started,pregunta3_3.stopped,productoCon3RANGOSabc_3.started,productoCon3RANGOSabc_3.stopped,text_3.started,text_3.stopped,key_resp_2.keys,key_resp_2.rt,key_resp_2.started,key_resp_2.stopped,participant,session,group,date,expName,psychopyVersion,frameRate,
8,14,14,999,0.5,0:10,3,White,None,,,,,,,0,0,0,0,0,0,0,0,,,,,,,,,,,,,,,,,,,,,21.322292947996175,None,35.404296840992174,None,35.404296840992174,None,68.35834897200402,68.87381399799779,None,1,68.35834897200402,None,,,,,,,,,,,,,,,,,,,,,,,,,,,,,,,,,,,,,,,,,,,,,,,,,,,,,,,,,,,,,,,,,,,,,,,,juani,001,d,2019_Oct_10_1510,Experimento,3.2.3,59.952428347277596,
8,14,14,999,0.5,0:10,3,Red,None,,,,,,,0,0,0,0,0,1,1,1,,,,,,,,,,,,,,,,,,,,,,,,,,,70.37307484500343,70.8729727989994,None,1,70.37307484500343,70.37307484500343,,,,,,,,,,,,,,,,,,,,,,,,,,,,,,,,,,,,,,,,,,,,,,,,,,,,,,,,,,,,,,,,,,,,,,,,juani,001,d,2019_Oct_10_1510,Experimento,3.2.3,59.952428347277596,
8,14,14,999,0.5,0:10,3,Magenta,None,,,,,,,0,0,0,0,0,2,2,2,,,,,,,,,,,,,,,,,,,,,,,,,,,72.37282148099621,72.87221434799721,None,1,72.37282148099621,72.37282148099621,,,,,,,,,,,,,,,,,,,,,,,,,,,,,,,,,,,,,,,,,,,,,,,,,,,,,,,,,,,,,,,,,,,,,,,,juani,001,d,2019_Oct_10_1510,Experimento,3.2.3,59.952428347277596,
8,14,14,999,0.5,0:10,3,Cyan,None,,,,,,,0,0,0,0,0,3,3,3,,,,,,,,,,,,,,,,,,,,,,,,,,,74.37203683500411,74.8720134000032,None,1,74.37203683500411,74.37203683500411,,,,,,,,,,,,,,,,,,,,,,,,,,,,,,,,,,,,,,,,,,,,,,,,,,,,,,,,,,,,,,,,,,,,,,,,juani,001,d,2019_Oct_10_1510,Experimento,3.2.3,59.952428347277596,
8,14,14,999,0.5,0:10,3,Magenta,['space'],,,,,,,0,0,0,0,0,4,4,4,,,,,,,,,,,,,,,,,,,,,,,,,,,76.3877729550004,76.8878917760012,['return'],0,76.3877729550004,76.3877729550004,[0.666538784003933],,,,,,,,,,,,,,,,,,,,,,,,,,,,,,,,,,,,,,,,,,,,,,,,,,,,,,,,,,,,,,,,,,,,,,,juani,001,d,2019_Oct_10_1510,Experimento,3.2.3,59.952428347277596,
8,14,14,999,0.5,0:10,3,Green,None,,,,,,,0,0,0,0,0,5,5,5,,,,,,,,,,,,,,,,,,,,,,,,,,,78.38696529099252,78.88679024999146,None,1,78.38696529099252,78.38696529099252,,,,,,,,,,,,,,,,,,,,,,,,,,,,,,,,,,,,,,,,,,,,,,,,,,,,,,,,,,,,,,,,,,,,,,,,juani,001,d,2019_Oct_10_1510,Experimento,3.2.3,59.952428347277596,
8,14,14,999,0.5,0:10,3,White,None,,,,,,,0,0,0,0,0,6,6,6,,,,,,,,,,,,,,,,,,,,,,,,,,,80.38669769999979,80.88618717099598,None,1,80.38669769999979,80.38669769999979,,,,,,,,,,,,,,,,,,,,,,,,,,,,,,,,,,,,,,,,,,,,,,,,,,,,,,,,,,,,,,,,,,,,,,,,juani,001,d,2019_Oct_10_1510,Experimento,3.2.3,59.952428347277596,
8,14,14,999,0.5,0:10,3,Green,['space'],,,,,,,0,0,0,0,0,7,7,7,,,,,,,,,,,,,,,,,,,,,,,,,,,82.40227741499257,82.90250811299484,['return'],0,82.40227741499257,82.40227741499257,[0.4675073500111466],,,,,,,,,,,,,,,,,,,,,,,,,,,,,,,,,,,,,,,,,,,,,,,,,,,,,,,,,,,,,,,,,,,,,,,juani,001,d,2019_Oct_10_1510,Experimento,3.2.3,59.952428347277596,
8,14,14,999,0.5,0:10,3,Blue,None,,,,,,,0,0,0,0,0,8,8,8,,,,,,,,,,,,,,,,,,,,,,,,,,,84.40192388699506,84.90181805100292,None,1,84.40192388699506,84.40192388699506,,,,,,,,,,,,,,,,,,,,,,,,,,,,,,,,,,,,,,,,,,,,,,,,,,,,,,,,,,,,,,,,,,,,,,,,juani,001,d,2019_Oct_10_1510,Experimento,3.2.3,59.952428347277596,
8,14,14,999,0.5,0:10,3,Green,['space'],,,,,,,0,0,0,0,0,9,9,9,,,,,,,,,,,,,,,,,,,,,,,,,,,86.40125730998989,86.90081820399791,['return'],0,86.40125730998989,86.40125730998989,[0.43307710300723556],,,,,,,,,,,,,,,,,,,,,,,,,,,,,,,,,,,,,,,,,,,,,,,,,,,,,,,,,,,,,,,,,,,,,,,juani,001,d,2019_Oct_10_1510,Experimento,3.2.3,59.952428347277596,
8,14,14,999,0.5,0:10,3,Magenta,None,0,0,1,20:50,./completed_changuitos/montage_xgmhf_63.15_53.49.jpg,left,0,0,0,0,,,,,0,0,0,0,,,,,,,,,0,0,0,0,0,0,0,0,,,,,,,,,,,,,,88.5143036149966,99.49646364799992,99.49646364799992,None,107.51591142099642,108.02725230400392,None,1,107.51591142099642,None,,,,,,,,,,,,,,,,,,,,,,,,,,,,,,,,,,,,,,,,,,,,,,,,,,,,,,,,,,,,,juani,001,d,2019_Oct_10_1510,Experimento,3.2.3,59.952428347277596,
8,14,14,999,0.5,0:10,3,Blue,['space'],0,0,1,20:50,./completed_changuitos/montage_xgmhf_63.15_53.49.jpg,left,0,0,0,0,,,,,0,0,0,0,,,,,,,,,0,0,0,0,0,1,1,1,,,,,,,,,,,,,,,,,,109.52637855499052,110.02618513700145,None,0,109.52637855499052,109.52637855499052,,,,,,,,,,,,,,,,,,,,,,,,,,,,,,,,,,,,,,,,,,,,,,,,,,,,,,,,,,,,,juani,001,d,2019_Oct_10_1510,Experimento,3.2.3,59.952428347277596,
8,14,14,999,0.5,0:10,3,Cyan,None,0,0,1,20:50,./completed_changuitos/montage_xgmhf_63.15_53.49.jpg,left,0,0,0,0,,,,,0,0,0,0,,,,,,,,,0,0,0,0,0,2,2,2,,,,,,,,,,,,,,,,,,111.5260494940012,112.02583478299493,None,1,111.5260494940012,111.5260494940012,,,,,,,,,,,,,,,,,,,,,,,,,,,,,,,,,,,,,,,,,,,,,,,,,,,,,,,,,,,,,juani,001,d,2019_Oct_10_1510,Experimento,3.2.3,59.952428347277596,
8,14,14,999,0.5,0:10,3,Yellow,None,0,0,1,20:50,./completed_changuitos/montage_xgmhf_63.15_53.49.jpg,left,0,0,0,0,,,,,0,0,0,0,,,,,,,,,0,0,0,0,0,3,3,3,,,,,,,,,,,,,,,,,,113.52537138899788,114.0254516970017,None,1,113.52537138899788,113.52537138899788,,,,,,,,,,,,,,,,,,,,,,,,,,,,,,,,,,,,,,,,,,,,,,,,,,,,,,,,,,,,,juani,001,d,2019_Oct_10_1510,Experimento,3.2.3,59.952428347277596,
8,14,14,999,0.5,0:10,3,Cyan,None,0,0,1,20:50,./completed_changuitos/montage_xgmhf_63.15_53.49.jpg,left,0,0,0,0,,,,,0,0,0,0,,,,,,,,,0,0,0,0,0,4,4,4,,,,,,,,,,,,,,,,,,115.52470785399782,116.02454024899635,['return'],0,115.52470785399782,115.52470785399782,[0.4838826990016969],,,,,,,,,,,,,,,,,,,,,,,,,,,,,,,,,,,,,,,,,,,,,,,,,,,,,,,,,,,,juani,001,d,2019_Oct_10_1510,Experimento,3.2.3,59.952428347277596,
8,14,14,999,0.5,0:10,3,Blue,None,0,0,1,20:50,./completed_changuitos/montage_xgmhf_63.15_53.49.jpg,left,0,0,0,0,,,,,0,0,0,0,,,,,,,,,0,0,0,0,0,5,5,5,,,,,,,,,,,,,,,,,,117.52399325299484,118.02365840600396,None,1,117.52399325299484,117.52399325299484,,,,,,,,,,,,,,,,,,,,,,,,,,,,,,,,,,,,,,,,,,,,,,,,,,,,,,,,,,,,,juani,001,d,2019_Oct_10_1510,Experimento,3.2.3,59.952428347277596,
8,14,14,999,0.5,0:10,3,Cyan,['space'],0,0,1,20:50,./completed_changuitos/montage_xgmhf_63.15_53.49.jpg,left,0,0,0,0,,,,,0,0,0,0,,,,,,,,,0,0,0,0,0,6,6,6,,,,,,,,,,,,,,,,,,119.52327990399499,120.02310393800144,['return'],0,119.52327990399499,119.52327990399499,[0.3504133719980018],,,,,,,,,,,,,,,,,,,,,,,,,,,,,,,,,,,,,,,,,,,,,,,,,,,,,,,,,,,,juani,001,d,2019_Oct_10_1510,Experimento,3.2.3,59.952428347277596,
8,14,14,999,0.5,0:10,3,Magenta,None,0,0,1,20:50,./completed_changuitos/montage_xgmhf_63.15_53.49.jpg,left,0,0,0,0,,,,,0,0,0,0,,,,,,,,,0,0,0,0,0,7,7,7,,,,,,,,,,,,,,,,,,121.52245457229292,None,None,1,121.52245457229292,None,,,,,,,,,,,,,,,,,,,,,,,,,,,,,,,,,,,,,,,,,,,,,,,,,,,,,,,,,,,,,juani,001,d,2019_Oct_10_1510,Experimento,3.2.3,59.952428347277596,
8,14,14,999,0.5,0:10,3,Red,None,0,0,1,20:50,./completed_changuitos/montage_xgmhf_63.15_53.49.jpg,left,0,0,0,0,,,,,0,0,0,0,,,,,,,,,0,0,0,0,0,8,8,8,,,,,,,,,,,,,,,,,,121.52245457229292,None,None,1,121.52245457229292,None,,,,,,,,,,,,,,,,,,,,,,,,,,,,,,,,,,,,,,,,,,,,,,,,,,,,,,,,,,,,,juani,001,d,2019_Oct_10_1510,Experimento,3.2.3,59.952428347277596,
8,14,14,999,0.5,0:10,3,Magenta,['space'],0,0,1,20:50,./completed_changuitos/montage_xgmhf_63.15_53.49.jpg,left,0,0,0,0,,,,,0,0,0,0,,,,,,,,,0,0,0,0,0,9,9,9,,,,,,,,,,,,,,,,,,121.52245457229292,None,None,0,121.52245457229292,None,,,,,,,,,,,,,,,,,,,,,,,,,,,,,,,,,,,,,,,,,,,,,,,,,,,,,,,,,,,,,juani,001,d,2019_Oct_10_1510,Experimento,3.2.3,59.952428347277596,
8,14,14,999,0.5,0:10,3,Green,None,0,0,1,20:50,./completed_changuitos/montage_xgmhf_63.15_53.49.jpg,left,0,0,0,0,,,,,0,0,0,0,,,,,,,,,0,0,0,0,0,10,10,10,,,,,,,,,,,,,,,,,,121.52245457229292,None,None,1,121.52245457229292,None,,,,,,,,,,,,,,,,,,,,,,,,,,,,,,,,,,,,,,,,,,,,,,,,,,,,,,,,,,,,,juani,001,d,2019_Oct_10_1510,Experimento,3.2.3,59.952428347277596,
8,14,14,999,0.5,0:10,3,Yellow,['space'],0,0,1,20:50,./completed_changuitos/montage_xgmhf_63.15_53.49.jpg,left,0,0,0,0,,,,,0,0,0,0,,,,,,,,,0,0,0,0,0,11,11,11,,,,,,,,,,,,,,,,,,121.53894577659375,None,None,0,121.53894577659375,None,,,,,,,,,,,,,,,,,,,,,,,,,,,,,,,,,,,,,,,,,,,,,,,,,,,,,,,,,,,,,juani,001,d,2019_Oct_10_1510,Experimento,3.2.3,59.952428347277596,
8,14,14,999,0.5,0:10,3,Blue,None,0,0,1,20:50,./completed_changuitos/montage_xgmhf_63.15_53.49.jpg,left,0,0,0,0,,,,,0,0,0,0,,,,,,,,,0,0,0,0,0,12,12,12,,,,,,,,,,,,,,,,,,121.53894577659375,None,None,1,121.53894577659375,None,,,,,,,,,,,,,,,,,,,,,,,,,,,,,,,,,,,,,,,,,,,,,,,,,,,,,,,,,,,,,juani,001,d,2019_Oct_10_1510,Experimento,3.2.3,59.952428347277596,
8,14,14,999,0.5,0:10,3,Cyan,None,0,0,1,20:50,./completed_changuitos/montage_xgmhf_63.15_53.49.jpg,left,0,0,0,0,,,,,0,0,0,0,,,,,,,,,0,0,0,0,0,13,13,13,,,,,,,,,,,,,,,,,,121.53894577659375,None,None,1,121.53894577659375,None,,,,,,,,,,,,,,,,,,,,,,,,,,,,,,,,,,,,,,,,,,,,,,,,,,,,,,,,,,,,,juani,001,d,2019_Oct_10_1510,Experimento,3.2.3,59.952428347277596,
8,14,14,999,0.5,0:10,3,Blue,['space'],0,0,1,20:50,./completed_changuitos/montage_xgmhf_63.15_53.49.jpg,left,0,0,0,0,,,,,0,0,0,0,,,,,,,,,0,0,0,0,0,14,14,14,,,,,,,,,,,,,,,,,,121.53894577659375,None,None,0,121.53894577659375,None,,,,,,,,,,,,,,,,,,,,,,,,,,,,,,,,,,,,,,,,,,,,,,,,,,,,,,,,,,,,,juani,001,d,2019_Oct_10_1510,Experimento,3.2.3,59.952428347277596,
8,14,14,999,0.5,0:10,3,Yellow,None,0,0,1,20:50,./completed_changuitos/montage_xgmhf_63.15_53.49.jpg,left,0,0,0,0,,,,,0,0,0,0,,,,,,,,,0,0,0,0,0,15,15,15,,,,,,,,,,,,,,,,,,121.53894577659375,None,None,1,121.53894577659375,None,,,,,,,,,,,,,,,,,,,,,,,,,,,,,,,,,,,,,,,,,,,,,,,,,,,,,,,,,,,,,juani,001,d,2019_Oct_10_1510,Experimento,3.2.3,59.952428347277596,
8,14,14,999,0.5,0:10,3,Cyan,None,0,0,1,20:50,./completed_changuitos/montage_xgmhf_63.15_53.49.jpg,left,0,0,0,0,,,,,0,0,0,0,,,,,,,,,0,0,0,0,0,16,16,16,,,,,,,,,,,,,,,,,,121.53894577659375,None,None,1,121.53894577659375,None,,,,,,,,,,,,,,,,,,,,,,,,,,,,,,,,,,,,,,,,,,,,,,,,,,,,,,,,,,,,,juani,001,d,2019_Oct_10_1510,Experimento,3.2.3,59.952428347277596,
8,14,14,999,0.5,0:10,3,Yellow,['space'],0,0,1,20:50,./completed_changuitos/montage_xgmhf_63.15_53.49.jpg,left,0,0,0,0,,,,,0,0,0,0,,,,,,,,,0,0,0,0,0,17,17,17,,,,,,,,,,,,,,,,,,121.55543698089458,None,None,0,121.55543698089458,None,,,,,,,,,,,,,,,,,,,,,,,,,,,,,,,,,,,,,,,,,,,,,,,,,,,,,,,,,,,,,juani,001,d,2019_Oct_10_1510,Experimento,3.2.3,59.952428347277596,
8,14,14,999,0.5,0:10,3,Magenta,None,0,0,1,20:50,./completed_changuitos/montage_xgmhf_63.15_53.49.jpg,left,0,0,0,0,,,,,0,0,0,0,,,,,,,,,0,0,0,0,0,18,18,18,,,,,,,,,,,,,,,,,,121.55543698089458,None,None,1,121.55543698089458,None,,,,,,,,,,,,,,,,,,,,,,,,,,,,,,,,,,,,,,,,,,,,,,,,,,,,,,,,,,,,,juani,001,d,2019_Oct_10_1510,Experimento,3.2.3,59.952428347277596,
8,14,14,999,0.5,0:10,3,Red,None,0,0,1,20:50,./completed_changuitos/montage_xgmhf_63.15_53.49.jpg,left,0,0,0,0,,,,,0,0,0,0,,,,,,,,,0,0,0,0,0,19,19,19,,,,,,,,,,,,,,,,,,121.55543698089458,None,None,1,121.55543698089458,None,,,,,,,,,,,,,,,,,,,,,,,,,,,,,,,,,,,,,,,,,,,,,,,,,,,,,,,,,,,,,juani,001,d,2019_Oct_10_1510,Experimento,3.2.3,59.952428347277596,
8,14,14,999,0.5,0:10,3,Magenta,['space'],0,0,1,20:50,./completed_changuitos/montage_xgmhf_63.15_53.49.jpg,left,0,0,0,0,,,,,0,0,0,0,,,,,,,,,0,0,0,0,0,20,20,20,,,,,,,,,,,,,,,,,,121.55543698089458,None,None,0,121.55543698089458,None,,,,,,,,,,,,,,,,,,,,,,,,,,,,,,,,,,,,,,,,,,,,,,,,,,,,,,,,,,,,,juani,001,d,2019_Oct_10_1510,Experimento,3.2.3,59.952428347277596,
8,14,14,999,0.5,0:10,3,Red,['space'],0,0,1,20:50,./completed_changuitos/montage_xgmhf_63.15_53.49.jpg,left,0,0,0,0,,,,,0,0,0,0,,,,,,,,,0,0,0,0,0,21,21,21,,,,,,,,,,,,,,,,,,121.55543698089458,None,None,0,121.55543698089458,None,,,,,,,,,,,,,,,,,,,,,,,,,,,,,,,,,,,,,,,,,,,,,,,,,,,,,,,,,,,,,juani,001,d,2019_Oct_10_1510,Experimento,3.2.3,59.952428347277596,
8,14,14,999,0.5,0:10,3,Yellow,None,0,0,1,20:50,./completed_changuitos/montage_xgmhf_63.15_53.49.jpg,left,0,0,0,0,,,,,0,0,0,0,,,,,,,,,0,0,0,0,0,22,22,22,,,,,,,,,,,,,,,,,,121.55543698089458,None,None,1,121.55543698089458,None,,,,,,,,,,,,,,,,,,,,,,,,,,,,,,,,,,,,,,,,,,,,,,,,,,,,,,,,,,,,,juani,001,d,2019_Oct_10_1510,Experimento,3.2.3,59.952428347277596,
8,14,14,999,0.5,0:10,3,Cyan,None,0,0,1,20:50,./completed_changuitos/montage_xgmhf_63.15_53.49.jpg,left,0,0,0,0,,,,,0,0,0,0,,,,,,,,,0,0,0,0,0,23,23,23,,,,,,,,,,,,,,,,,,121.55543698089458,None,None,1,121.55543698089458,None,,,,,,,,,,,,,,,,,,,,,,,,,,,,,,,,,,,,,,,,,,,,,,,,,,,,,,,,,,,,,juani,001,d,2019_Oct_10_1510,Experimento,3.2.3,59.952428347277596,
8,14,14,999,0.5,0:10,3,Green,None,0,0,1,20:50,./completed_changuitos/montage_xgmhf_63.15_53.49.jpg,left,0,0,0,0,,,,,0,0,0,0,,,,,,,,,0,0,0,0,0,24,24,24,,,,,,,,,,,,,,,,,,121.55543698089458,None,None,1,121.55543698089458,None,,,,,,,,,,,,,,,,,,,,,,,,,,,,,,,,,,,,,,,,,,,,,,,,,,,,,,,,,,,,,juani,001,d,2019_Oct_10_1510,Experimento,3.2.3,59.952428347277596,
8,14,14,999,0.5,0:10,3,White,None,0,0,1,20:50,./completed_changuitos/montage_xgmhf_63.15_53.49.jpg,left,0,0,0,0,,,,,0,0,0,0,,,,,,,,,0,0,0,0,0,25,25,25,,,,,,,,,,,,,,,,,,121.55543698089458,None,None,1,121.55543698089458,None,,,,,,,,,,,,,,,,,,,,,,,,,,,,,,,,,,,,,,,,,,,,,,,,,,,,,,,,,,,,,juani,001,d,2019_Oct_10_1510,Experimento,3.2.3,59.952428347277596,
8,14,14,999,0.5,0:10,3,Green,['space'],0,0,1,20:50,./completed_changuitos/montage_xgmhf_63.15_53.49.jpg,left,0,0,0,0,,,,,0,0,0,0,,,,,,,,,0,0,0,0,0,26,26,26,,,,,,,,,,,,,,,,,,121.55543698089458,None,None,0,121.55543698089458,None,,,,,,,,,,,,,,,,,,,,,,,,,,,,,,,,,,,,,,,,,,,,,,,,,,,,,,,,,,,,,juani,001,d,2019_Oct_10_1510,Experimento,3.2.3,59.952428347277596,
8,14,14,999,0.5,0:10,3,Red,None,0,0,1,20:50,./completed_changuitos/montage_xgmhf_63.15_53.49.jpg,left,0,0,0,0,,,,,0,0,0,0,,,,,,,,,0,0,0,0,0,27,27,27,,,,,,,,,,,,,,,,,,121.55543698089458,None,None,1,121.55543698089458,None,,,,,,,,,,,,,,,,,,,,,,,,,,,,,,,,,,,,,,,,,,,,,,,,,,,,,,,,,,,,,juani,001,d,2019_Oct_10_1510,Experimento,3.2.3,59.952428347277596,
8,14,14,999,0.5,0:10,3,Blue,None,0,0,1,20:50,./completed_changuitos/montage_xgmhf_63.15_53.49.jpg,left,0,0,0,0,,,,,0,0,0,0,,,,,,,,,0,0,0,0,0,28,28,28,,,,,,,,,,,,,,,,,,121.57192818519543,None,None,1,121.57192818519543,None,,,,,,,,,,,,,,,,,,,,,,,,,,,,,,,,,,,,,,,,,,,,,,,,,,,,,,,,,,,,,juani,001,d,2019_Oct_10_1510,Experimento,3.2.3,59.952428347277596,
8,14,14,999,0.5,0:10,3,Green,None,0,0,1,20:50,./completed_changuitos/montage_xgmhf_63.15_53.49.jpg,left,0,0,0,0,,,,,0,0,0,0,,,,,,,,,0,0,0,0,0,29,29,29,,,,,,,,,,,,,,,,,,121.57192818519543,None,None,1,121.57192818519543,None,,,,,,,,,,,,,,,,,,,,,,,,,,,,,,,,,,,,,,,,,,,,,,,,,,,,,,,,,,,,,juani,001,d,2019_Oct_10_1510,Experimento,3.2.3,59.952428347277596,
8,14,14,999,0.5,0:10,3,,,0,0,1,20:50,./completed_changuitos/montage_xgmhf_63.15_53.49.jpg,left,0,0,0,0,,,,,0,0,0,0,,,,,,,,,0,0,0,0,,,,,,,,,,,,,,,,,,,,,,,,,,,,,121.60330012800114,None,left,1,3.4848386340017896,121.60330012800114,None,121.60330012800114,124.60489532200154,,,,,,,,,,,,,,,,,,,,,,,,,,,,,,,,,,,,,,,,,,,,,,,,,,,juani,001,d,2019_Oct_10_1510,Experimento,3.2.3,59.952428347277596,
8,14,14,999,0.5,0:10,3,,,0,0,1,20:50,,,0,0,0,0,,,,,0,0,0,0,,,,,,,,,,,,,,,,,,,,,,,,,,,,,,,,,,,,,,,,,,,,,,,,,,,,,,,,,,,,,,,,,,,,,,,,,,,,,,,,,,,,,,,,,,,,,,,,,,,,juani,001,d,2019_Oct_10_1510,Experimento,3.2.3,59.952428347277596,
8,14,14,999,0.5,0:10,3,,,0,1,0,10:50,./completed_changuitos/montage_elllj_294.25_258.95.jpg,left,0,0,0,0,,,,,0,1,1,1,,,,,0,0,0,0,,,,,,,,,,,,,,,,,,,,,,,,,,,,,,,,,,,,,,,,,,125.25858267600415,128.65352516400162,128.65352516400162,136.66754725600185,136.66754725600185,150.6793319749995,left,1,1.9498921379999956,150.6793319749995,None,150.6793319749995,None,150.6793319749995,None,,,,,,,,,,,,,,,,,,,,,,,,,,,,,,,,,,,,juani,001,d,2019_Oct_10_1510,Experimento,3.2.3,59.952428347277596,
8,14,14,999,0.5,0:10,3,,,0,1,0,10:50,,,0,0,0,0,,,,,0,1,1,1,,,,,,,,,,,,,,,,,,,,,,,,,,,,,,,,,,,,,,,,,,,,,,,,,,,,,,,,,,,,,,,,,,,,,,,,,,,,,,,,,,,,,,,,,,,,,,,,,,,,juani,001,d,2019_Oct_10_1510,Experimento,3.2.3,59.952428347277596,
8,14,14,999,0.5,0:10,3,,,0,1,0,25:50,./completed_changuitos/montage_kvbed_144.45_162.69.jpg,right,0,0,0,0,,,,,0,2,2,2,,,,,0,0,0,0,,,,,,,,,,,,,,,,,,,,,,,,,,,,,,,,,,,,,,,,,,152.79708159899747,156.577308988999,156.577308988999,164.59126614200068,164.59126614200068,178.6031284710043,right,1,0.9845886620023521,178.6031284710043,None,178.6031284710043,None,178.6031284710043,None,,,,,,,,,,,,,,,,,,,,,,,,,,,,,,,,,,,,juani,001,d,2019_Oct_10_1510,Experimento,3.2.3,59.952428347277596,
8,14,14,999,0.5,0:10,3,,,0,1,0,25:50,,,0,0,0,0,,,,,0,2,2,2,,,,,,,,,,,,,,,,,,,,,,,,,,,,,,,,,,,,,,,,,,,,,,,,,,,,,,,,,,,,,,,,,,,,,,,,,,,,,,,,,,,,,,,,,,,,,,,,,,,,juani,001,d,2019_Oct_10_1510,Experimento,3.2.3,59.952428347277596,
8,14,14,999,0.5,0:10,3,Yellow,None,0,0,1,15:50,./completed_changuitos/montage_gisxa_69.9_60.99.jpg,left,0,0,0,0,,,,,0,3,3,3,,,,,,,,,0,0,0,0,0,0,0,0,,,,,,,,,,,,,,179.72379143699072,183.16822498299007,183.16822498299007,None,191.18714313699456,191.6983190079918,None,1,191.18714313699456,None,,,,,,,,,,,,,,,,,,,,,,,,,,,,,,,,,,,,,,,,,,,,,,,,,,,,,,,,,,,,,juani,001,d,2019_Oct_10_1510,Experimento,3.2.3,59.952428347277596,
8,14,14,999,0.5,0:10,3,White,['space'],0,0,1,15:50,./completed_changuitos/montage_gisxa_69.9_60.99.jpg,left,0,0,0,0,,,,,0,3,3,3,,,,,,,,,0,0,0,0,0,1,1,1,,,,,,,,,,,,,,,,,,193.19778523099376,193.69761510899116,None,0,193.19778523099376,193.19778523099376,,,,,,,,,,,,,,,,,,,,,,,,,,,,,,,,,,,,,,,,,,,,,,,,,,,,,,,,,,,,,juani,001,d,2019_Oct_10_1510,Experimento,3.2.3,59.952428347277596,
8,14,14,999,0.5,0:10,3,Magenta,None,0,0,1,15:50,./completed_changuitos/montage_gisxa_69.9_60.99.jpg,left,0,0,0,0,,,,,0,3,3,3,,,,,,,,,0,0,0,0,0,2,2,2,,,,,,,,,,,,,,,,,,195.19735668899375,195.6974344420014,None,1,195.19735668899375,195.19735668899375,,,,,,,,,,,,,,,,,,,,,,,,,,,,,,,,,,,,,,,,,,,,,,,,,,,,,,,,,,,,,juani,001,d,2019_Oct_10_1510,Experimento,3.2.3,59.952428347277596,
8,14,14,999,0.5,0:10,3,Cyan,None,0,0,1,15:50,./completed_changuitos/montage_gisxa_69.9_60.99.jpg,left,0,0,0,0,,,,,0,3,3,3,,,,,,,,,0,0,0,0,0,3,3,3,,,,,,,,,,,,,,,,,,197.21302106000076,197.71285363700008,None,1,197.21302106000076,197.21302106000076,,,,,,,,,,,,,,,,,,,,,,,,,,,,,,,,,,,,,,,,,,,,,,,,,,,,,,,,,,,,,juani,001,d,2019_Oct_10_1510,Experimento,3.2.3,59.952428347277596,
8,14,14,999,0.5,0:10,3,Blue,None,0,0,1,15:50,./completed_changuitos/montage_gisxa_69.9_60.99.jpg,left,0,0,0,0,,,,,0,3,3,3,,,,,,,,,0,0,0,0,0,4,4,4,,,,,,,,,,,,,,,,,,199.21269673999632,199.71261719700124,None,1,199.21269673999632,199.21269673999632,,,,,,,,,,,,,,,,,,,,,,,,,,,,,,,,,,,,,,,,,,,,,,,,,,,,,,,,,,,,,juani,001,d,2019_Oct_10_1510,Experimento,3.2.3,59.952428347277596,
8,14,14,999,0.5,0:10,3,Magenta,None,0,0,1,15:50,./completed_changuitos/montage_gisxa_69.9_60.99.jpg,left,0,0,0,0,,,,,0,3,3,3,,,,,,,,,0,0,0,0,0,5,5,5,,,,,,,,,,,,,,,,,,201.22835117600334,201.72823100798996,None,1,201.22835117600334,201.22835117600334,,,,,,,,,,,,,,,,,,,,,,,,,,,,,,,,,,,,,,,,,,,,,,,,,,,,,,,,,,,,,juani,001,d,2019_Oct_10_1510,Experimento,3.2.3,59.952428347277596,
8,14,14,999,0.5,0:10,3,Blue,['space'],0,0,1,15:50,./completed_changuitos/montage_gisxa_69.9_60.99.jpg,left,0,0,0,0,,,,,0,3,3,3,,,,,,,,,0,0,0,0,0,6,6,6,,,,,,,,,,,,,,,,,,203.2276283789979,203.72791940699972,['return'],0,203.2276283789979,203.2276283789979,[0.517579344988917],,,,,,,,,,,,,,,,,,,,,,,,,,,,,,,,,,,,,,,,,,,,,,,,,,,,,,,,,,,,juani,001,d,2019_Oct_10_1510,Experimento,3.2.3,59.952428347277596,
8,14,14,999,0.5,0:10,3,Cyan,None,0,0,1,15:50,./completed_changuitos/montage_gisxa_69.9_60.99.jpg,left,0,0,0,0,,,,,0,3,3,3,,,,,,,,,0,0,0,0,0,7,7,7,,,,,,,,,,,,,,,,,,205.19389000330267,None,None,1,205.19389000330267,None,,,,,,,,,,,,,,,,,,,,,,,,,,,,,,,,,,,,,,,,,,,,,,,,,,,,,,,,,,,,,juani,001,d,2019_Oct_10_1510,Experimento,3.2.3,59.952428347277596,
8,14,14,999,0.5,0:10,3,Yellow,None,0,0,1,15:50,./completed_changuitos/montage_gisxa_69.9_60.99.jpg,left,0,0,0,0,,,,,0,3,3,3,,,,,,,,,0,0,0,0,0,8,8,8,,,,,,,,,,,,,,,,,,205.19389000330267,None,None,1,205.19389000330267,None,,,,,,,,,,,,,,,,,,,,,,,,,,,,,,,,,,,,,,,,,,,,,,,,,,,,,,,,,,,,,juani,001,d,2019_Oct_10_1510,Experimento,3.2.3,59.952428347277596,
8,14,14,999,0.5,0:10,3,Cyan,None,0,0,1,15:50,./completed_changuitos/montage_gisxa_69.9_60.99.jpg,left,0,0,0,0,,,,,0,3,3,3,,,,,,,,,0,0,0,0,0,9,9,9,,,,,,,,,,,,,,,,,,205.19389000330267,None,None,1,205.19389000330267,None,,,,,,,,,,,,,,,,,,,,,,,,,,,,,,,,,,,,,,,,,,,,,,,,,,,,,,,,,,,,,juani,001,d,2019_Oct_10_1510,Experimento,3.2.3,59.952428347277596,
8,14,14,999,0.5,0:10,3,Blue,None,0,0,1,15:50,./completed_changuitos/montage_gisxa_69.9_60.99.jpg,left,0,0,0,0,,,,,0,3,3,3,,,,,,,,,0,0,0,0,0,10,10,10,,,,,,,,,,,,,,,,,,205.19389000330267,None,None,1,205.19389000330267,None,,,,,,,,,,,,,,,,,,,,,,,,,,,,,,,,,,,,,,,,,,,,,,,,,,,,,,,,,,,,,juani,001,d,2019_Oct_10_1510,Experimento,3.2.3,59.952428347277596,
8,14,14,999,0.5,0:10,3,Cyan,['space'],0,0,1,15:50,./completed_changuitos/montage_gisxa_69.9_60.99.jpg,left,0,0,0,0,,,,,0,3,3,3,,,,,,,,,0,0,0,0,0,11,11,11,,,,,,,,,,,,,,,,,,205.21038120760352,None,None,0,205.21038120760352,None,,,,,,,,,,,,,,,,,,,,,,,,,,,,,,,,,,,,,,,,,,,,,,,,,,,,,,,,,,,,,juani,001,d,2019_Oct_10_1510,Experimento,3.2.3,59.952428347277596,
8,14,14,999,0.5,0:10,3,Magenta,None,0,0,1,15:50,./completed_changuitos/montage_gisxa_69.9_60.99.jpg,left,0,0,0,0,,,,,0,3,3,3,,,,,,,,,0,0,0,0,0,12,12,12,,,,,,,,,,,,,,,,,,205.21038120760352,None,None,1,205.21038120760352,None,,,,,,,,,,,,,,,,,,,,,,,,,,,,,,,,,,,,,,,,,,,,,,,,,,,,,,,,,,,,,juani,001,d,2019_Oct_10_1510,Experimento,3.2.3,59.952428347277596,
8,14,14,999,0.5,0:10,3,Red,None,0,0,1,15:50,./completed_changuitos/montage_gisxa_69.9_60.99.jpg,left,0,0,0,0,,,,,0,3,3,3,,,,,,,,,0,0,0,0,0,13,13,13,,,,,,,,,,,,,,,,,,205.21038120760352,None,None,1,205.21038120760352,None,,,,,,,,,,,,,,,,,,,,,,,,,,,,,,,,,,,,,,,,,,,,,,,,,,,,,,,,,,,,,juani,001,d,2019_Oct_10_1510,Experimento,3.2.3,59.952428347277596,
8,14,14,999,0.5,0:10,3,Magenta,['space'],0,0,1,15:50,./completed_changuitos/montage_gisxa_69.9_60.99.jpg,left,0,0,0,0,,,,,0,3,3,3,,,,,,,,,0,0,0,0,0,14,14,14,,,,,,,,,,,,,,,,,,205.21038120760352,None,None,0,205.21038120760352,None,,,,,,,,,,,,,,,,,,,,,,,,,,,,,,,,,,,,,,,,,,,,,,,,,,,,,,,,,,,,,juani,001,d,2019_Oct_10_1510,Experimento,3.2.3,59.952428347277596,
8,14,14,999,0.5,0:10,3,Green,None,0,0,1,15:50,./completed_changuitos/montage_gisxa_69.9_60.99.jpg,left,0,0,0,0,,,,,0,3,3,3,,,,,,,,,0,0,0,0,0,15,15,15,,,,,,,,,,,,,,,,,,205.21038120760352,None,None,1,205.21038120760352,None,,,,,,,,,,,,,,,,,,,,,,,,,,,,,,,,,,,,,,,,,,,,,,,,,,,,,,,,,,,,,juani,001,d,2019_Oct_10_1510,Experimento,3.2.3,59.952428347277596,
8,14,14,999,0.5,0:10,3,Yellow,['space'],0,0,1,15:50,./completed_changuitos/montage_gisxa_69.9_60.99.jpg,left,0,0,0,0,,,,,0,3,3,3,,,,,,,,,0,0,0,0,0,16,16,16,,,,,,,,,,,,,,,,,,205.22687241190434,None,None,0,205.22687241190434,None,,,,,,,,,,,,,,,,,,,,,,,,,,,,,,,,,,,,,,,,,,,,,,,,,,,,,,,,,,,,,juani,001,d,2019_Oct_10_1510,Experimento,3.2.3,59.952428347277596,
8,14,14,999,0.5,0:10,3,Blue,None,0,0,1,15:50,./completed_changuitos/montage_gisxa_69.9_60.99.jpg,left,0,0,0,0,,,,,0,3,3,3,,,,,,,,,0,0,0,0,0,17,17,17,,,,,,,,,,,,,,,,,,205.22687241190434,None,None,1,205.22687241190434,None,,,,,,,,,,,,,,,,,,,,,,,,,,,,,,,,,,,,,,,,,,,,,,,,,,,,,,,,,,,,,juani,001,d,2019_Oct_10_1510,Experimento,3.2.3,59.952428347277596,
8,14,14,999,0.5,0:10,3,Cyan,None,0,0,1,15:50,./completed_changuitos/montage_gisxa_69.9_60.99.jpg,left,0,0,0,0,,,,,0,3,3,3,,,,,,,,,0,0,0,0,0,18,18,18,,,,,,,,,,,,,,,,,,205.22687241190434,None,None,1,205.22687241190434,None,,,,,,,,,,,,,,,,,,,,,,,,,,,,,,,,,,,,,,,,,,,,,,,,,,,,,,,,,,,,,juani,001,d,2019_Oct_10_1510,Experimento,3.2.3,59.952428347277596,
8,14,14,999,0.5,0:10,3,Blue,['space'],0,0,1,15:50,./completed_changuitos/montage_gisxa_69.9_60.99.jpg,left,0,0,0,0,,,,,0,3,3,3,,,,,,,,,0,0,0,0,0,19,19,19,,,,,,,,,,,,,,,,,,205.22687241190434,None,None,0,205.22687241190434,None,,,,,,,,,,,,,,,,,,,,,,,,,,,,,,,,,,,,,,,,,,,,,,,,,,,,,,,,,,,,,juani,001,d,2019_Oct_10_1510,Experimento,3.2.3,59.952428347277596,
8,14,14,999,0.5,0:10,3,Yellow,None,0,0,1,15:50,./completed_changuitos/montage_gisxa_69.9_60.99.jpg,left,0,0,0,0,,,,,0,3,3,3,,,,,,,,,0,0,0,0,0,20,20,20,,,,,,,,,,,,,,,,,,205.22687241190434,None,None,1,205.22687241190434,None,,,,,,,,,,,,,,,,,,,,,,,,,,,,,,,,,,,,,,,,,,,,,,,,,,,,,,,,,,,,,juani,001,d,2019_Oct_10_1510,Experimento,3.2.3,59.952428347277596,
8,14,14,999,0.5,0:10,3,Cyan,None,0,0,1,15:50,./completed_changuitos/montage_gisxa_69.9_60.99.jpg,left,0,0,0,0,,,,,0,3,3,3,,,,,,,,,0,0,0,0,0,21,21,21,,,,,,,,,,,,,,,,,,205.22687241190434,None,None,1,205.22687241190434,None,,,,,,,,,,,,,,,,,,,,,,,,,,,,,,,,,,,,,,,,,,,,,,,,,,,,,,,,,,,,,juani,001,d,2019_Oct_10_1510,Experimento,3.2.3,59.952428347277596,
8,14,14,999,0.5,0:10,3,Yellow,['space'],0,0,1,15:50,./completed_changuitos/montage_gisxa_69.9_60.99.jpg,left,0,0,0,0,,,,,0,3,3,3,,,,,,,,,0,0,0,0,0,22,22,22,,,,,,,,,,,,,,,,,,205.22687241190434,None,None,0,205.22687241190434,None,,,,,,,,,,,,,,,,,,,,,,,,,,,,,,,,,,,,,,,,,,,,,,,,,,,,,,,,,,,,,juani,001,d,2019_Oct_10_1510,Experimento,3.2.3,59.952428347277596,
8,14,14,999,0.5,0:10,3,Magenta,None,0,0,1,15:50,./completed_changuitos/montage_gisxa_69.9_60.99.jpg,left,0,0,0,0,,,,,0,3,3,3,,,,,,,,,0,0,0,0,0,23,23,23,,,,,,,,,,,,,,,,,,205.22687241190434,None,None,1,205.22687241190434,None,,,,,,,,,,,,,,,,,,,,,,,,,,,,,,,,,,,,,,,,,,,,,,,,,,,,,,,,,,,,,juani,001,d,2019_Oct_10_1510,Experimento,3.2.3,59.952428347277596,
8,14,14,999,0.5,0:10,3,Red,None,0,0,1,15:50,./completed_changuitos/montage_gisxa_69.9_60.99.jpg,left,0,0,0,0,,,,,0,3,3,3,,,,,,,,,0,0,0,0,0,24,24,24,,,,,,,,,,,,,,,,,,205.22687241190434,None,None,1,205.22687241190434,None,,,,,,,,,,,,,,,,,,,,,,,,,,,,,,,,,,,,,,,,,,,,,,,,,,,,,,,,,,,,,juani,001,d,2019_Oct_10_1510,Experimento,3.2.3,59.952428347277596,
8,14,14,999,0.5,0:10,3,Magenta,['space'],0,0,1,15:50,./completed_changuitos/montage_gisxa_69.9_60.99.jpg,left,0,0,0,0,,,,,0,3,3,3,,,,,,,,,0,0,0,0,0,25,25,25,,,,,,,,,,,,,,,,,,205.22687241190434,None,None,0,205.22687241190434,None,,,,,,,,,,,,,,,,,,,,,,,,,,,,,,,,,,,,,,,,,,,,,,,,,,,,,,,,,,,,,juani,001,d,2019_Oct_10_1510,Experimento,3.2.3,59.952428347277596,
8,14,14,999,0.5,0:10,3,Red,['space'],0,0,1,15:50,./completed_changuitos/montage_gisxa_69.9_60.99.jpg,left,0,0,0,0,,,,,0,3,3,3,,,,,,,,,0,0,0,0,0,26,26,26,,,,,,,,,,,,,,,,,,205.22687241190434,None,None,0,205.22687241190434,None,,,,,,,,,,,,,,,,,,,,,,,,,,,,,,,,,,,,,,,,,,,,,,,,,,,,,,,,,,,,,juani,001,d,2019_Oct_10_1510,Experimento,3.2.3,59.952428347277596,
8,14,14,999,0.5,0:10,3,Yellow,None,0,0,1,15:50,./completed_changuitos/montage_gisxa_69.9_60.99.jpg,left,0,0,0,0,,,,,0,3,3,3,,,,,,,,,0,0,0,0,0,27,27,27,,,,,,,,,,,,,,,,,,205.22687241190434,None,None,1,205.22687241190434,None,,,,,,,,,,,,,,,,,,,,,,,,,,,,,,,,,,,,,,,,,,,,,,,,,,,,,,,,,,,,,juani,001,d,2019_Oct_10_1510,Experimento,3.2.3,59.952428347277596,
8,14,14,999,0.5,0:10,3,Cyan,None,0,0,1,15:50,./completed_changuitos/montage_gisxa_69.9_60.99.jpg,left,0,0,0,0,,,,,0,3,3,3,,,,,,,,,0,0,0,0,0,28,28,28,,,,,,,,,,,,,,,,,,205.2433636162052,None,None,1,205.2433636162052,None,,,,,,,,,,,,,,,,,,,,,,,,,,,,,,,,,,,,,,,,,,,,,,,,,,,,,,,,,,,,,juani,001,d,2019_Oct_10_1510,Experimento,3.2.3,59.952428347277596,
8,14,14,999,0.5,0:10,3,Green,None,0,0,1,15:50,./completed_changuitos/montage_gisxa_69.9_60.99.jpg,left,0,0,0,0,,,,,0,3,3,3,,,,,,,,,0,0,0,0,0,29,29,29,,,,,,,,,,,,,,,,,,205.2433636162052,None,None,1,205.2433636162052,None,,,,,,,,,,,,,,,,,,,,,,,,,,,,,,,,,,,,,,,,,,,,,,,,,,,,,,,,,,,,,juani,001,d,2019_Oct_10_1510,Experimento,3.2.3,59.952428347277596,
8,14,14,999,0.5,0:10,3,White,None,0,0,1,15:50,./completed_changuitos/montage_gisxa_69.9_60.99.jpg,left,0,0,0,0,,,,,0,3,3,3,,,,,,,,,0,0,0,0,0,30,30,30,,,,,,,,,,,,,,,,,,205.2433636162052,None,None,1,205.2433636162052,None,,,,,,,,,,,,,,,,,,,,,,,,,,,,,,,,,,,,,,,,,,,,,,,,,,,,,,,,,,,,,juani,001,d,2019_Oct_10_1510,Experimento,3.2.3,59.952428347277596,
8,14,14,999,0.5,0:10,3,Green,['space'],0,0,1,15:50,./completed_changuitos/montage_gisxa_69.9_60.99.jpg,left,0,0,0,0,,,,,0,3,3,3,,,,,,,,,0,0,0,0,0,31,31,31,,,,,,,,,,,,,,,,,,205.2433636162052,None,None,0,205.2433636162052,None,,,,,,,,,,,,,,,,,,,,,,,,,,,,,,,,,,,,,,,,,,,,,,,,,,,,,,,,,,,,,juani,001,d,2019_Oct_10_1510,Experimento,3.2.3,59.952428347277596,
8,14,14,999,0.5,0:10,3,Red,None,0,0,1,15:50,./completed_changuitos/montage_gisxa_69.9_60.99.jpg,left,0,0,0,0,,,,,0,3,3,3,,,,,,,,,0,0,0,0,0,32,32,32,,,,,,,,,,,,,,,,,,205.2433636162052,None,None,1,205.2433636162052,None,,,,,,,,,,,,,,,,,,,,,,,,,,,,,,,,,,,,,,,,,,,,,,,,,,,,,,,,,,,,,juani,001,d,2019_Oct_10_1510,Experimento,3.2.3,59.952428347277596,
8,14,14,999,0.5,0:10,3,Blue,None,0,0,1,15:50,./completed_changuitos/montage_gisxa_69.9_60.99.jpg,left,0,0,0,0,,,,,0,3,3,3,,,,,,,,,0,0,0,0,0,33,33,33,,,,,,,,,,,,,,,,,,205.2433636162052,None,None,1,205.2433636162052,None,,,,,,,,,,,,,,,,,,,,,,,,,,,,,,,,,,,,,,,,,,,,,,,,,,,,,,,,,,,,,juani,001,d,2019_Oct_10_1510,Experimento,3.2.3,59.952428347277596,
8,14,14,999,0.5,0:10,3,Green,None,0,0,1,15:50,./completed_changuitos/montage_gisxa_69.9_60.99.jpg,left,0,0,0,0,,,,,0,3,3,3,,,,,,,,,0,0,0,0,0,34,34,34,,,,,,,,,,,,,,,,,,205.2433636162052,None,None,1,205.2433636162052,None,,,,,,,,,,,,,,,,,,,,,,,,,,,,,,,,,,,,,,,,,,,,,,,,,,,,,,,,,,,,,juani,001,d,2019_Oct_10_1510,Experimento,3.2.3,59.952428347277596,
8,14,14,999,0.5,0:10,3,,,0,0,1,15:50,./completed_changuitos/montage_gisxa_69.9_60.99.jpg,left,0,0,0,0,,,,,0,3,3,3,,,,,,,,,0,0,0,0,,,,,,,,,,,,,,,,,,,,,,,,,,,,,205.2822294959915,None,left,1,1.7603351330035366,205.2822294959915,None,205.2822294959915,None,,,,,,,,,,,,,,,,,,,,,,,,,,,,,,,,,,,,,,,,,,,,,,,,,,,juani,001,d,2019_Oct_10_1510,Experimento,3.2.3,59.952428347277596,
8,14,14,999,0.5,0:10,3,,,0,0,1,15:50,,,0,0,0,0,,,,,0,3,3,3,,,,,,,,,,,,,,,,,,,,,,,,,,,,,,,,,,,,,,,,,,,,,,,,,,,,,,,,,,,,,,,,,,,,,,,,,,,,,,,,,,,,,,,,,,,,,,,,,,,,juani,001,d,2019_Oct_10_1510,Experimento,3.2.3,59.952428347277596,
8,14,14,999,0.5,0:10,3,,,0,1,0,10:50,./completed_changuitos/montage_nxmpp_78.65_89.9.jpg,right,0,0,0,0,,,,,0,4,4,4,,,,,0,0,0,0,,,,,,,,,,,,,,,,,,,,,,,,,,,,,,,,,,,,,,,,,,207.1726635919913,208.5258444689971,208.5258444689971,216.53975192600046,216.53975192600046,230.5516417809995,left,0,1.116517242990085,230.5516417809995,None,230.5516417809995,None,230.5516417809995,None,,,,,,,,,,,,,,,,,,,,,,,,,,,,,,,,,,,,juani,001,d,2019_Oct_10_1510,Experimento,3.2.3,59.952428347277596,
8,14,14,999,0.5,0:10,3,,,0,1,0,10:50,,,0,0,0,0,,,,,0,4,4,4,,,,,,,,,,,,,,,,,,,,,,,,,,,,,,,,,,,,,,,,,,,,,,,,,,,,,,,,,,,,,,,,,,,,,,,,,,,,,,,,,,,,,,,,,,,,,,,,,,,,juani,001,d,2019_Oct_10_1510,Experimento,3.2.3,59.952428347277596,
8,14,14,999,0.5,0:10,3,Red,None,0,0,1,28:50,./completed_changuitos/montage_vsurx_58.85_68.49.jpg,right,0,0,0,0,,,,,0,5,5,5,,,,,,,,,0,0,0,0,0,0,0,0,,,,,,,,,,,,,,231.8098786240007,237.06646981999802,237.06646981999802,None,245.10959927400108,245.61360616100137,None,1,245.10959927400108,None,,,,,,,,,,,,,,,,,,,,,,,,,,,,,,,,,,,,,,,,,,,,,,,,,,,,,,,,,,,,,juani,001,d,2019_Oct_10_1510,Experimento,3.2.3,59.952428347277596,
8,14,14,999,0.5,0:10,3,Magenta,['space'],0,0,1,28:50,./completed_changuitos/montage_vsurx_58.85_68.49.jpg,right,0,0,0,0,,,,,0,5,5,5,,,,,,,,,0,0,0,0,0,1,1,1,,,,,,,,,,,,,,,,,,247.1129523379932,247.612917542996,None,0,247.1129523379932,247.1129523379932,,,,,,,,,,,,,,,,,,,,,,,,,,,,,,,,,,,,,,,,,,,,,,,,,,,,,,,,,,,,,juani,001,d,2019_Oct_10_1510,Experimento,3.2.3,59.952428347277596,
8,14,14,999,0.5,0:10,3,Green,None,0,0,1,28:50,./completed_changuitos/montage_vsurx_58.85_68.49.jpg,right,0,0,0,0,,,,,0,5,5,5,,,,,,,,,0,0,0,0,0,2,2,2,,,,,,,,,,,,,,,,,,249.1123583430017,249.61217518500052,None,1,249.1123583430017,249.1123583430017,,,,,,,,,,,,,,,,,,,,,,,,,,,,,,,,,,,,,,,,,,,,,,,,,,,,,,,,,,,,,juani,001,d,2019_Oct_10_1510,Experimento,3.2.3,59.952428347277596,
8,14,14,999,0.5,0:10,3,Yellow,['space'],0,0,1,28:50,./completed_changuitos/montage_vsurx_58.85_68.49.jpg,right,0,0,0,0,,,,,0,5,5,5,,,,,,,,,0,0,0,0,0,3,3,3,,,,,,,,,,,,,,,,,,251.1115784260037,251.6114818490023,None,0,251.1115784260037,251.1115784260037,,,,,,,,,,,,,,,,,,,,,,,,,,,,,,,,,,,,,,,,,,,,,,,,,,,,,,,,,,,,,juani,001,d,2019_Oct_10_1510,Experimento,3.2.3,59.952428347277596,
8,14,14,999,0.5,0:10,3,Blue,None,0,0,1,28:50,./completed_changuitos/montage_vsurx_58.85_68.49.jpg,right,0,0,0,0,,,,,0,5,5,5,,,,,,,,,0,0,0,0,0,4,4,4,,,,,,,,,,,,,,,,,,253.11093156599964,253.61045782000292,None,1,253.11093156599964,253.11093156599964,,,,,,,,,,,,,,,,,,,,,,,,,,,,,,,,,,,,,,,,,,,,,,,,,,,,,,,,,,,,,juani,001,d,2019_Oct_10_1510,Experimento,3.2.3,59.952428347277596,
8,14,14,999,0.5,0:10,3,Cyan,None,0,0,1,28:50,./completed_changuitos/montage_vsurx_58.85_68.49.jpg,right,0,0,0,0,,,,,0,5,5,5,,,,,,,,,0,0,0,0,0,5,5,5,,,,,,,,,,,,,,,,,,255.1102436939982,255.61012011200364,None,1,255.1102436939982,255.1102436939982,,,,,,,,,,,,,,,,,,,,,,,,,,,,,,,,,,,,,,,,,,,,,,,,,,,,,,,,,,,,,juani,001,d,2019_Oct_10_1510,Experimento,3.2.3,59.952428347277596,
8,14,14,999,0.5,0:10,3,Blue,['space'],0,0,1,28:50,./completed_changuitos/montage_vsurx_58.85_68.49.jpg,right,0,0,0,0,,,,,0,5,5,5,,,,,,,,,0,0,0,0,0,6,6,6,,,,,,,,,,,,,,,,,,257.1096218349994,257.60944305200246,['return'],0,257.1096218349994,257.1096218349994,[0.3172362459881697],,,,,,,,,,,,,,,,,,,,,,,,,,,,,,,,,,,,,,,,,,,,,,,,,,,,,,,,,,,,juani,001,d,2019_Oct_10_1510,Experimento,3.2.3,59.952428347277596,
8,14,14,999,0.5,0:10,3,Yellow,None,0,0,1,28:50,./completed_changuitos/montage_vsurx_58.85_68.49.jpg,right,0,0,0,0,,,,,0,5,5,5,,,,,,,,,0,0,0,0,0,7,7,7,,,,,,,,,,,,,,,,,,259.0916814912969,None,None,1,259.0916814912969,None,,,,,,,,,,,,,,,,,,,,,,,,,,,,,,,,,,,,,,,,,,,,,,,,,,,,,,,,,,,,,juani,001,d,2019_Oct_10_1510,Experimento,3.2.3,59.952428347277596,
8,14,14,999,0.5,0:10,3,Cyan,None,0,0,1,28:50,./completed_changuitos/montage_vsurx_58.85_68.49.jpg,right,0,0,0,0,,,,,0,5,5,5,,,,,,,,,0,0,0,0,0,8,8,8,,,,,,,,,,,,,,,,,,259.0916814912969,None,None,1,259.0916814912969,None,,,,,,,,,,,,,,,,,,,,,,,,,,,,,,,,,,,,,,,,,,,,,,,,,,,,,,,,,,,,,juani,001,d,2019_Oct_10_1510,Experimento,3.2.3,59.952428347277596,
8,14,14,999,0.5,0:10,3,Yellow,['space'],0,0,1,28:50,./completed_changuitos/montage_vsurx_58.85_68.49.jpg,right,0,0,0,0,,,,,0,5,5,5,,,,,,,,,0,0,0,0,0,9,9,9,,,,,,,,,,,,,,,,,,259.0916814912969,None,None,0,259.0916814912969,None,,,,,,,,,,,,,,,,,,,,,,,,,,,,,,,,,,,,,,,,,,,,,,,,,,,,,,,,,,,,,juani,001,d,2019_Oct_10_1510,Experimento,3.2.3,59.952428347277596,
8,14,14,999,0.5,0:10,3,Magenta,None,0,0,1,28:50,./completed_changuitos/montage_vsurx_58.85_68.49.jpg,right,0,0,0,0,,,,,0,5,5,5,,,,,,,,,0,0,0,0,0,10,10,10,,,,,,,,,,,,,,,,,,259.0916814912969,None,None,1,259.0916814912969,None,,,,,,,,,,,,,,,,,,,,,,,,,,,,,,,,,,,,,,,,,,,,,,,,,,,,,,,,,,,,,juani,001,d,2019_Oct_10_1510,Experimento,3.2.3,59.952428347277596,
8,14,14,999,0.5,0:10,3,Red,None,0,0,1,28:50,./completed_changuitos/montage_vsurx_58.85_68.49.jpg,right,0,0,0,0,,,,,0,5,5,5,,,,,,,,,0,0,0,0,0,11,11,11,,,,,,,,,,,,,,,,,,259.0916814912969,None,None,1,259.0916814912969,None,,,,,,,,,,,,,,,,,,,,,,,,,,,,,,,,,,,,,,,,,,,,,,,,,,,,,,,,,,,,,juani,001,d,2019_Oct_10_1510,Experimento,3.2.3,59.952428347277596,
8,14,14,999,0.5,0:10,3,Magenta,['space'],0,0,1,28:50,./completed_changuitos/montage_vsurx_58.85_68.49.jpg,right,0,0,0,0,,,,,0,5,5,5,,,,,,,,,0,0,0,0,0,12,12,12,,,,,,,,,,,,,,,,,,259.0916814912969,None,None,0,259.0916814912969,None,,,,,,,,,,,,,,,,,,,,,,,,,,,,,,,,,,,,,,,,,,,,,,,,,,,,,,,,,,,,,juani,001,d,2019_Oct_10_1510,Experimento,3.2.3,59.952428347277596,
8,14,14,999,0.5,0:10,3,Red,['space'],0,0,1,28:50,./completed_changuitos/montage_vsurx_58.85_68.49.jpg,right,0,0,0,0,,,,,0,5,5,5,,,,,,,,,0,0,0,0,0,13,13,13,,,,,,,,,,,,,,,,,,259.0916814912969,None,None,0,259.0916814912969,None,,,,,,,,,,,,,,,,,,,,,,,,,,,,,,,,,,,,,,,,,,,,,,,,,,,,,,,,,,,,,juani,001,d,2019_Oct_10_1510,Experimento,3.2.3,59.952428347277596,
8,14,14,999,0.5,0:10,3,Yellow,None,0,0,1,28:50,./completed_changuitos/montage_vsurx_58.85_68.49.jpg,right,0,0,0,0,,,,,0,5,5,5,,,,,,,,,0,0,0,0,0,14,14,14,,,,,,,,,,,,,,,,,,259.0916814912969,None,None,1,259.0916814912969,None,,,,,,,,,,,,,,,,,,,,,,,,,,,,,,,,,,,,,,,,,,,,,,,,,,,,,,,,,,,,,juani,001,d,2019_Oct_10_1510,Experimento,3.2.3,59.952428347277596,
8,14,14,999,0.5,0:10,3,Cyan,None,0,0,1,28:50,./completed_changuitos/montage_vsurx_58.85_68.49.jpg,right,0,0,0,0,,,,,0,5,5,5,,,,,,,,,0,0,0,0,0,15,15,15,,,,,,,,,,,,,,,,,,259.0916814912969,None,None,1,259.0916814912969,None,,,,,,,,,,,,,,,,,,,,,,,,,,,,,,,,,,,,,,,,,,,,,,,,,,,,,,,,,,,,,juani,001,d,2019_Oct_10_1510,Experimento,3.2.3,59.952428347277596,
8,14,14,999,0.5,0:10,3,Green,None,0,0,1,28:50,./completed_changuitos/montage_vsurx_58.85_68.49.jpg,right,0,0,0,0,,,,,0,5,5,5,,,,,,,,,0,0,0,0,0,16,16,16,,,,,,,,,,,,,,,,,,259.0916814912969,None,None,1,259.0916814912969,None,,,,,,,,,,,,,,,,,,,,,,,,,,,,,,,,,,,,,,,,,,,,,,,,,,,,,,,,,,,,,juani,001,d,2019_Oct_10_1510,Experimento,3.2.3,59.952428347277596,
8,14,14,999,0.5,0:10,3,White,None,0,0,1,28:50,./completed_changuitos/montage_vsurx_58.85_68.49.jpg,right,0,0,0,0,,,,,0,5,5,5,,,,,,,,,0,0,0,0,0,17,17,17,,,,,,,,,,,,,,,,,,259.0916814912969,None,None,1,259.0916814912969,None,,,,,,,,,,,,,,,,,,,,,,,,,,,,,,,,,,,,,,,,,,,,,,,,,,,,,,,,,,,,,juani,001,d,2019_Oct_10_1510,Experimento,3.2.3,59.952428347277596,
8,14,14,999,0.5,0:10,3,Green,['space'],0,0,1,28:50,./completed_changuitos/montage_vsurx_58.85_68.49.jpg,right,0,0,0,0,,,,,0,5,5,5,,,,,,,,,0,0,0,0,0,18,18,18,,,,,,,,,,,,,,,,,,259.0916814912969,None,None,0,259.0916814912969,None,,,,,,,,,,,,,,,,,,,,,,,,,,,,,,,,,,,,,,,,,,,,,,,,,,,,,,,,,,,,,juani,001,d,2019_Oct_10_1510,Experimento,3.2.3,59.952428347277596,
8,14,14,999,0.5,0:10,3,Red,None,0,0,1,28:50,./completed_changuitos/montage_vsurx_58.85_68.49.jpg,right,0,0,0,0,,,,,0,5,5,5,,,,,,,,,0,0,0,0,0,19,19,19,,,,,,,,,,,,,,,,,,259.0916814912969,None,None,1,259.0916814912969,None,,,,,,,,,,,,,,,,,,,,,,,,,,,,,,,,,,,,,,,,,,,,,,,,,,,,,,,,,,,,,juani,001,d,2019_Oct_10_1510,Experimento,3.2.3,59.952428347277596,
8,14,14,999,0.5,0:10,3,Blue,None,0,0,1,28:50,./completed_changuitos/montage_vsurx_58.85_68.49.jpg,right,0,0,0,0,,,,,0,5,5,5,,,,,,,,,0,0,0,0,0,20,20,20,,,,,,,,,,,,,,,,,,259.0916814912969,None,None,1,259.0916814912969,None,,,,,,,,,,,,,,,,,,,,,,,,,,,,,,,,,,,,,,,,,,,,,,,,,,,,,,,,,,,,,juani,001,d,2019_Oct_10_1510,Experimento,3.2.3,59.952428347277596,
8,14,14,999,0.5,0:10,3,Green,None,0,0,1,28:50,./completed_changuitos/montage_vsurx_58.85_68.49.jpg,right,0,0,0,0,,,,,0,5,5,5,,,,,,,,,0,0,0,0,0,21,21,21,,,,,,,,,,,,,,,,,,259.0916814912969,None,None,1,259.0916814912969,None,,,,,,,,,,,,,,,,,,,,,,,,,,,,,,,,,,,,,,,,,,,,,,,,,,,,,,,,,,,,,juani,001,d,2019_Oct_10_1510,Experimento,3.2.3,59.952428347277596,
8,14,14,999,0.5,0:10,3,,,0,0,1,28:50,./completed_changuitos/montage_vsurx_58.85_68.49.jpg,right,0,0,0,0,,,,,0,5,5,5,,,,,,,,,0,0,0,0,,,,,,,,,,,,,,,,,,,,,,,,,,,,,259.13651852500334,None,right,1,1.521804144998896,259.13651852500334,None,259.13651852500334,None,,,,,,,,,,,,,,,,,,,,,,,,,,,,,,,,,,,,,,,,,,,,,,,,,,,juani,001,d,2019_Oct_10_1510,Experimento,3.2.3,59.952428347277596,
8,14,14,999,0.5,0:10,3,,,0,0,1,28:50,,,0,0,0,0,,,,,0,5,5,5,,,,,,,,,,,,,,,,,,,,,,,,,,,,,,,,,,,,,,,,,,,,,,,,,,,,,,,,,,,,,,,,,,,,,,,,,,,,,,,,,,,,,,,,,,,,,,,,,,,,juani,001,d,2019_Oct_10_1510,Experimento,3.2.3,59.952428347277596,
8,14,14,999,0.5,0:10,3,,,0,1,0,19:50,./completed_changuitos/montage_ddsgj_226.29_198.49.jpg,left,0,0,0,0,,,,,0,6,6,6,,,,,0,0,0,0,,,,,,,,,,,,,,,,,,,,,,,,,,,,,,,,,,,,,,,,,,260.79571489700174,261.9913027309958,261.9913027309958,270.0051853059995,270.0051853059995,284.0170844039967,right,0,1.7658397890045308,284.0170844039967,None,284.0170844039967,None,284.0170844039967,None,,,,,,,,,,,,,,,,,,,,,,,,,,,,,,,,,,,,juani,001,d,2019_Oct_10_1510,Experimento,3.2.3,59.952428347277596,
8,14,14,999,0.5,0:10,3,,,0,1,0,19:50,,,0,0,0,0,,,,,0,6,6,6,,,,,,,,,,,,,,,,,,,,,,,,,,,,,,,,,,,,,,,,,,,,,,,,,,,,,,,,,,,,,,,,,,,,,,,,,,,,,,,,,,,,,,,,,,,,,,,,,,,,juani,001,d,2019_Oct_10_1510,Experimento,3.2.3,59.952428347277596,
8,14,14,999,0.5,0:10,3,,,0,1,0,19:50,./completed_changuitos/montage_pvfrn_117.69_102.65.jpg,left,0,0,0,0,,,,,0,7,7,7,,,,,0,0,0,0,,,,,,,,,,,,,,,,,,,,,,,,,,,,,,,,,,,,,,,,,,285.9288149639906,287.04942388999916,287.04942388999916,295.06296790999477,295.06296790999477,309.07515457899717,right,0,1.00018721500237,309.07515457899717,None,309.07515457899717,None,309.07515457899717,None,,,,,,,,,,,,,,,,,,,,,,,,,,,,,,,,,,,,juani,001,d,2019_Oct_10_1510,Experimento,3.2.3,59.952428347277596,
8,14,14,999,0.5,0:10,3,,,0,1,0,19:50,,,0,0,0,0,,,,,0,7,7,7,,,,,,,,,,,,,,,,,,,,,,,,,,,,,,,,,,,,,,,,,,,,,,,,,,,,,,,,,,,,,,,,,,,,,,,,,,,,,,,,,,,,,,,,,,,,,,,,,,,,juani,001,d,2019_Oct_10_1510,Experimento,3.2.3,59.952428347277596,
8,14,14,999,0.5,0:10,3,Yellow,None,0,0,1,15:50,./completed_changuitos/montage_cpdek_184.05_160.49.jpg,left,0,0,0,0,,,,,0,8,8,8,,,,,,,,,0,0,0,0,0,0,0,0,,,,,,,,,,,,,,310.21001604699995,312.00754455599235,312.00754455599235,None,320.02485370400245,320.53750738500094,None,1,320.02485370400245,None,,,,,,,,,,,,,,,,,,,,,,,,,,,,,,,,,,,,,,,,,,,,,,,,,,,,,,,,,,,,,juani,001,d,2019_Oct_10_1510,Experimento,3.2.3,59.952428347277596,
8,14,14,999,0.5,0:10,3,White,['space'],0,0,1,15:50,./completed_changuitos/montage_cpdek_184.05_160.49.jpg,left,0,0,0,0,,,,,0,8,8,8,,,,,,,,,0,0,0,0,0,1,1,1,,,,,,,,,,,,,,,,,,322.03728687699186,322.5372256599949,None,0,322.03728687699186,322.03728687699186,,,,,,,,,,,,,,,,,,,,,,,,,,,,,,,,,,,,,,,,,,,,,,,,,,,,,,,,,,,,,juani,001,d,2019_Oct_10_1510,Experimento,3.2.3,59.952428347277596,
8,14,14,999,0.5,0:10,3,Magenta,None,0,0,1,15:50,./completed_changuitos/montage_cpdek_184.05_160.49.jpg,left,0,0,0,0,,,,,0,8,8,8,,,,,,,,,0,0,0,0,0,2,2,2,,,,,,,,,,,,,,,,,,324.036696657,324.53619540198997,None,1,324.036696657,324.036696657,,,,,,,,,,,,,,,,,,,,,,,,,,,,,,,,,,,,,,,,,,,,,,,,,,,,,,,,,,,,,juani,001,d,2019_Oct_10_1510,Experimento,3.2.3,59.952428347277596,
8,14,14,999,0.5,0:10,3,Cyan,None,0,0,1,15:50,./completed_changuitos/montage_cpdek_184.05_160.49.jpg,left,0,0,0,0,,,,,0,8,8,8,,,,,,,,,0,0,0,0,0,3,3,3,,,,,,,,,,,,,,,,,,326.05954348699015,326.5687905999948,None,1,326.05954348699015,326.05954348699015,,,,,,,,,,,,,,,,,,,,,,,,,,,,,,,,,,,,,,,,,,,,,,,,,,,,,,,,,,,,,juani,001,d,2019_Oct_10_1510,Experimento,3.2.3,59.952428347277596,
8,14,14,999,0.5,0:10,3,Blue,None,0,0,1,15:50,./completed_changuitos/montage_cpdek_184.05_160.49.jpg,left,0,0,0,0,,,,,0,8,8,8,,,,,,,,,0,0,0,0,0,4,4,4,,,,,,,,,,,,,,,,,,328.06828356299957,328.5684933369921,None,1,328.06828356299957,328.06828356299957,,,,,,,,,,,,,,,,,,,,,,,,,,,,,,,,,,,,,,,,,,,,,,,,,,,,,,,,,,,,,juani,001,d,2019_Oct_10_1510,Experimento,3.2.3,59.952428347277596,
8,14,14,999,0.5,0:10,3,Magenta,None,0,0,1,15:50,./completed_changuitos/montage_cpdek_184.05_160.49.jpg,left,0,0,0,0,,,,,0,8,8,8,,,,,,,,,0,0,0,0,0,5,5,5,,,,,,,,,,,,,,,,,,330.0679287859966,330.567539576994,None,1,330.0679287859966,330.0679287859966,,,,,,,,,,,,,,,,,,,,,,,,,,,,,,,,,,,,,,,,,,,,,,,,,,,,,,,,,,,,,juani,001,d,2019_Oct_10_1510,Experimento,3.2.3,59.952428347277596,
8,14,14,999,0.5,0:10,3,Blue,['space'],0,0,1,15:50,./completed_changuitos/montage_cpdek_184.05_160.49.jpg,left,0,0,0,0,,,,,0,8,8,8,,,,,,,,,0,0,0,0,0,6,6,6,,,,,,,,,,,,,,,,,,332.0835620470025,332.58343437199073,['return'],0,332.0835620470025,332.0835620470025,[0.36691797099774703],,,,,,,,,,,,,,,,,,,,,,,,,,,,,,,,,,,,,,,,,,,,,,,,,,,,,,,,,,,,juani,001,d,2019_Oct_10_1510,Experimento,3.2.3,59.952428347277596,
8,14,14,999,0.5,0:10,3,Cyan,None,0,0,1,15:50,./completed_changuitos/montage_cpdek_184.05_160.49.jpg,left,0,0,0,0,,,,,0,8,8,8,,,,,,,,,0,0,0,0,0,7,7,7,,,,,,,,,,,,,,,,,,334.0331633202921,None,None,1,334.0331633202921,None,,,,,,,,,,,,,,,,,,,,,,,,,,,,,,,,,,,,,,,,,,,,,,,,,,,,,,,,,,,,,juani,001,d,2019_Oct_10_1510,Experimento,3.2.3,59.952428347277596,
8,14,14,999,0.5,0:10,3,Yellow,None,0,0,1,15:50,./completed_changuitos/montage_cpdek_184.05_160.49.jpg,left,0,0,0,0,,,,,0,8,8,8,,,,,,,,,0,0,0,0,0,8,8,8,,,,,,,,,,,,,,,,,,334.0331633202921,None,None,1,334.0331633202921,None,,,,,,,,,,,,,,,,,,,,,,,,,,,,,,,,,,,,,,,,,,,,,,,,,,,,,,,,,,,,,juani,001,d,2019_Oct_10_1510,Experimento,3.2.3,59.952428347277596,
8,14,14,999,0.5,0:10,3,Cyan,None,0,0,1,15:50,./completed_changuitos/montage_cpdek_184.05_160.49.jpg,left,0,0,0,0,,,,,0,8,8,8,,,,,,,,,0,0,0,0,0,9,9,9,,,,,,,,,,,,,,,,,,334.0331633202921,None,None,1,334.0331633202921,None,,,,,,,,,,,,,,,,,,,,,,,,,,,,,,,,,,,,,,,,,,,,,,,,,,,,,,,,,,,,,juani,001,d,2019_Oct_10_1510,Experimento,3.2.3,59.952428347277596,
8,14,14,999,0.5,0:10,3,Blue,None,0,0,1,15:50,./completed_changuitos/montage_cpdek_184.05_160.49.jpg,left,0,0,0,0,,,,,0,8,8,8,,,,,,,,,0,0,0,0,0,10,10,10,,,,,,,,,,,,,,,,,,334.0331633202921,None,None,1,334.0331633202921,None,,,,,,,,,,,,,,,,,,,,,,,,,,,,,,,,,,,,,,,,,,,,,,,,,,,,,,,,,,,,,juani,001,d,2019_Oct_10_1510,Experimento,3.2.3,59.952428347277596,
8,14,14,999,0.5,0:10,3,Cyan,['space'],0,0,1,15:50,./completed_changuitos/montage_cpdek_184.05_160.49.jpg,left,0,0,0,0,,,,,0,8,8,8,,,,,,,,,0,0,0,0,0,11,11,11,,,,,,,,,,,,,,,,,,334.04965452459294,None,None,0,334.04965452459294,None,,,,,,,,,,,,,,,,,,,,,,,,,,,,,,,,,,,,,,,,,,,,,,,,,,,,,,,,,,,,,juani,001,d,2019_Oct_10_1510,Experimento,3.2.3,59.952428347277596,
8,14,14,999,0.5,0:10,3,Magenta,None,0,0,1,15:50,./completed_changuitos/montage_cpdek_184.05_160.49.jpg,left,0,0,0,0,,,,,0,8,8,8,,,,,,,,,0,0,0,0,0,12,12,12,,,,,,,,,,,,,,,,,,334.04965452459294,None,None,1,334.04965452459294,None,,,,,,,,,,,,,,,,,,,,,,,,,,,,,,,,,,,,,,,,,,,,,,,,,,,,,,,,,,,,,juani,001,d,2019_Oct_10_1510,Experimento,3.2.3,59.952428347277596,
8,14,14,999,0.5,0:10,3,Red,None,0,0,1,15:50,./completed_changuitos/montage_cpdek_184.05_160.49.jpg,left,0,0,0,0,,,,,0,8,8,8,,,,,,,,,0,0,0,0,0,13,13,13,,,,,,,,,,,,,,,,,,334.04965452459294,None,None,1,334.04965452459294,None,,,,,,,,,,,,,,,,,,,,,,,,,,,,,,,,,,,,,,,,,,,,,,,,,,,,,,,,,,,,,juani,001,d,2019_Oct_10_1510,Experimento,3.2.3,59.952428347277596,
8,14,14,999,0.5,0:10,3,Magenta,['space'],0,0,1,15:50,./completed_changuitos/montage_cpdek_184.05_160.49.jpg,left,0,0,0,0,,,,,0,8,8,8,,,,,,,,,0,0,0,0,0,14,14,14,,,,,,,,,,,,,,,,,,334.04965452459294,None,None,0,334.04965452459294,None,,,,,,,,,,,,,,,,,,,,,,,,,,,,,,,,,,,,,,,,,,,,,,,,,,,,,,,,,,,,,juani,001,d,2019_Oct_10_1510,Experimento,3.2.3,59.952428347277596,
8,14,14,999,0.5,0:10,3,Green,None,0,0,1,15:50,./completed_changuitos/montage_cpdek_184.05_160.49.jpg,left,0,0,0,0,,,,,0,8,8,8,,,,,,,,,0,0,0,0,0,15,15,15,,,,,,,,,,,,,,,,,,334.04965452459294,None,None,1,334.04965452459294,None,,,,,,,,,,,,,,,,,,,,,,,,,,,,,,,,,,,,,,,,,,,,,,,,,,,,,,,,,,,,,juani,001,d,2019_Oct_10_1510,Experimento,3.2.3,59.952428347277596,
8,14,14,999,0.5,0:10,3,Yellow,['space'],0,0,1,15:50,./completed_changuitos/montage_cpdek_184.05_160.49.jpg,left,0,0,0,0,,,,,0,8,8,8,,,,,,,,,0,0,0,0,0,16,16,16,,,,,,,,,,,,,,,,,,334.04965452459294,None,None,0,334.04965452459294,None,,,,,,,,,,,,,,,,,,,,,,,,,,,,,,,,,,,,,,,,,,,,,,,,,,,,,,,,,,,,,juani,001,d,2019_Oct_10_1510,Experimento,3.2.3,59.952428347277596,
8,14,14,999,0.5,0:10,3,Blue,None,0,0,1,15:50,./completed_changuitos/montage_cpdek_184.05_160.49.jpg,left,0,0,0,0,,,,,0,8,8,8,,,,,,,,,0,0,0,0,0,17,17,17,,,,,,,,,,,,,,,,,,334.0661457288938,None,None,1,334.0661457288938,None,,,,,,,,,,,,,,,,,,,,,,,,,,,,,,,,,,,,,,,,,,,,,,,,,,,,,,,,,,,,,juani,001,d,2019_Oct_10_1510,Experimento,3.2.3,59.952428347277596,
8,14,14,999,0.5,0:10,3,Cyan,None,0,0,1,15:50,./completed_changuitos/montage_cpdek_184.05_160.49.jpg,left,0,0,0,0,,,,,0,8,8,8,,,,,,,,,0,0,0,0,0,18,18,18,,,,,,,,,,,,,,,,,,334.0661457288938,None,None,1,334.0661457288938,None,,,,,,,,,,,,,,,,,,,,,,,,,,,,,,,,,,,,,,,,,,,,,,,,,,,,,,,,,,,,,juani,001,d,2019_Oct_10_1510,Experimento,3.2.3,59.952428347277596,
8,14,14,999,0.5,0:10,3,Blue,['space'],0,0,1,15:50,./completed_changuitos/montage_cpdek_184.05_160.49.jpg,left,0,0,0,0,,,,,0,8,8,8,,,,,,,,,0,0,0,0,0,19,19,19,,,,,,,,,,,,,,,,,,334.0661457288938,None,None,0,334.0661457288938,None,,,,,,,,,,,,,,,,,,,,,,,,,,,,,,,,,,,,,,,,,,,,,,,,,,,,,,,,,,,,,juani,001,d,2019_Oct_10_1510,Experimento,3.2.3,59.952428347277596,
8,14,14,999,0.5,0:10,3,Yellow,None,0,0,1,15:50,./completed_changuitos/montage_cpdek_184.05_160.49.jpg,left,0,0,0,0,,,,,0,8,8,8,,,,,,,,,0,0,0,0,0,20,20,20,,,,,,,,,,,,,,,,,,334.0661457288938,None,None,1,334.0661457288938,None,,,,,,,,,,,,,,,,,,,,,,,,,,,,,,,,,,,,,,,,,,,,,,,,,,,,,,,,,,,,,juani,001,d,2019_Oct_10_1510,Experimento,3.2.3,59.952428347277596,
8,14,14,999,0.5,0:10,3,Cyan,None,0,0,1,15:50,./completed_changuitos/montage_cpdek_184.05_160.49.jpg,left,0,0,0,0,,,,,0,8,8,8,,,,,,,,,0,0,0,0,0,21,21,21,,,,,,,,,,,,,,,,,,334.0661457288938,None,None,1,334.0661457288938,None,,,,,,,,,,,,,,,,,,,,,,,,,,,,,,,,,,,,,,,,,,,,,,,,,,,,,,,,,,,,,juani,001,d,2019_Oct_10_1510,Experimento,3.2.3,59.952428347277596,
8,14,14,999,0.5,0:10,3,Yellow,['space'],0,0,1,15:50,./completed_changuitos/montage_cpdek_184.05_160.49.jpg,left,0,0,0,0,,,,,0,8,8,8,,,,,,,,,0,0,0,0,0,22,22,22,,,,,,,,,,,,,,,,,,334.0661457288938,None,None,0,334.0661457288938,None,,,,,,,,,,,,,,,,,,,,,,,,,,,,,,,,,,,,,,,,,,,,,,,,,,,,,,,,,,,,,juani,001,d,2019_Oct_10_1510,Experimento,3.2.3,59.952428347277596,
8,14,14,999,0.5,0:10,3,Magenta,None,0,0,1,15:50,./completed_changuitos/montage_cpdek_184.05_160.49.jpg,left,0,0,0,0,,,,,0,8,8,8,,,,,,,,,0,0,0,0,0,23,23,23,,,,,,,,,,,,,,,,,,334.0661457288938,None,None,1,334.0661457288938,None,,,,,,,,,,,,,,,,,,,,,,,,,,,,,,,,,,,,,,,,,,,,,,,,,,,,,,,,,,,,,juani,001,d,2019_Oct_10_1510,Experimento,3.2.3,59.952428347277596,
8,14,14,999,0.5,0:10,3,Red,None,0,0,1,15:50,./completed_changuitos/montage_cpdek_184.05_160.49.jpg,left,0,0,0,0,,,,,0,8,8,8,,,,,,,,,0,0,0,0,0,24,24,24,,,,,,,,,,,,,,,,,,334.0661457288938,None,None,1,334.0661457288938,None,,,,,,,,,,,,,,,,,,,,,,,,,,,,,,,,,,,,,,,,,,,,,,,,,,,,,,,,,,,,,juani,001,d,2019_Oct_10_1510,Experimento,3.2.3,59.952428347277596,
8,14,14,999,0.5,0:10,3,Magenta,['space'],0,0,1,15:50,./completed_changuitos/montage_cpdek_184.05_160.49.jpg,left,0,0,0,0,,,,,0,8,8,8,,,,,,,,,0,0,0,0,0,25,25,25,,,,,,,,,,,,,,,,,,334.0661457288938,None,None,0,334.0661457288938,None,,,,,,,,,,,,,,,,,,,,,,,,,,,,,,,,,,,,,,,,,,,,,,,,,,,,,,,,,,,,,juani,001,d,2019_Oct_10_1510,Experimento,3.2.3,59.952428347277596,
8,14,14,999,0.5,0:10,3,Red,['space'],0,0,1,15:50,./completed_changuitos/montage_cpdek_184.05_160.49.jpg,left,0,0,0,0,,,,,0,8,8,8,,,,,,,,,0,0,0,0,0,26,26,26,,,,,,,,,,,,,,,,,,334.0661457288938,None,None,0,334.0661457288938,None,,,,,,,,,,,,,,,,,,,,,,,,,,,,,,,,,,,,,,,,,,,,,,,,,,,,,,,,,,,,,juani,001,d,2019_Oct_10_1510,Experimento,3.2.3,59.952428347277596,
8,14,14,999,0.5,0:10,3,Yellow,None,0,0,1,15:50,./completed_changuitos/montage_cpdek_184.05_160.49.jpg,left,0,0,0,0,,,,,0,8,8,8,,,,,,,,,0,0,0,0,0,27,27,27,,,,,,,,,,,,,,,,,,334.0661457288938,None,None,1,334.0661457288938,None,,,,,,,,,,,,,,,,,,,,,,,,,,,,,,,,,,,,,,,,,,,,,,,,,,,,,,,,,,,,,juani,001,d,2019_Oct_10_1510,Experimento,3.2.3,59.952428347277596,
8,14,14,999,0.5,0:10,3,Cyan,None,0,0,1,15:50,./completed_changuitos/montage_cpdek_184.05_160.49.jpg,left,0,0,0,0,,,,,0,8,8,8,,,,,,,,,0,0,0,0,0,28,28,28,,,,,,,,,,,,,,,,,,334.0661457288938,None,None,1,334.0661457288938,None,,,,,,,,,,,,,,,,,,,,,,,,,,,,,,,,,,,,,,,,,,,,,,,,,,,,,,,,,,,,,juani,001,d,2019_Oct_10_1510,Experimento,3.2.3,59.952428347277596,
8,14,14,999,0.5,0:10,3,Green,None,0,0,1,15:50,./completed_changuitos/montage_cpdek_184.05_160.49.jpg,left,0,0,0,0,,,,,0,8,8,8,,,,,,,,,0,0,0,0,0,29,29,29,,,,,,,,,,,,,,,,,,334.0661457288938,None,None,1,334.0661457288938,None,,,,,,,,,,,,,,,,,,,,,,,,,,,,,,,,,,,,,,,,,,,,,,,,,,,,,,,,,,,,,juani,001,d,2019_Oct_10_1510,Experimento,3.2.3,59.952428347277596,
8,14,14,999,0.5,0:10,3,White,None,0,0,1,15:50,./completed_changuitos/montage_cpdek_184.05_160.49.jpg,left,0,0,0,0,,,,,0,8,8,8,,,,,,,,,0,0,0,0,0,30,30,30,,,,,,,,,,,,,,,,,,334.0826369331946,None,None,1,334.0826369331946,None,,,,,,,,,,,,,,,,,,,,,,,,,,,,,,,,,,,,,,,,,,,,,,,,,,,,,,,,,,,,,juani,001,d,2019_Oct_10_1510,Experimento,3.2.3,59.952428347277596,
8,14,14,999,0.5,0:10,3,Green,['space'],0,0,1,15:50,./completed_changuitos/montage_cpdek_184.05_160.49.jpg,left,0,0,0,0,,,,,0,8,8,8,,,,,,,,,0,0,0,0,0,31,31,31,,,,,,,,,,,,,,,,,,334.0826369331946,None,None,0,334.0826369331946,None,,,,,,,,,,,,,,,,,,,,,,,,,,,,,,,,,,,,,,,,,,,,,,,,,,,,,,,,,,,,,juani,001,d,2019_Oct_10_1510,Experimento,3.2.3,59.952428347277596,
8,14,14,999,0.5,0:10,3,Red,None,0,0,1,15:50,./completed_changuitos/montage_cpdek_184.05_160.49.jpg,left,0,0,0,0,,,,,0,8,8,8,,,,,,,,,0,0,0,0,0,32,32,32,,,,,,,,,,,,,,,,,,334.0826369331946,None,None,1,334.0826369331946,None,,,,,,,,,,,,,,,,,,,,,,,,,,,,,,,,,,,,,,,,,,,,,,,,,,,,,,,,,,,,,juani,001,d,2019_Oct_10_1510,Experimento,3.2.3,59.952428347277596,
8,14,14,999,0.5,0:10,3,Blue,None,0,0,1,15:50,./completed_changuitos/montage_cpdek_184.05_160.49.jpg,left,0,0,0,0,,,,,0,8,8,8,,,,,,,,,0,0,0,0,0,33,33,33,,,,,,,,,,,,,,,,,,334.0826369331946,None,None,1,334.0826369331946,None,,,,,,,,,,,,,,,,,,,,,,,,,,,,,,,,,,,,,,,,,,,,,,,,,,,,,,,,,,,,,juani,001,d,2019_Oct_10_1510,Experimento,3.2.3,59.952428347277596,
8,14,14,999,0.5,0:10,3,Green,None,0,0,1,15:50,./completed_changuitos/montage_cpdek_184.05_160.49.jpg,left,0,0,0,0,,,,,0,8,8,8,,,,,,,,,0,0,0,0,0,34,34,34,,,,,,,,,,,,,,,,,,334.0826369331946,None,None,1,334.0826369331946,None,,,,,,,,,,,,,,,,,,,,,,,,,,,,,,,,,,,,,,,,,,,,,,,,,,,,,,,,,,,,,juani,001,d,2019_Oct_10_1510,Experimento,3.2.3,59.952428347277596,
8,14,14,999,0.5,0:10,3,,,0,0,1,15:50,./completed_changuitos/montage_cpdek_184.05_160.49.jpg,left,0,0,0,0,,,,,0,8,8,8,,,,,,,,,0,0,0,0,,,,,,,,,,,,,,,,,,,,,,,,,,,,,334.10931044899917,None,right,0,1.6393468210007995,334.10931044899917,None,334.10931044899917,None,,,,,,,,,,,,,,,,,,,,,,,,,,,,,,,,,,,,,,,,,,,,,,,,,,,juani,001,d,2019_Oct_10_1510,Experimento,3.2.3,59.952428347277596,
8,14,14,999,0.5,0:10,3,,,0,0,1,15:50,,,0,0,0,0,,,,,0,8,8,8,,,,,,,,,,,,,,,,,,,,,,,,,,,,,,,,,,,,,,,,,,,,,,,,,,,,,,,,,,,,,,,,,,,,,,,,,,,,,,,,,,,,,,,,,,,,,,,,,,,,juani,001,d,2019_Oct_10_1510,Experimento,3.2.3,59.952428347277596,
8,14,14,999,0.5,0:10,3,,,0,1,0,25:50,./completed_changuitos/montage_anfki_157.29_133.99.jpg,left,0,0,0,0,,,,,0,9,9,9,,,,,0,0,0,0,,,,,,,,,,,,,,,,,,,,,,,,,,,,,,,,,,,,,,,,,,335.8715191829979,336.9653272180003,336.9653272180003,344.979556338003,344.979556338003,358.99143388299854,right,0,0.7829940209921915,358.99143388299854,None,358.99143388299854,None,358.99143388299854,None,,,,,,,,,,,,,,,,,,,,,,,,,,,,,,,,,,,,juani,001,d,2019_Oct_10_1510,Experimento,3.2.3,59.952428347277596,
8,14,14,999,0.5,0:10,3,,,0,1,0,25:50,,,0,0,0,0,,,,,0,9,9,9,,,,,,,,,,,,,,,,,,,,,,,,,,,,,,,,,,,,,,,,,,,,,,,,,,,,,,,,,,,,,,,,,,,,,,,,,,,,,,,,,,,,,,,,,,,,,,,,,,,,juani,001,d,2019_Oct_10_1510,Experimento,3.2.3,59.952428347277596,
8,14,14,999,0.5,0:10,3,Magenta,None,0,0,1,20:50,./completed_changuitos/montage_vdawy_364.89_435.49.jpg,right,0,0,0,0,,,,,0,10,10,10,,,,,,,,,0,0,0,0,0,0,0,0,,,,,,,,,,,,,,359.8940736740042,361.2073876779905,361.2073876779905,None,369.2492508669966,369.75442700200074,None,1,369.2492508669966,None,,,,,,,,,,,,,,,,,,,,,,,,,,,,,,,,,,,,,,,,,,,,,,,,,,,,,,,,,,,,,juani,001,d,2019_Oct_10_1510,Experimento,3.2.3,59.952428347277596,
8,14,14,999,0.5,0:10,3,Blue,['space'],0,0,1,20:50,./completed_changuitos/montage_vdawy_364.89_435.49.jpg,right,0,0,0,0,,,,,0,10,10,10,,,,,,,,,0,0,0,0,0,1,1,1,,,,,,,,,,,,,,,,,,371.2537580729986,371.75374666799325,None,0,371.2537580729986,371.2537580729986,,,,,,,,,,,,,,,,,,,,,,,,,,,,,,,,,,,,,,,,,,,,,,,,,,,,,,,,,,,,,juani,001,d,2019_Oct_10_1510,Experimento,3.2.3,59.952428347277596,
8,14,14,999,0.5,0:10,3,Cyan,None,0,0,1,20:50,./completed_changuitos/montage_vdawy_364.89_435.49.jpg,right,0,0,0,0,,,,,0,10,10,10,,,,,,,,,0,0,0,0,0,2,2,2,,,,,,,,,,,,,,,,,,373.25299181899754,373.7529109180032,None,1,373.25299181899754,373.25299181899754,,,,,,,,,,,,,,,,,,,,,,,,,,,,,,,,,,,,,,,,,,,,,,,,,,,,,,,,,,,,,juani,001,d,2019_Oct_10_1510,Experimento,3.2.3,59.952428347277596,
8,14,14,999,0.5,0:10,3,Yellow,None,0,0,1,20:50,./completed_changuitos/montage_vdawy_364.89_435.49.jpg,right,0,0,0,0,,,,,0,10,10,10,,,,,,,,,0,0,0,0,0,3,3,3,,,,,,,,,,,,,,,,,,375.2525271909981,375.7523819229973,None,1,375.2525271909981,375.2525271909981,,,,,,,,,,,,,,,,,,,,,,,,,,,,,,,,,,,,,,,,,,,,,,,,,,,,,,,,,,,,,juani,001,d,2019_Oct_10_1510,Experimento,3.2.3,59.952428347277596,
8,14,14,999,0.5,0:10,3,Cyan,None,0,0,1,20:50,./completed_changuitos/montage_vdawy_364.89_435.49.jpg,right,0,0,0,0,,,,,0,10,10,10,,,,,,,,,0,0,0,0,0,4,4,4,,,,,,,,,,,,,,,,,,377.25176007499977,377.7516878509923,['return'],0,377.25176007499977,377.25176007499977,[0.4672967890073778],,,,,,,,,,,,,,,,,,,,,,,,,,,,,,,,,,,,,,,,,,,,,,,,,,,,,,,,,,,,juani,001,d,2019_Oct_10_1510,Experimento,3.2.3,59.952428347277596,
8,14,14,999,0.5,0:10,3,Blue,None,0,0,1,20:50,./completed_changuitos/montage_vdawy_364.89_435.49.jpg,right,0,0,0,0,,,,,0,10,10,10,,,,,,,,,0,0,0,0,0,5,5,5,,,,,,,,,,,,,,,,,,379.2510175839998,379.75100053299684,None,1,379.2510175839998,379.2510175839998,,,,,,,,,,,,,,,,,,,,,,,,,,,,,,,,,,,,,,,,,,,,,,,,,,,,,,,,,,,,,juani,001,d,2019_Oct_10_1510,Experimento,3.2.3,59.952428347277596,
8,14,14,999,0.5,0:10,3,Cyan,['space'],0,0,1,20:50,./completed_changuitos/montage_vdawy_364.89_435.49.jpg,right,0,0,0,0,,,,,0,10,10,10,,,,,,,,,0,0,0,0,0,6,6,6,,,,,,,,,,,,,,,,,,381.25044548998994,381.75035105900315,None,0,381.25044548998994,381.25044548998994,,,,,,,,,,,,,,,,,,,,,,,,,,,,,,,,,,,,,,,,,,,,,,,,,,,,,,,,,,,,,juani,001,d,2019_Oct_10_1510,Experimento,3.2.3,59.952428347277596,
8,14,14,999,0.5,0:10,3,Magenta,None,0,0,1,20:50,./completed_changuitos/montage_vdawy_364.89_435.49.jpg,right,0,0,0,0,,,,,0,10,10,10,,,,,,,,,0,0,0,0,0,7,7,7,,,,,,,,,,,,,,,,,,383.232940294304,None,None,1,383.232940294304,None,,,,,,,,,,,,,,,,,,,,,,,,,,,,,,,,,,,,,,,,,,,,,,,,,,,,,,,,,,,,,juani,001,d,2019_Oct_10_1510,Experimento,3.2.3,59.952428347277596,
8,14,14,999,0.5,0:10,3,Red,None,0,0,1,20:50,./completed_changuitos/montage_vdawy_364.89_435.49.jpg,right,0,0,0,0,,,,,0,10,10,10,,,,,,,,,0,0,0,0,0,8,8,8,,,,,,,,,,,,,,,,,,383.232940294304,None,None,1,383.232940294304,None,,,,,,,,,,,,,,,,,,,,,,,,,,,,,,,,,,,,,,,,,,,,,,,,,,,,,,,,,,,,,juani,001,d,2019_Oct_10_1510,Experimento,3.2.3,59.952428347277596,
8,14,14,999,0.5,0:10,3,Magenta,['space'],0,0,1,20:50,./completed_changuitos/montage_vdawy_364.89_435.49.jpg,right,0,0,0,0,,,,,0,10,10,10,,,,,,,,,0,0,0,0,0,9,9,9,,,,,,,,,,,,,,,,,,383.232940294304,None,None,0,383.232940294304,None,,,,,,,,,,,,,,,,,,,,,,,,,,,,,,,,,,,,,,,,,,,,,,,,,,,,,,,,,,,,,juani,001,d,2019_Oct_10_1510,Experimento,3.2.3,59.952428347277596,
8,14,14,999,0.5,0:10,3,Green,None,0,0,1,20:50,./completed_changuitos/montage_vdawy_364.89_435.49.jpg,right,0,0,0,0,,,,,0,10,10,10,,,,,,,,,0,0,0,0,0,10,10,10,,,,,,,,,,,,,,,,,,383.232940294304,None,None,1,383.232940294304,None,,,,,,,,,,,,,,,,,,,,,,,,,,,,,,,,,,,,,,,,,,,,,,,,,,,,,,,,,,,,,juani,001,d,2019_Oct_10_1510,Experimento,3.2.3,59.952428347277596,
8,14,14,999,0.5,0:10,3,Yellow,['space'],0,0,1,20:50,./completed_changuitos/montage_vdawy_364.89_435.49.jpg,right,0,0,0,0,,,,,0,10,10,10,,,,,,,,,0,0,0,0,0,11,11,11,,,,,,,,,,,,,,,,,,383.24943149860485,None,None,0,383.24943149860485,None,,,,,,,,,,,,,,,,,,,,,,,,,,,,,,,,,,,,,,,,,,,,,,,,,,,,,,,,,,,,,juani,001,d,2019_Oct_10_1510,Experimento,3.2.3,59.952428347277596,
8,14,14,999,0.5,0:10,3,Blue,None,0,0,1,20:50,./completed_changuitos/montage_vdawy_364.89_435.49.jpg,right,0,0,0,0,,,,,0,10,10,10,,,,,,,,,0,0,0,0,0,12,12,12,,,,,,,,,,,,,,,,,,383.24943149860485,None,None,1,383.24943149860485,None,,,,,,,,,,,,,,,,,,,,,,,,,,,,,,,,,,,,,,,,,,,,,,,,,,,,,,,,,,,,,juani,001,d,2019_Oct_10_1510,Experimento,3.2.3,59.952428347277596,
8,14,14,999,0.5,0:10,3,Cyan,None,0,0,1,20:50,./completed_changuitos/montage_vdawy_364.89_435.49.jpg,right,0,0,0,0,,,,,0,10,10,10,,,,,,,,,0,0,0,0,0,13,13,13,,,,,,,,,,,,,,,,,,383.24943149860485,None,None,1,383.24943149860485,None,,,,,,,,,,,,,,,,,,,,,,,,,,,,,,,,,,,,,,,,,,,,,,,,,,,,,,,,,,,,,juani,001,d,2019_Oct_10_1510,Experimento,3.2.3,59.952428347277596,
8,14,14,999,0.5,0:10,3,Blue,['space'],0,0,1,20:50,./completed_changuitos/montage_vdawy_364.89_435.49.jpg,right,0,0,0,0,,,,,0,10,10,10,,,,,,,,,0,0,0,0,0,14,14,14,,,,,,,,,,,,,,,,,,383.24943149860485,None,None,0,383.24943149860485,None,,,,,,,,,,,,,,,,,,,,,,,,,,,,,,,,,,,,,,,,,,,,,,,,,,,,,,,,,,,,,juani,001,d,2019_Oct_10_1510,Experimento,3.2.3,59.952428347277596,
8,14,14,999,0.5,0:10,3,Yellow,None,0,0,1,20:50,./completed_changuitos/montage_vdawy_364.89_435.49.jpg,right,0,0,0,0,,,,,0,10,10,10,,,,,,,,,0,0,0,0,0,15,15,15,,,,,,,,,,,,,,,,,,383.24943149860485,None,None,1,383.24943149860485,None,,,,,,,,,,,,,,,,,,,,,,,,,,,,,,,,,,,,,,,,,,,,,,,,,,,,,,,,,,,,,juani,001,d,2019_Oct_10_1510,Experimento,3.2.3,59.952428347277596,
8,14,14,999,0.5,0:10,3,Cyan,None,0,0,1,20:50,./completed_changuitos/montage_vdawy_364.89_435.49.jpg,right,0,0,0,0,,,,,0,10,10,10,,,,,,,,,0,0,0,0,0,16,16,16,,,,,,,,,,,,,,,,,,383.24943149860485,None,None,1,383.24943149860485,None,,,,,,,,,,,,,,,,,,,,,,,,,,,,,,,,,,,,,,,,,,,,,,,,,,,,,,,,,,,,,juani,001,d,2019_Oct_10_1510,Experimento,3.2.3,59.952428347277596,
8,14,14,999,0.5,0:10,3,Yellow,['space'],0,0,1,20:50,./completed_changuitos/montage_vdawy_364.89_435.49.jpg,right,0,0,0,0,,,,,0,10,10,10,,,,,,,,,0,0,0,0,0,17,17,17,,,,,,,,,,,,,,,,,,383.2659227029057,None,None,0,383.2659227029057,None,,,,,,,,,,,,,,,,,,,,,,,,,,,,,,,,,,,,,,,,,,,,,,,,,,,,,,,,,,,,,juani,001,d,2019_Oct_10_1510,Experimento,3.2.3,59.952428347277596,
8,14,14,999,0.5,0:10,3,Magenta,None,0,0,1,20:50,./completed_changuitos/montage_vdawy_364.89_435.49.jpg,right,0,0,0,0,,,,,0,10,10,10,,,,,,,,,0,0,0,0,0,18,18,18,,,,,,,,,,,,,,,,,,383.2659227029057,None,None,1,383.2659227029057,None,,,,,,,,,,,,,,,,,,,,,,,,,,,,,,,,,,,,,,,,,,,,,,,,,,,,,,,,,,,,,juani,001,d,2019_Oct_10_1510,Experimento,3.2.3,59.952428347277596,
8,14,14,999,0.5,0:10,3,Red,None,0,0,1,20:50,./completed_changuitos/montage_vdawy_364.89_435.49.jpg,right,0,0,0,0,,,,,0,10,10,10,,,,,,,,,0,0,0,0,0,19,19,19,,,,,,,,,,,,,,,,,,383.2659227029057,None,None,1,383.2659227029057,None,,,,,,,,,,,,,,,,,,,,,,,,,,,,,,,,,,,,,,,,,,,,,,,,,,,,,,,,,,,,,juani,001,d,2019_Oct_10_1510,Experimento,3.2.3,59.952428347277596,
8,14,14,999,0.5,0:10,3,Magenta,['space'],0,0,1,20:50,./completed_changuitos/montage_vdawy_364.89_435.49.jpg,right,0,0,0,0,,,,,0,10,10,10,,,,,,,,,0,0,0,0,0,20,20,20,,,,,,,,,,,,,,,,,,383.2659227029057,None,None,0,383.2659227029057,None,,,,,,,,,,,,,,,,,,,,,,,,,,,,,,,,,,,,,,,,,,,,,,,,,,,,,,,,,,,,,juani,001,d,2019_Oct_10_1510,Experimento,3.2.3,59.952428347277596,
8,14,14,999,0.5,0:10,3,Red,['space'],0,0,1,20:50,./completed_changuitos/montage_vdawy_364.89_435.49.jpg,right,0,0,0,0,,,,,0,10,10,10,,,,,,,,,0,0,0,0,0,21,21,21,,,,,,,,,,,,,,,,,,383.2659227029057,None,None,0,383.2659227029057,None,,,,,,,,,,,,,,,,,,,,,,,,,,,,,,,,,,,,,,,,,,,,,,,,,,,,,,,,,,,,,juani,001,d,2019_Oct_10_1510,Experimento,3.2.3,59.952428347277596,
8,14,14,999,0.5,0:10,3,Yellow,None,0,0,1,20:50,./completed_changuitos/montage_vdawy_364.89_435.49.jpg,right,0,0,0,0,,,,,0,10,10,10,,,,,,,,,0,0,0,0,0,22,22,22,,,,,,,,,,,,,,,,,,383.2659227029057,None,None,1,383.2659227029057,None,,,,,,,,,,,,,,,,,,,,,,,,,,,,,,,,,,,,,,,,,,,,,,,,,,,,,,,,,,,,,juani,001,d,2019_Oct_10_1510,Experimento,3.2.3,59.952428347277596,
8,14,14,999,0.5,0:10,3,Cyan,None,0,0,1,20:50,./completed_changuitos/montage_vdawy_364.89_435.49.jpg,right,0,0,0,0,,,,,0,10,10,10,,,,,,,,,0,0,0,0,0,23,23,23,,,,,,,,,,,,,,,,,,383.2659227029057,None,None,1,383.2659227029057,None,,,,,,,,,,,,,,,,,,,,,,,,,,,,,,,,,,,,,,,,,,,,,,,,,,,,,,,,,,,,,juani,001,d,2019_Oct_10_1510,Experimento,3.2.3,59.952428347277596,
8,14,14,999,0.5,0:10,3,Green,None,0,0,1,20:50,./completed_changuitos/montage_vdawy_364.89_435.49.jpg,right,0,0,0,0,,,,,0,10,10,10,,,,,,,,,0,0,0,0,0,24,24,24,,,,,,,,,,,,,,,,,,383.2659227029057,None,None,1,383.2659227029057,None,,,,,,,,,,,,,,,,,,,,,,,,,,,,,,,,,,,,,,,,,,,,,,,,,,,,,,,,,,,,,juani,001,d,2019_Oct_10_1510,Experimento,3.2.3,59.952428347277596,
8,14,14,999,0.5,0:10,3,White,None,0,0,1,20:50,./completed_changuitos/montage_vdawy_364.89_435.49.jpg,right,0,0,0,0,,,,,0,10,10,10,,,,,,,,,0,0,0,0,0,25,25,25,,,,,,,,,,,,,,,,,,383.2659227029057,None,None,1,383.2659227029057,None,,,,,,,,,,,,,,,,,,,,,,,,,,,,,,,,,,,,,,,,,,,,,,,,,,,,,,,,,,,,,juani,001,d,2019_Oct_10_1510,Experimento,3.2.3,59.952428347277596,
8,14,14,999,0.5,0:10,3,Green,['space'],0,0,1,20:50,./completed_changuitos/montage_vdawy_364.89_435.49.jpg,right,0,0,0,0,,,,,0,10,10,10,,,,,,,,,0,0,0,0,0,26,26,26,,,,,,,,,,,,,,,,,,383.2659227029057,None,None,0,383.2659227029057,None,,,,,,,,,,,,,,,,,,,,,,,,,,,,,,,,,,,,,,,,,,,,,,,,,,,,,,,,,,,,,juani,001,d,2019_Oct_10_1510,Experimento,3.2.3,59.952428347277596,
8,14,14,999,0.5,0:10,3,Red,None,0,0,1,20:50,./completed_changuitos/montage_vdawy_364.89_435.49.jpg,right,0,0,0,0,,,,,0,10,10,10,,,,,,,,,0,0,0,0,0,27,27,27,,,,,,,,,,,,,,,,,,383.2659227029057,None,None,1,383.2659227029057,None,,,,,,,,,,,,,,,,,,,,,,,,,,,,,,,,,,,,,,,,,,,,,,,,,,,,,,,,,,,,,juani,001,d,2019_Oct_10_1510,Experimento,3.2.3,59.952428347277596,
8,14,14,999,0.5,0:10,3,Blue,None,0,0,1,20:50,./completed_changuitos/montage_vdawy_364.89_435.49.jpg,right,0,0,0,0,,,,,0,10,10,10,,,,,,,,,0,0,0,0,0,28,28,28,,,,,,,,,,,,,,,,,,383.2659227029057,None,None,1,383.2659227029057,None,,,,,,,,,,,,,,,,,,,,,,,,,,,,,,,,,,,,,,,,,,,,,,,,,,,,,,,,,,,,,juani,001,d,2019_Oct_10_1510,Experimento,3.2.3,59.952428347277596,
8,14,14,999,0.5,0:10,3,Green,None,0,0,1,20:50,./completed_changuitos/montage_vdawy_364.89_435.49.jpg,right,0,0,0,0,,,,,0,10,10,10,,,,,,,,,0,0,0,0,0,29,29,29,,,,,,,,,,,,,,,,,,383.2659227029057,None,None,1,383.2659227029057,None,,,,,,,,,,,,,,,,,,,,,,,,,,,,,,,,,,,,,,,,,,,,,,,,,,,,,,,,,,,,,juani,001,d,2019_Oct_10_1510,Experimento,3.2.3,59.952428347277596,
8,14,14,999,0.5,0:10,3,,,0,0,1,20:50,./completed_changuitos/montage_vdawy_364.89_435.49.jpg,right,0,0,0,0,,,,,0,10,10,10,,,,,,,,,0,0,0,0,,,,,,,,,,,,,,,,,,,,,,,,,,,,,383.30683332499757,None,left,0,2.624646604002919,383.30683332499757,None,383.30683332499757,None,,,,,,,,,,,,,,,,,,,,,,,,,,,,,,,,,,,,,,,,,,,,,,,,,,,juani,001,d,2019_Oct_10_1510,Experimento,3.2.3,59.952428347277596,
8,14,14,999,0.5,0:10,3,,,0,0,1,20:50,,,0,0,0,0,,,,,0,10,10,10,,,,,,,,,,,,,,,,,,,,,,,,,,,,,,,,,,,,,,,,,,,,,,,,,,,,,,,,,,,,,,,,,,,,,,,,,,,,,,,,,,,,,,,,,,,,,,,,,,,,juani,001,d,2019_Oct_10_1510,Experimento,3.2.3,59.952428347277596,
8,14,14,999,0.5,0:10,3,Red,None,0,0,1,28:50,./completed_changuitos/montage_sxcov_36.55_32.1.jpg,left,0,0,0,0,,,,,0,11,11,11,,,,,,,,,0,0,0,0,0,0,0,0,,,,,,,,,,,,,,386.03949239499343,389.39774726900214,389.39774726900214,None,397.41732212099305,397.92774828399706,None,1,397.41732212099305,None,,,,,,,,,,,,,,,,,,,,,,,,,,,,,,,,,,,,,,,,,,,,,,,,,,,,,,,,,,,,,juani,001,d,2019_Oct_10_1510,Experimento,3.2.3,59.952428347277596,
8,14,14,999,0.5,0:10,3,Magenta,['space'],0,0,1,28:50,./completed_changuitos/montage_sxcov_36.55_32.1.jpg,left,0,0,0,0,,,,,0,11,11,11,,,,,,,,,0,0,0,0,0,1,1,1,,,,,,,,,,,,,,,,,,399.4275593929924,399.927451355994,None,0,399.4275593929924,399.4275593929924,,,,,,,,,,,,,,,,,,,,,,,,,,,,,,,,,,,,,,,,,,,,,,,,,,,,,,,,,,,,,juani,001,d,2019_Oct_10_1510,Experimento,3.2.3,59.952428347277596,
8,14,14,999,0.5,0:10,3,Green,None,0,0,1,28:50,./completed_changuitos/montage_sxcov_36.55_32.1.jpg,left,0,0,0,0,,,,,0,11,11,11,,,,,,,,,0,0,0,0,0,2,2,2,,,,,,,,,,,,,,,,,,401.4269370050024,401.9267494700034,None,1,401.4269370050024,401.4269370050024,,,,,,,,,,,,,,,,,,,,,,,,,,,,,,,,,,,,,,,,,,,,,,,,,,,,,,,,,,,,,juani,001,d,2019_Oct_10_1510,Experimento,3.2.3,59.952428347277596,
8,14,14,999,0.5,0:10,3,Yellow,['space'],0,0,1,28:50,./completed_changuitos/montage_sxcov_36.55_32.1.jpg,left,0,0,0,0,,,,,0,11,11,11,,,,,,,,,0,0,0,0,0,3,3,3,,,,,,,,,,,,,,,,,,403.42623490099504,403.92606949599576,None,0,403.42623490099504,403.42623490099504,,,,,,,,,,,,,,,,,,,,,,,,,,,,,,,,,,,,,,,,,,,,,,,,,,,,,,,,,,,,,juani,001,d,2019_Oct_10_1510,Experimento,3.2.3,59.952428347277596,
8,14,14,999,0.5,0:10,3,Blue,None,0,0,1,28:50,./completed_changuitos/montage_sxcov_36.55_32.1.jpg,left,0,0,0,0,,,,,0,11,11,11,,,,,,,,,0,0,0,0,0,4,4,4,,,,,,,,,,,,,,,,,,405.4256091089919,405.925390392993,None,1,405.4256091089919,405.4256091089919,,,,,,,,,,,,,,,,,,,,,,,,,,,,,,,,,,,,,,,,,,,,,,,,,,,,,,,,,,,,,juani,001,d,2019_Oct_10_1510,Experimento,3.2.3,59.952428347277596,
8,14,14,999,0.5,0:10,3,Cyan,None,0,0,1,28:50,./completed_changuitos/montage_sxcov_36.55_32.1.jpg,left,0,0,0,0,,,,,0,11,11,11,,,,,,,,,0,0,0,0,0,5,5,5,,,,,,,,,,,,,,,,,,407.44116756299627,407.94108330999734,None,1,407.44116756299627,407.44116756299627,,,,,,,,,,,,,,,,,,,,,,,,,,,,,,,,,,,,,,,,,,,,,,,,,,,,,,,,,,,,,juani,001,d,2019_Oct_10_1510,Experimento,3.2.3,59.952428347277596,
8,14,14,999,0.5,0:10,3,Blue,['space'],0,0,1,28:50,./completed_changuitos/montage_sxcov_36.55_32.1.jpg,left,0,0,0,0,,,,,0,11,11,11,,,,,,,,,0,0,0,0,0,6,6,6,,,,,,,,,,,,,,,,,,409.4408081820002,409.9406927259988,['return'],0,409.4408081820002,409.4408081820002,[0.35174115900008474],,,,,,,,,,,,,,,,,,,,,,,,,,,,,,,,,,,,,,,,,,,,,,,,,,,,,,,,,,,,juani,001,d,2019_Oct_10_1510,Experimento,3.2.3,59.952428347277596,
8,14,14,999,0.5,0:10,3,Yellow,None,0,0,1,28:50,./completed_changuitos/montage_sxcov_36.55_32.1.jpg,left,0,0,0,0,,,,,0,11,11,11,,,,,,,,,0,0,0,0,0,7,7,7,,,,,,,,,,,,,,,,,,411.4233388812907,None,None,1,411.4233388812907,None,,,,,,,,,,,,,,,,,,,,,,,,,,,,,,,,,,,,,,,,,,,,,,,,,,,,,,,,,,,,,juani,001,d,2019_Oct_10_1510,Experimento,3.2.3,59.952428347277596,
8,14,14,999,0.5,0:10,3,Cyan,None,0,0,1,28:50,./completed_changuitos/montage_sxcov_36.55_32.1.jpg,left,0,0,0,0,,,,,0,11,11,11,,,,,,,,,0,0,0,0,0,8,8,8,,,,,,,,,,,,,,,,,,411.4233388812907,None,None,1,411.4233388812907,None,,,,,,,,,,,,,,,,,,,,,,,,,,,,,,,,,,,,,,,,,,,,,,,,,,,,,,,,,,,,,juani,001,d,2019_Oct_10_1510,Experimento,3.2.3,59.952428347277596,
8,14,14,999,0.5,0:10,3,Yellow,['space'],0,0,1,28:50,./completed_changuitos/montage_sxcov_36.55_32.1.jpg,left,0,0,0,0,,,,,0,11,11,11,,,,,,,,,0,0,0,0,0,9,9,9,,,,,,,,,,,,,,,,,,411.4233388812907,None,None,0,411.4233388812907,None,,,,,,,,,,,,,,,,,,,,,,,,,,,,,,,,,,,,,,,,,,,,,,,,,,,,,,,,,,,,,juani,001,d,2019_Oct_10_1510,Experimento,3.2.3,59.952428347277596,
8,14,14,999,0.5,0:10,3,Magenta,None,0,0,1,28:50,./completed_changuitos/montage_sxcov_36.55_32.1.jpg,left,0,0,0,0,,,,,0,11,11,11,,,,,,,,,0,0,0,0,0,10,10,10,,,,,,,,,,,,,,,,,,411.4233388812907,None,None,1,411.4233388812907,None,,,,,,,,,,,,,,,,,,,,,,,,,,,,,,,,,,,,,,,,,,,,,,,,,,,,,,,,,,,,,juani,001,d,2019_Oct_10_1510,Experimento,3.2.3,59.952428347277596,
8,14,14,999,0.5,0:10,3,Red,None,0,0,1,28:50,./completed_changuitos/montage_sxcov_36.55_32.1.jpg,left,0,0,0,0,,,,,0,11,11,11,,,,,,,,,0,0,0,0,0,11,11,11,,,,,,,,,,,,,,,,,,411.43983008559155,None,None,1,411.43983008559155,None,,,,,,,,,,,,,,,,,,,,,,,,,,,,,,,,,,,,,,,,,,,,,,,,,,,,,,,,,,,,,juani,001,d,2019_Oct_10_1510,Experimento,3.2.3,59.952428347277596,
8,14,14,999,0.5,0:10,3,Magenta,['space'],0,0,1,28:50,./completed_changuitos/montage_sxcov_36.55_32.1.jpg,left,0,0,0,0,,,,,0,11,11,11,,,,,,,,,0,0,0,0,0,12,12,12,,,,,,,,,,,,,,,,,,411.43983008559155,None,None,0,411.43983008559155,None,,,,,,,,,,,,,,,,,,,,,,,,,,,,,,,,,,,,,,,,,,,,,,,,,,,,,,,,,,,,,juani,001,d,2019_Oct_10_1510,Experimento,3.2.3,59.952428347277596,
8,14,14,999,0.5,0:10,3,Red,['space'],0,0,1,28:50,./completed_changuitos/montage_sxcov_36.55_32.1.jpg,left,0,0,0,0,,,,,0,11,11,11,,,,,,,,,0,0,0,0,0,13,13,13,,,,,,,,,,,,,,,,,,411.43983008559155,None,None,0,411.43983008559155,None,,,,,,,,,,,,,,,,,,,,,,,,,,,,,,,,,,,,,,,,,,,,,,,,,,,,,,,,,,,,,juani,001,d,2019_Oct_10_1510,Experimento,3.2.3,59.952428347277596,
8,14,14,999,0.5,0:10,3,Yellow,None,0,0,1,28:50,./completed_changuitos/montage_sxcov_36.55_32.1.jpg,left,0,0,0,0,,,,,0,11,11,11,,,,,,,,,0,0,0,0,0,14,14,14,,,,,,,,,,,,,,,,,,411.43983008559155,None,None,1,411.43983008559155,None,,,,,,,,,,,,,,,,,,,,,,,,,,,,,,,,,,,,,,,,,,,,,,,,,,,,,,,,,,,,,juani,001,d,2019_Oct_10_1510,Experimento,3.2.3,59.952428347277596,
8,14,14,999,0.5,0:10,3,Cyan,None,0,0,1,28:50,./completed_changuitos/montage_sxcov_36.55_32.1.jpg,left,0,0,0,0,,,,,0,11,11,11,,,,,,,,,0,0,0,0,0,15,15,15,,,,,,,,,,,,,,,,,,411.43983008559155,None,None,1,411.43983008559155,None,,,,,,,,,,,,,,,,,,,,,,,,,,,,,,,,,,,,,,,,,,,,,,,,,,,,,,,,,,,,,juani,001,d,2019_Oct_10_1510,Experimento,3.2.3,59.952428347277596,
8,14,14,999,0.5,0:10,3,Green,None,0,0,1,28:50,./completed_changuitos/montage_sxcov_36.55_32.1.jpg,left,0,0,0,0,,,,,0,11,11,11,,,,,,,,,0,0,0,0,0,16,16,16,,,,,,,,,,,,,,,,,,411.4563212898924,None,None,1,411.4563212898924,None,,,,,,,,,,,,,,,,,,,,,,,,,,,,,,,,,,,,,,,,,,,,,,,,,,,,,,,,,,,,,juani,001,d,2019_Oct_10_1510,Experimento,3.2.3,59.952428347277596,
8,14,14,999,0.5,0:10,3,White,None,0,0,1,28:50,./completed_changuitos/montage_sxcov_36.55_32.1.jpg,left,0,0,0,0,,,,,0,11,11,11,,,,,,,,,0,0,0,0,0,17,17,17,,,,,,,,,,,,,,,,,,411.4563212898924,None,None,1,411.4563212898924,None,,,,,,,,,,,,,,,,,,,,,,,,,,,,,,,,,,,,,,,,,,,,,,,,,,,,,,,,,,,,,juani,001,d,2019_Oct_10_1510,Experimento,3.2.3,59.952428347277596,
8,14,14,999,0.5,0:10,3,Green,['space'],0,0,1,28:50,./completed_changuitos/montage_sxcov_36.55_32.1.jpg,left,0,0,0,0,,,,,0,11,11,11,,,,,,,,,0,0,0,0,0,18,18,18,,,,,,,,,,,,,,,,,,411.4563212898924,None,None,0,411.4563212898924,None,,,,,,,,,,,,,,,,,,,,,,,,,,,,,,,,,,,,,,,,,,,,,,,,,,,,,,,,,,,,,juani,001,d,2019_Oct_10_1510,Experimento,3.2.3,59.952428347277596,
8,14,14,999,0.5,0:10,3,Red,None,0,0,1,28:50,./completed_changuitos/montage_sxcov_36.55_32.1.jpg,left,0,0,0,0,,,,,0,11,11,11,,,,,,,,,0,0,0,0,0,19,19,19,,,,,,,,,,,,,,,,,,411.4563212898924,None,None,1,411.4563212898924,None,,,,,,,,,,,,,,,,,,,,,,,,,,,,,,,,,,,,,,,,,,,,,,,,,,,,,,,,,,,,,juani,001,d,2019_Oct_10_1510,Experimento,3.2.3,59.952428347277596,
8,14,14,999,0.5,0:10,3,Blue,None,0,0,1,28:50,./completed_changuitos/montage_sxcov_36.55_32.1.jpg,left,0,0,0,0,,,,,0,11,11,11,,,,,,,,,0,0,0,0,0,20,20,20,,,,,,,,,,,,,,,,,,411.4563212898924,None,None,1,411.4563212898924,None,,,,,,,,,,,,,,,,,,,,,,,,,,,,,,,,,,,,,,,,,,,,,,,,,,,,,,,,,,,,,juani,001,d,2019_Oct_10_1510,Experimento,3.2.3,59.952428347277596,
8,14,14,999,0.5,0:10,3,Green,None,0,0,1,28:50,./completed_changuitos/montage_sxcov_36.55_32.1.jpg,left,0,0,0,0,,,,,0,11,11,11,,,,,,,,,0,0,0,0,0,21,21,21,,,,,,,,,,,,,,,,,,411.4563212898924,None,None,1,411.4563212898924,None,,,,,,,,,,,,,,,,,,,,,,,,,,,,,,,,,,,,,,,,,,,,,,,,,,,,,,,,,,,,,juani,001,d,2019_Oct_10_1510,Experimento,3.2.3,59.952428347277596,
8,14,14,999,0.5,0:10,3,,,0,0,1,28:50,./completed_changuitos/montage_sxcov_36.55_32.1.jpg,left,0,0,0,0,,,,,0,11,11,11,,,,,,,,,0,0,0,0,,,,,,,,,,,,,,,,,,,,,,,,,,,,,411.4959411719901,None,left,1,2.1103834490058944,411.4959411719901,None,411.4959411719901,None,,,,,,,,,,,,,,,,,,,,,,,,,,,,,,,,,,,,,,,,,,,,,,,,,,,juani,001,d,2019_Oct_10_1510,Experimento,3.2.3,59.952428347277596,
8,14,14,999,0.5,0:10,3,,,0,0,1,28:50,,,0,0,0,0,,,,,0,11,11,11,,,,,,,,,,,,,,,,,,,,,,,,,,,,,,,,,,,,,,,,,,,,,,,,,,,,,,,,,,,,,,,,,,,,,,,,,,,,,,,,,,,,,,,,,,,,,,,,,,,,juani,001,d,2019_Oct_10_1510,Experimento,3.2.3,59.952428347277596,
8,14,14,999,0.5,0:10,3,,,1,0,0,30:50,./completed_changuitos/montage_jftcx_58.85_66.35.jpg,right,0,0,0,0,,,,,0,12,12,12,0,0,0,0,,,,,,,,,,,,,,,,,,,,,,,,,,,,,,,,,,,,,,,,,,,,,,,,,,,,,,,,,,,,,414.2225954099995,415.7220125719905,415.7220125719905,423.7357134289923,right,1,1.200400151006761,423.7357134289923,None,423.7357134289923,None,423.7357134289923,None,,,,,,,,,,,,,,,,,,,,,,,juani,001,d,2019_Oct_10_1510,Experimento,3.2.3,59.952428347277596,
8,14,14,999,0.5,0:10,3,,,1,0,0,30:50,,,0,0,0,0,,,,,0,12,12,12,,,,,,,,,,,,,,,,,,,,,,,,,,,,,,,,,,,,,,,,,,,,,,,,,,,,,,,,,,,,,,,,,,,,,,,,,,,,,,,,,,,,,,,,,,,,,,,,,,,,juani,001,d,2019_Oct_10_1510,Experimento,3.2.3,59.952428347277596,
8,14,14,999,0.5,0:10,3,,,1,0,0,32:50,./completed_changuitos/montage_esiex_158.35_183.59.jpg,right,0,0,0,0,,,,,0,13,13,13,0,0,0,0,,,,,,,,,,,,,,,,,,,,,,,,,,,,,,,,,,,,,,,,,,,,,,,,,,,,,,,,,,,,,425.5853476149932,426.81826813999214,426.81826813999214,434.83219523899606,right,1,0.866161337995436,434.83219523899606,None,434.83219523899606,None,434.83219523899606,None,,,,,,,,,,,,,,,,,,,,,,,juani,001,d,2019_Oct_10_1510,Experimento,3.2.3,59.952428347277596,
8,14,14,999,0.5,0:10,3,,,1,0,0,32:50,,,0,0,0,0,,,,,0,13,13,13,,,,,,,,,,,,,,,,,,,,,,,,,,,,,,,,,,,,,,,,,,,,,,,,,,,,,,,,,,,,,,,,,,,,,,,,,,,,,,,,,,,,,,,,,,,,,,,,,,,,juani,001,d,2019_Oct_10_1510,Experimento,3.2.3,59.952428347277596,
8,14,14,999,0.5,0:10,3,,,1,0,0,34:50,./completed_changuitos/montage_upbtt_46.0_40.55.jpg,left,0,0,0,0,,,,,0,14,14,14,0,0,0,0,,,,,,,,,,,,,,,,,,,,,,,,,,,,,,,,,,,,,,,,,,,,,,,,,,,,,,,,,,,,,436.33166150699253,437.39803002799454,437.39803002799454,445.411912141004,right,0,3.6659547860035673,445.411912141004,None,445.411912141004,None,445.411912141004,448.4275894399907,,,,,,,,,,,,,,,,,,,,,,,juani,001,d,2019_Oct_10_1510,Experimento,3.2.3,59.952428347277596,
8,14,14,999,0.5,0:10,3,,,1,0,0,34:50,,,0,0,0,0,,,,,0,14,14,14,,,,,,,,,,,,,,,,,,,,,,,,,,,,,,,,,,,,,,,,,,,,,,,,,,,,,,,,,,,,,,,,,,,,,,,,,,,,,,,,,,,,,,,,,,,,,,,,,,,,juani,001,d,2019_Oct_10_1510,Experimento,3.2.3,59.952428347277596,
8,14,14,999,0.5,0:10,3,,,1,0,0,30:50,./completed_changuitos/montage_ofuji_72.25_83.45.jpg,right,0,0,0,0,,,,,0,15,15,15,0,0,0,0,,,,,,,,,,,,,,,,,,,,,,,,,,,,,,,,,,,,,,,,,,,,,,,,,,,,,,,,,,,,,449.72707857399655,450.7430142039957,450.7430142039957,458.75736166199204,right,1,0.00031067400414031,458.75736166199204,None,458.75736166199204,None,458.75736166199204,None,,,,,,,,,,,,,,,,,,,,,,,juani,001,d,2019_Oct_10_1510,Experimento,3.2.3,59.952428347277596,
8,14,14,999,0.5,0:10,3,,,1,0,0,30:50,,,0,0,0,0,,,,,0,15,15,15,,,,,,,,,,,,,,,,,,,,,,,,,,,,,,,,,,,,,,,,,,,,,,,,,,,,,,,,,,,,,,,,,,,,,,,,,,,,,,,,,,,,,,,,,,,,,,,,,,,,juani,001,d,2019_Oct_10_1510,Experimento,3.2.3,59.952428347277596,
8,14,14,999,0.5,0:10,3,,,1,0,0,32:50,./completed_changuitos/montage_wednw_36.29_42.69.jpg,right,0,0,0,0,,,,,0,16,16,16,0,0,0,0,,,,,,,,,,,,,,,,,,,,,,,,,,,,,,,,,,,,,,,,,,,,,,,,,,,,,,,,,,,,,459.407082714999,461.5230460229941,461.5230460229941,469.5370412659977,right,1,0.0003177860053256154,469.5370412659977,None,469.5370412659977,None,469.5370412659977,None,,,,,,,,,,,,,,,,,,,,,,,juani,001,d,2019_Oct_10_1510,Experimento,3.2.3,59.952428347277596,
8,14,14,999,0.5,0:10,3,,,1,0,0,32:50,,,0,0,0,0,,,,,0,16,16,16,,,,,,,,,,,,,,,,,,,,,,,,,,,,,,,,,,,,,,,,,,,,,,,,,,,,,,,,,,,,,,,,,,,,,,,,,,,,,,,,,,,,,,,,,,,,,,,,,,,,juani,001,d,2019_Oct_10_1510,Experimento,3.2.3,59.952428347277596,
8,14,14,999,0.5,0:10,3,,,1,0,0,34:50,./completed_changuitos/montage_ewjxh_452.6_523.25.jpg,right,0,0,0,0,,,,,0,17,17,17,0,0,0,0,,,,,,,,,,,,,,,,,,,,,,,,,,,,,,,,,,,,,,,,,,,,,,,,,,,,,,,,,,,,,470.1696795159951,472.46893435499805,472.46893435499805,480.48322948400164,right,1,1.8499495319993002,480.48322948400164,None,480.48322948400164,None,480.48322948400164,None,,,,,,,,,,,,,,,,,,,,,,,juani,001,d,2019_Oct_10_1510,Experimento,3.2.3,59.952428347277596,
8,14,14,999,0.5,0:10,3,,,1,0,0,34:50,,,0,0,0,0,,,,,0,17,17,17,,,,,,,,,,,,,,,,,,,,,,,,,,,,,,,,,,,,,,,,,,,,,,,,,,,,,,,,,,,,,,,,,,,,,,,,,,,,,,,,,,,,,,,,,,,,,,,,,,,,juani,001,d,2019_Oct_10_1510,Experimento,3.2.3,59.952428347277596,
8,14,14,999,0.5,0:10,3,,,,,,,,,0,0,0,0,,,,,,,,,,,,,,,,,,,,,,,,,,,,,,,,,,,,,,,,,,,,,,,,,,,,,,,,,,,,,,,,,,,,,,,,,,,,,,,,,,,,,,482.4038126020023,485.93139510999026,1,6.232336647997727,485.93139510999026,None,485.93139510999026,None,c,15.911544642003719,492.1796017529996,None,492.1796017529996,None,492.1796017529996,None,508.10701367,None,6,13.29534070599766,508.10701367,None,juani,001,d,2019_Oct_10_1510,Experimento,3.2.3,59.952428347277596,
